"STUDYID","DOMAIN","USUBJID","BWSEQ","BWTESTCD","BWTEST","BWORRES","BWORRESU","BWSTRESC","BWSTRESN","BWSTRESU","BWSTAT","BWREASND","BWBLFL","BWFAST","BWEXCLFL","BWREASEX","VISITDY","BWDTC","BWDY"
"GLP003","BW","107001493",1,"TERMBW","Terminal Body Weight","378.0","g","378.0",378,"g",NA,NA,NA,NA,NA,NA,29,"2007-07-10T11:32:14",29
"GLP003","BW","107001427",2,"TERMBW","Terminal Body Weight","393.9","g","393.9",393.9,"g",NA,NA,NA,NA,NA,NA,29,"2007-07-10T11:32:21",29
"GLP003","BW","107001458",3,"TERMBW","Terminal Body Weight","398.2","g","398.2",398.2,"g",NA,NA,NA,NA,NA,NA,29,"2007-07-10T11:32:28",29
"GLP003","BW","107001389",4,"TERMBW","Terminal Body Weight","390.0","g","390.0",390,"g",NA,NA,NA,NA,NA,NA,29,"2007-07-10T11:32:39",29
"GLP003","BW","107001377",5,"TERMBW","Terminal Body Weight","403.8","g","403.8",403.8,"g",NA,NA,NA,NA,NA,NA,29,"2007-07-10T11:32:54",29
"GLP003","BW","107001472",6,"TERMBW","Terminal Body Weight","336.5","g","336.5",336.5,"g",NA,NA,NA,NA,NA,NA,30,"2007-07-11T09:38:28",30
"GLP003","BW","107001401",7,"TERMBW","Terminal Body Weight","416.2","g","416.2",416.2,"g",NA,NA,NA,NA,NA,NA,30,"2007-07-11T09:38:38",30
"GLP003","BW","107001466",8,"TERMBW","Terminal Body Weight","425.3","g","425.3",425.3,"g",NA,NA,NA,NA,NA,NA,30,"2007-07-11T09:39:18",30
"GLP003","BW","107001428",9,"TERMBW","Terminal Body Weight","440.0","g","440.0",440,"g",NA,NA,NA,NA,NA,NA,30,"2007-07-11T09:39:36",30
"GLP003","BW","107001483",10,"TERMBW","Terminal Body Weight","354.3","g","354.3",354.3,"g",NA,NA,NA,NA,NA,NA,30,"2007-07-11T09:39:55",30
"GLP003","BW","107001397",11,"TERMBW","Terminal Body Weight","402.4","g","402.4",402.4,"g",NA,NA,NA,NA,NA,NA,43,"2007-07-24T09:54:54",43
"GLP003","BW","107001467",12,"TERMBW","Terminal Body Weight","446.6","g","446.6",446.6,"g",NA,NA,NA,NA,NA,NA,43,"2007-07-24T09:55:08",43
"GLP003","BW","107001387",13,"TERMBW","Terminal Body Weight","399.5","g","399.5",399.5,"g",NA,NA,NA,NA,NA,NA,43,"2007-07-24T09:55:15",43
"GLP003","BW","107001384",14,"TERMBW","Terminal Body Weight","416.3","g","416.3",416.3,"g",NA,NA,NA,NA,NA,NA,43,"2007-07-24T09:55:21",43
"GLP003","BW","107001423",15,"TERMBW","Terminal Body Weight","404.1","g","404.1",404.1,"g",NA,NA,NA,NA,NA,NA,43,"2007-07-24T09:55:34",43
"GLP003","BW","107001529",16,"TERMBW","Terminal Body Weight","104.3","g","104.3",104.3,"g",NA,NA,NA,NA,NA,NA,29,"2007-07-12T10:59:20",29
"GLP003","BW","107001528",17,"TERMBW","Terminal Body Weight","129.1","g","129.1",129.1,"g",NA,NA,NA,NA,NA,NA,29,"2007-07-12T10:59:25",29
"GLP003","BW","107001576",18,"TERMBW","Terminal Body Weight","121.9","g","121.9",121.9,"g",NA,NA,NA,NA,NA,NA,29,"2007-07-12T10:59:30",29
"GLP003","BW","107001616",19,"TERMBW","Terminal Body Weight","229.6","g","229.6",229.6,"g",NA,NA,NA,NA,NA,NA,29,"2007-07-12T10:59:36",29
"GLP003","BW","107001500",20,"TERMBW","Terminal Body Weight","215.3","g","215.3",215.3,"g",NA,NA,NA,NA,NA,NA,29,"2007-07-12T10:59:52",29
"GLP003","BW","107001535",21,"TERMBW","Terminal Body Weight","247.4","g","247.4",247.4,"g",NA,NA,NA,NA,NA,NA,30,"2007-07-13T10:34:17",30
"GLP003","BW","107001647",22,"TERMBW","Terminal Body Weight","242.5","g","242.5",242.5,"g",NA,NA,NA,NA,NA,NA,30,"2007-07-13T10:34:22",30
"GLP003","BW","107001592",23,"TERMBW","Terminal Body Weight","219.0","g","219.0",219,"g",NA,NA,NA,NA,NA,NA,30,"2007-07-13T10:34:28",30
"GLP003","BW","107001569",24,"TERMBW","Terminal Body Weight","242.1","g","242.1",242.1,"g",NA,NA,NA,NA,NA,NA,30,"2007-07-13T10:34:33",30
"GLP003","BW","107001537",25,"TERMBW","Terminal Body Weight","237.3","g","237.3",237.3,"g",NA,NA,NA,NA,NA,NA,30,"2007-07-13T10:34:45",30
"GLP003","BW","107001594",26,"TERMBW","Terminal Body Weight","250.5","g","250.5",250.5,"g",NA,NA,NA,NA,NA,NA,43,"2007-07-26T11:39:11",43
"GLP003","BW","107001619",27,"TERMBW","Terminal Body Weight","238.6","g","238.6",238.6,"g",NA,NA,NA,NA,NA,NA,43,"2007-07-26T11:39:18",43
"GLP003","BW","107001518",28,"TERMBW","Terminal Body Weight","259.0","g","259.0",259,"g",NA,NA,NA,NA,NA,NA,43,"2007-07-26T11:39:25",43
"GLP003","BW","107001538",29,"TERMBW","Terminal Body Weight","256.4","g","256.4",256.4,"g",NA,NA,NA,NA,NA,NA,43,"2007-07-26T11:39:32",43
"GLP003","BW","107001581",30,"TERMBW","Terminal Body Weight","257.0","g","257.0",257,"g",NA,NA,NA,NA,NA,NA,43,"2007-07-26T11:39:38",43
"GLP003","BW","107001469",31,"TERMBW","Terminal Body Weight","367.5","g","367.5",367.5,"g",NA,NA,NA,NA,NA,NA,29,"2007-07-10T11:33:05",29
"GLP003","BW","107001425",32,"TERMBW","Terminal Body Weight","350.5","g","350.5",350.5,"g",NA,NA,NA,NA,NA,NA,29,"2007-07-10T11:33:11",29
"GLP003","BW","107001440",33,"TERMBW","Terminal Body Weight","423.0","g","423.0",423,"g",NA,NA,NA,NA,NA,NA,29,"2007-07-10T11:33:17",29
"GLP003","BW","107001419",34,"TERMBW","Terminal Body Weight","410.9","g","410.9",410.9,"g",NA,NA,NA,NA,NA,NA,29,"2007-07-10T11:33:24",29
"GLP003","BW","107001437",35,"TERMBW","Terminal Body Weight","377.5","g","377.5",377.5,"g",NA,NA,NA,NA,NA,NA,29,"2007-07-10T11:33:35",29
"GLP003","BW","107001415",36,"TERMBW","Terminal Body Weight","374.7","g","374.7",374.7,"g",NA,NA,NA,NA,NA,NA,30,"2007-07-11T09:40:28",30
"GLP003","BW","107001368",37,"TERMBW","Terminal Body Weight",NA,NA,NA,NA,NA,"NOT DONE","Animal aggressive, could not handle",NA,NA,NA,NA,6,"2007-06-17T10:37:16",6
"GLP003","BW","107001455",38,"TERMBW","Terminal Body Weight","440.8","g","440.8",440.8,"g",NA,NA,NA,NA,NA,NA,30,"2007-07-11T09:40:39",30
"GLP003","BW","107001470",39,"TERMBW","Terminal Body Weight","396.7","g","396.7",396.7,"g",NA,NA,NA,NA,NA,NA,30,"2007-07-11T09:41:50",30
"GLP003","BW","107001456",40,"TERMBW","Terminal Body Weight","366.8","g","366.8",366.8,"g",NA,NA,NA,NA,NA,NA,30,"2007-07-11T09:41:58",30
"GLP003","BW","107001351",41,"TERMBW","Terminal Body Weight","395.4","g","395.4",395.4,"g",NA,NA,NA,NA,NA,NA,43,"2007-07-24T09:55:49",43
"GLP003","BW","107001382",42,"TERMBW","Terminal Body Weight","441.9","g","441.9",441.9,"g",NA,NA,NA,NA,NA,NA,43,"2007-07-24T09:56:00",43
"GLP003","BW","107001362",43,"TERMBW","Terminal Body Weight","403.0","g","403.0",403,"g",NA,NA,NA,NA,NA,NA,43,"2007-07-24T09:56:08",43
"GLP003","BW","107001363",44,"TERMBW","Terminal Body Weight","443.6","g","443.6",443.6,"g",NA,NA,NA,NA,NA,NA,43,"2007-07-24T09:56:14",43
"GLP003","BW","107001473",45,"TERMBW","Terminal Body Weight","366.4","g","366.4",366.4,"g",NA,NA,NA,NA,NA,NA,43,"2007-07-24T09:56:27",43
"GLP003","BW","107001525",46,"TERMBW","Terminal Body Weight","223.4","g","223.4",223.4,"g",NA,NA,NA,NA,NA,NA,29,"2007-07-12T11:00:05",29
"GLP003","BW","107001541",47,"TERMBW","Terminal Body Weight","245.1","g","245.1",245.1,"g",NA,NA,NA,NA,NA,NA,29,"2007-07-12T11:00:11",29
"GLP003","BW","107001579",48,"TERMBW","Terminal Body Weight","238.2","g","238.2",238.2,"g",NA,NA,NA,NA,NA,NA,29,"2007-07-12T11:00:15",29
"GLP003","BW","107001534",49,"TERMBW","Terminal Body Weight","232.4","g","232.4",232.4,"g",NA,NA,NA,NA,NA,NA,29,"2007-07-12T11:00:23",29
"GLP003","BW","107001629",50,"TERMBW","Terminal Body Weight",NA,NA,NA,NA,NA,"NOT DONE","Animal aggressive, could not handle",NA,NA,NA,NA,8,"2007-06-21T09:21:28",8
"GLP003","BW","107001511",51,"TERMBW","Terminal Body Weight","215.9","g","215.9",215.9,"g",NA,NA,NA,NA,NA,NA,29,"2007-07-12T11:00:28",29
"GLP003","BW","107001620",52,"TERMBW","Terminal Body Weight","209.4","g","209.4",209.4,"g",NA,NA,NA,NA,NA,NA,30,"2007-07-13T10:34:49",30
"GLP003","BW","107001641",53,"TERMBW","Terminal Body Weight","238.6","g","238.6",238.6,"g",NA,NA,NA,NA,NA,NA,30,"2007-07-13T10:35:01",30
"GLP003","BW","107001602",54,"TERMBW","Terminal Body Weight","222.1","g","222.1",222.1,"g",NA,NA,NA,NA,NA,NA,30,"2007-07-13T10:35:06",30
"GLP003","BW","107001513",55,"TERMBW","Terminal Body Weight","219.2","g","219.2",219.2,"g",NA,NA,NA,NA,NA,NA,30,"2007-07-13T10:35:11",30
"GLP003","BW","107001556",56,"TERMBW","Terminal Body Weight","223.8","g","223.8",223.8,"g",NA,NA,NA,NA,NA,NA,43,"2007-07-26T11:39:44",43
"GLP003","BW","107001561",57,"TERMBW","Terminal Body Weight","231.2","g","231.2",231.2,"g",NA,NA,NA,NA,NA,NA,43,"2007-07-26T11:39:50",43
"GLP003","BW","107001559",58,"TERMBW","Terminal Body Weight","239.5","g","239.5",239.5,"g",NA,NA,NA,NA,NA,NA,43,"2007-07-26T11:40:03",43
"GLP003","BW","107001609",59,"TERMBW","Terminal Body Weight","254.0","g","254.0",254,"g",NA,NA,NA,NA,NA,NA,43,"2007-07-26T11:40:10",43
"GLP003","BW","107001563",60,"TERMBW","Terminal Body Weight","227.9","g","227.9",227.9,"g",NA,NA,NA,NA,NA,NA,43,"2007-07-26T11:40:16",43
"GLP003","BW","107001441",61,"TERMBW","Terminal Body Weight","355.3","g","355.3",355.3,"g",NA,NA,NA,NA,NA,NA,29,"2007-07-10T11:33:44",29
"GLP003","BW","107001488",62,"TERMBW","Terminal Body Weight","377.4","g","377.4",377.4,"g",NA,NA,NA,NA,NA,NA,29,"2007-07-10T11:33:52",29
"GLP003","BW","107001431",63,"TERMBW","Terminal Body Weight","348.5","g","348.5",348.5,"g",NA,NA,NA,NA,NA,NA,29,"2007-07-10T11:33:58",29
"GLP003","BW","107001394",64,"TERMBW","Terminal Body Weight","401.1","g","401.1",401.1,"g",NA,NA,NA,NA,NA,NA,29,"2007-07-10T11:34:03",29
"GLP003","BW","107001480",65,"TERMBW","Terminal Body Weight","359.5","g","359.5",359.5,"g",NA,NA,NA,NA,NA,NA,29,"2007-07-10T11:34:10",29
"GLP003","BW","107001411",66,"TERMBW","Terminal Body Weight","410.4","g","410.4",410.4,"g",NA,NA,NA,NA,NA,NA,30,"2007-07-11T09:42:17",30
"GLP003","BW","107001433",67,"TERMBW","Terminal Body Weight","317.0","g","317.0",317,"g",NA,NA,NA,NA,NA,NA,30,"2007-07-11T09:42:23",30
"GLP003","BW","107001375",68,"TERMBW","Terminal Body Weight","408.9","g","408.9",408.9,"g",NA,NA,NA,NA,NA,NA,30,"2007-07-11T09:42:29",30
"GLP003","BW","107001381",69,"TERMBW","Terminal Body Weight","368.4","g","368.4",368.4,"g",NA,NA,NA,NA,NA,NA,30,"2007-07-11T09:42:34",30
"GLP003","BW","107001416",70,"TERMBW","Terminal Body Weight","409.1","g","409.1",409.1,"g",NA,NA,NA,NA,NA,NA,30,"2007-07-11T09:42:42",30
"GLP003","BW","107001386",71,"TERMBW","Terminal Body Weight","427.9","g","427.9",427.9,"g",NA,NA,NA,NA,NA,NA,43,"2007-07-24T09:56:34",43
"GLP003","BW","107001379",72,"TERMBW","Terminal Body Weight","444.2","g","444.2",444.2,"g",NA,NA,NA,NA,NA,NA,43,"2007-07-24T09:56:40",43
"GLP003","BW","107001432",73,"TERMBW","Terminal Body Weight","422.7","g","422.7",422.7,"g",NA,NA,NA,NA,NA,NA,43,"2007-07-24T09:56:46",43
"GLP003","BW","107001478",74,"TERMBW","Terminal Body Weight","448.7","g","448.7",448.7,"g",NA,NA,NA,NA,NA,NA,43,"2007-07-24T09:56:52",43
"GLP003","BW","107001491",75,"TERMBW","Terminal Body Weight","444.5","g","444.5",444.5,"g",NA,NA,NA,NA,NA,NA,43,"2007-07-24T09:56:57",43
"GLP003","BW","107001570",76,"TERMBW","Terminal Body Weight","245.9","g","245.9",245.9,"g",NA,NA,NA,NA,NA,NA,29,"2007-07-12T11:00:35",29
"GLP003","BW","107001618",77,"TERMBW","Terminal Body Weight","219.7","g","219.7",219.7,"g",NA,NA,NA,NA,NA,NA,29,"2007-07-12T11:00:41",29
"GLP003","BW","107001520",78,"TERMBW","Terminal Body Weight","235.0","g","235.0",235,"g",NA,NA,NA,NA,NA,NA,29,"2007-07-12T11:00:47",29
"GLP003","BW","107001553",79,"TERMBW","Terminal Body Weight","216.6","g","216.6",216.6,"g",NA,NA,NA,NA,NA,NA,29,"2007-07-12T11:00:52",29
"GLP003","BW","107001540",80,"TERMBW","Terminal Body Weight","226.9","g","226.9",226.9,"g",NA,NA,NA,NA,NA,NA,29,"2007-07-12T11:01:03",29
"GLP003","BW","107001562",81,"TERMBW","Terminal Body Weight","232.6","g","232.6",232.6,"g",NA,NA,NA,NA,NA,NA,30,"2007-07-13T10:35:17",30
"GLP003","BW","107001631",82,"TERMBW","Terminal Body Weight","236.9","g","236.9",236.9,"g",NA,NA,NA,NA,NA,NA,30,"2007-07-13T10:35:26",30
"GLP003","BW","107001499",83,"TERMBW","Terminal Body Weight","235.7","g","235.7",235.7,"g",NA,NA,NA,NA,NA,NA,30,"2007-07-13T10:35:32",30
"GLP003","BW","107001552",84,"TERMBW","Terminal Body Weight","217.7","g","217.7",217.7,"g",NA,NA,NA,NA,NA,NA,30,"2007-07-13T10:35:38",30
"GLP003","BW","107001505",85,"TERMBW","Terminal Body Weight","238.3","g","238.3",238.3,"g",NA,NA,NA,NA,NA,NA,30,"2007-07-13T10:35:45",30
"GLP003","BW","107001637",86,"TERMBW","Terminal Body Weight","238.3","g","238.3",238.3,"g",NA,NA,NA,NA,NA,NA,43,"2007-07-26T11:40:23",43
"GLP003","BW","107001612",87,"TERMBW","Terminal Body Weight","256.2","g","256.2",256.2,"g",NA,NA,NA,NA,NA,NA,43,"2007-07-26T11:40:29",43
"GLP003","BW","107001574",88,"TERMBW","Terminal Body Weight","251.4","g","251.4",251.4,"g",NA,NA,NA,NA,NA,NA,43,"2007-07-26T11:40:38",43
"GLP003","BW","107001519",89,"TERMBW","Terminal Body Weight","263.9","g","263.9",263.9,"g",NA,NA,NA,NA,NA,NA,43,"2007-07-26T11:40:47",43
"GLP003","BW","107001589",90,"TERMBW","Terminal Body Weight","243.2","g","243.2",243.2,"g",NA,NA,NA,NA,NA,NA,43,"2007-07-26T11:40:53",43
"GLP003","BW","107001447",91,"TERMBW","Terminal Body Weight","401.9","g","401.9",401.9,"g",NA,NA,NA,NA,NA,NA,29,"2007-07-10T11:34:15",29
"GLP003","BW","107001414",92,"TERMBW","Terminal Body Weight","340.3","g","340.3",340.3,"g",NA,NA,NA,NA,NA,NA,29,"2007-07-10T11:34:28",29
"GLP003","BW","107001400",93,"TERMBW","Terminal Body Weight","437.1","g","437.1",437.1,"g",NA,NA,NA,NA,NA,NA,29,"2007-07-10T11:34:34",29
"GLP003","BW","107001454",94,"TERMBW","Terminal Body Weight","344.1","g","344.1",344.1,"g",NA,NA,NA,NA,NA,NA,29,"2007-07-10T11:34:45",29
"GLP003","BW","107001393",95,"TERMBW","Terminal Body Weight","407.2","g","407.2",407.2,"g",NA,NA,NA,NA,NA,NA,29,"2007-07-10T11:34:51",29
"GLP003","BW","107001355",96,"TERMBW","Terminal Body Weight","391.1","g","391.1",391.1,"g",NA,NA,NA,NA,NA,NA,30,"2007-07-11T09:42:56",30
"GLP003","BW","107001426",97,"TERMBW","Terminal Body Weight","456.5","g","456.5",456.5,"g",NA,NA,NA,NA,NA,NA,30,"2007-07-11T09:43:01",30
"GLP003","BW","107001424",98,"TERMBW","Terminal Body Weight","400.2","g","400.2",400.2,"g",NA,NA,NA,NA,NA,NA,30,"2007-07-11T09:43:10",30
"GLP003","BW","107001438",99,"TERMBW","Terminal Body Weight","333.8","g","333.8",333.8,"g",NA,NA,NA,NA,NA,NA,30,"2007-07-11T09:43:20",30
"GLP003","BW","107001404",100,"TERMBW","Terminal Body Weight","424.9","g","424.9",424.9,"g",NA,NA,NA,NA,NA,NA,30,"2007-07-11T09:43:29",30
"GLP003","BW","107001482",101,"TERMBW","Terminal Body Weight","441.6","g","441.6",441.6,"g",NA,NA,NA,NA,NA,NA,43,"2007-07-24T09:57:03",43
"GLP003","BW","107001486",102,"TERMBW","Terminal Body Weight","418.1","g","418.1",418.1,"g",NA,NA,NA,NA,NA,NA,43,"2007-07-24T09:57:08",43
"GLP003","BW","107001398",103,"TERMBW","Terminal Body Weight","402.2","g","402.2",402.2,"g",NA,NA,NA,NA,NA,NA,43,"2007-07-24T09:57:18",43
"GLP003","BW","107001445",104,"TERMBW","Terminal Body Weight","422.7","g","422.7",422.7,"g",NA,NA,NA,NA,NA,NA,43,"2007-07-24T09:57:25",43
"GLP003","BW","107001399",105,"TERMBW","Terminal Body Weight","438.0","g","438.0",438,"g",NA,NA,NA,NA,NA,NA,43,"2007-07-24T09:57:31",43
"GLP003","BW","107001583",106,"TERMBW","Terminal Body Weight","242.2","g","242.2",242.2,"g",NA,NA,NA,NA,NA,NA,29,"2007-07-12T11:01:10",29
"GLP003","BW","107001517",107,"TERMBW","Terminal Body Weight","244.9","g","244.9",244.9,"g",NA,NA,NA,NA,NA,NA,29,"2007-07-12T11:01:14",29
"GLP003","BW","107001545",108,"TERMBW","Terminal Body Weight","261.3","g","261.3",261.3,"g",NA,NA,NA,NA,NA,NA,29,"2007-07-12T11:01:23",29
"GLP003","BW","107001547",109,"TERMBW","Terminal Body Weight","226.8","g","226.8",226.8,"g",NA,NA,NA,NA,NA,NA,29,"2007-07-12T11:01:28",29
"GLP003","BW","107001627",110,"TERMBW","Terminal Body Weight","245.8","g","245.8",245.8,"g",NA,NA,NA,NA,NA,NA,29,"2007-07-12T11:01:34",29
"GLP003","BW","107001565",111,"TERMBW","Terminal Body Weight","204.1","g","204.1",204.1,"g",NA,NA,NA,NA,NA,NA,30,"2007-07-13T10:35:50",30
"GLP003","BW","107001643",112,"TERMBW","Terminal Body Weight","240.1","g","240.1",240.1,"g",NA,NA,NA,NA,NA,NA,30,"2007-07-13T10:35:55",30
"GLP003","BW","107001515",113,"TERMBW","Terminal Body Weight","224.1","g","224.1",224.1,"g",NA,NA,NA,NA,NA,NA,30,"2007-07-13T10:35:59",30
"GLP003","BW","107001521",114,"TERMBW","Terminal Body Weight","218.4","g","218.4",218.4,"g",NA,NA,NA,NA,NA,NA,30,"2007-07-13T10:36:09",30
"GLP003","BW","107001508",115,"TERMBW","Terminal Body Weight","236.5","g","236.5",236.5,"g",NA,NA,NA,NA,NA,NA,30,"2007-07-13T10:36:16",30
"GLP003","BW","107001584",116,"TERMBW","Terminal Body Weight","238.0","g","238.0",238,"g",NA,NA,NA,NA,NA,NA,43,"2007-07-26T11:40:59",43
"GLP003","BW","107001566",117,"TERMBW","Terminal Body Weight","217.4","g","217.4",217.4,"g",NA,NA,NA,NA,NA,NA,43,"2007-07-26T11:41:09",43
"GLP003","BW","107001644",118,"TERMBW","Terminal Body Weight","227.8","g","227.8",227.8,"g",NA,NA,NA,NA,NA,NA,43,"2007-07-26T11:41:17",43
"GLP003","BW","107001587",119,"TERMBW","Terminal Body Weight","253.0","g","253.0",253,"g",NA,NA,NA,NA,NA,NA,43,"2007-07-26T11:41:25",43
"GLP003","BW","107001638",120,"TERMBW","Terminal Body Weight","229.4","g","229.4",229.4,"g",NA,NA,NA,NA,NA,NA,43,"2007-07-26T11:41:37",43
"GLP003","BW","107001449",121,"TERMBW","Terminal Body Weight","398.5","g","398.5",398.5,"g",NA,NA,NA,NA,NA,NA,29,"2007-07-10T11:34:58",29
"GLP003","BW","107001392",122,"TERMBW","Terminal Body Weight","374.1","g","374.1",374.1,"g",NA,NA,NA,NA,NA,NA,29,"2007-07-10T11:35:05",29
"GLP003","BW","107001495",123,"TERMBW","Terminal Body Weight","432.9","g","432.9",432.9,"g",NA,NA,NA,NA,NA,NA,29,"2007-07-10T11:35:11",29
"GLP003","BW","107001391",124,"TERMBW","Terminal Body Weight","418.1","g","418.1",418.1,"g",NA,NA,NA,NA,NA,NA,29,"2007-07-10T11:35:17",29
"GLP003","BW","107001477",125,"TERMBW","Terminal Body Weight","399.0","g","399.0",399,"g",NA,NA,NA,NA,NA,NA,29,"2007-07-10T11:35:22",29
"GLP003","BW","107001369",126,"TERMBW","Terminal Body Weight","394.3","g","394.3",394.3,"g",NA,NA,NA,NA,NA,NA,30,"2007-07-11T09:43:40",30
"GLP003","BW","107001461",127,"TERMBW","Terminal Body Weight","387.1","g","387.1",387.1,"g",NA,NA,NA,NA,NA,NA,30,"2007-07-11T09:45:57",30
"GLP003","BW","107001376",128,"TERMBW","Terminal Body Weight","385.0","g","385.0",385,"g",NA,NA,NA,NA,NA,NA,30,"2007-07-11T09:46:10",30
"GLP003","BW","107001420",129,"TERMBW","Terminal Body Weight","394.2","g","394.2",394.2,"g",NA,NA,NA,NA,NA,NA,30,"2007-07-11T09:46:20",30
"GLP003","BW","107001350",130,"TERMBW","Terminal Body Weight","364.9","g","364.9",364.9,"g",NA,NA,NA,NA,NA,NA,30,"2007-07-11T09:46:40",30
"GLP003","BW","107001474",131,"TERMBW","Terminal Body Weight","422.9","g","422.9",422.9,"g",NA,NA,NA,NA,NA,NA,43,"2007-07-24T09:57:41",43
"GLP003","BW","107001446",132,"TERMBW","Terminal Body Weight","471.6","g","471.6",471.6,"g",NA,NA,NA,NA,NA,NA,43,"2007-07-24T09:57:48",43
"GLP003","BW","107001485",133,"TERMBW","Terminal Body Weight","390.6","g","390.6",390.6,"g",NA,NA,NA,NA,NA,NA,43,"2007-07-24T09:58:00",43
"GLP003","BW","107001435",134,"TERMBW","Terminal Body Weight","422.9","g","422.9",422.9,"g",NA,NA,NA,NA,NA,NA,43,"2007-07-24T09:58:20",43
"GLP003","BW","107001383",135,"TERMBW","Terminal Body Weight","425.2","g","425.2",425.2,"g",NA,NA,NA,NA,NA,NA,43,"2007-07-24T09:58:27",43
"GLP003","BW","107001533",136,"TERMBW","Terminal Body Weight","231.0","g","231.0",231,"g",NA,NA,NA,NA,NA,NA,29,"2007-07-12T11:01:39",29
"GLP003","BW","107001617",137,"TERMBW","Terminal Body Weight","221.3","g","221.3",221.3,"g",NA,NA,NA,NA,NA,NA,29,"2007-07-12T11:01:46",29
"GLP003","BW","107001578",138,"TERMBW","Terminal Body Weight","235.9","g","235.9",235.9,"g",NA,NA,NA,NA,NA,NA,29,"2007-07-12T11:01:51",29
"GLP003","BW","107001571",139,"TERMBW","Terminal Body Weight","216.8","g","216.8",216.8,"g",NA,NA,NA,NA,NA,NA,29,"2007-07-12T11:02:02",29
"GLP003","BW","107001532",140,"TERMBW","Terminal Body Weight","238.6","g","238.6",238.6,"g",NA,NA,NA,NA,NA,NA,29,"2007-07-12T11:02:07",29
"GLP003","BW","107001522",141,"TERMBW","Terminal Body Weight","221.3","g","221.3",221.3,"g",NA,NA,NA,NA,NA,NA,30,"2007-07-13T10:36:21",30
"GLP003","BW","107001610",142,"TERMBW","Terminal Body Weight","245.2","g","245.2",245.2,"g",NA,NA,NA,NA,NA,NA,30,"2007-07-13T10:36:34",30
"GLP003","BW","107001504",143,"TERMBW","Terminal Body Weight","221.4","g","221.4",221.4,"g",NA,NA,NA,NA,NA,NA,30,"2007-07-13T10:36:48",30
"GLP003","BW","107001536",144,"TERMBW","Terminal Body Weight","216.6","g","216.6",216.6,"g",NA,NA,NA,NA,NA,NA,30,"2007-07-13T10:36:58",30
"GLP003","BW","107001633",145,"TERMBW","Terminal Body Weight","233.8","g","233.8",233.8,"g",NA,NA,NA,NA,NA,NA,30,"2007-07-13T10:37:08",30
"GLP003","BW","107001628",146,"TERMBW","Terminal Body Weight","215.5","g","215.5",215.5,"g",NA,NA,NA,NA,NA,NA,43,"2007-07-26T11:41:42",43
"GLP003","BW","107001554",147,"TERMBW","Terminal Body Weight","253.5","g","253.5",253.5,"g",NA,NA,NA,NA,NA,NA,43,"2007-07-26T11:41:48",43
"GLP003","BW","107001598",148,"TERMBW","Terminal Body Weight","274.0","g","274.0",274,"g",NA,NA,NA,NA,NA,NA,43,"2007-07-26T11:41:53",43
"GLP003","BW","107001555",149,"TERMBW","Terminal Body Weight","238.3","g","238.3",238.3,"g",NA,NA,NA,NA,NA,NA,43,"2007-07-26T11:42:01",43
"GLP003","BW","107001588",150,"TERMBW","Terminal Body Weight","225.3","g","225.3",225.3,"g",NA,NA,NA,NA,NA,NA,43,"2007-07-26T11:42:08",43
"GLP003","BW","107001349",151,"BW","Body Weight","264","g","264",264,"g",NA,NA,NA,NA,NA,NA,-4,"2007-06-08T08:05:50",-4
"GLP003","BW","107001349",152,"BW","Body Weight","286","g","286",286,"g",NA,NA,NA,NA,NA,NA,-1,"2007-06-11T07:47:25",-1
"GLP003","BW","107001349",153,"BW","Body Weight","294","g","294",294,"g",NA,NA,"Y",NA,NA,NA,1,"2007-06-12T07:21:15",1
"GLP003","BW","107001349",154,"BW","Body Weight","326","g","326",326,"g",NA,NA,NA,NA,NA,NA,8,"2007-06-19T07:40:27",8
"GLP003","BW","107001349",155,"BW","Body Weight","356","g","356",356,"g",NA,NA,NA,NA,NA,NA,15,"2007-06-26T07:34:13",15
"GLP003","BW","107001349",156,"BW","Body Weight","387","g","387",387,"g",NA,NA,NA,NA,NA,NA,22,"2007-07-03T06:25:32",22
"GLP003","BW","107001350",157,"BW","Body Weight","260","g","260",260,"g",NA,NA,NA,NA,NA,NA,-4,"2007-06-08T08:05:58",-4
"GLP003","BW","107001350",158,"BW","Body Weight","282","g","282",282,"g",NA,NA,NA,NA,NA,NA,-1,"2007-06-11T07:47:34",-1
"GLP003","BW","107001350",159,"BW","Body Weight","287","g","287",287,"g",NA,NA,"Y",NA,NA,NA,1,"2007-06-12T07:36:25",1
"GLP003","BW","107001350",160,"BW","Body Weight","330","g","330",330,"g",NA,NA,NA,NA,NA,NA,8,"2007-06-19T07:55:14",8
"GLP003","BW","107001350",161,"BW","Body Weight","366","g","366",366,"g",NA,NA,NA,NA,NA,NA,15,"2007-06-26T07:45:48",15
"GLP003","BW","107001350",162,"BW","Body Weight","379","g","379",379,"g",NA,NA,NA,NA,NA,NA,22,"2007-07-03T06:50:03",22
"GLP003","BW","107001350",163,"BW","Body Weight","385","g","385",385,"g",NA,NA,NA,NA,NA,NA,29,"2007-07-10T10:59:49",29
"GLP003","BW","107001351",164,"BW","Body Weight","279","g","279",279,"g",NA,NA,NA,NA,NA,NA,-4,"2007-06-08T08:06:10",-4
"GLP003","BW","107001351",165,"BW","Body Weight","296","g","296",296,"g",NA,NA,NA,NA,NA,NA,-1,"2007-06-11T07:47:39",-1
"GLP003","BW","107001351",166,"BW","Body Weight","302","g","302",302,"g",NA,NA,"Y",NA,NA,NA,1,"2007-06-12T07:23:38",1
"GLP003","BW","107001351",167,"BW","Body Weight","331","g","331",331,"g",NA,NA,NA,NA,NA,NA,8,"2007-06-19T07:42:52",8
"GLP003","BW","107001351",168,"BW","Body Weight","352","g","352",352,"g",NA,NA,NA,NA,NA,NA,15,"2007-06-26T07:36:19",15
"GLP003","BW","107001351",169,"BW","Body Weight","377","g","377",377,"g",NA,NA,NA,NA,NA,NA,22,"2007-07-03T06:35:13",22
"GLP003","BW","107001351",170,"BW","Body Weight","371","g","371",371,"g",NA,NA,NA,NA,NA,NA,29,"2007-07-10T10:54:15",29
"GLP003","BW","107001351",171,"BW","Body Weight","404","g","404",404,"g",NA,NA,NA,NA,NA,NA,36,"2007-07-17T07:37:58",36
"GLP003","BW","107001352",172,"BW","Body Weight","264","g","264",264,"g",NA,NA,NA,NA,NA,NA,-4,"2007-06-08T08:06:18",-4
"GLP003","BW","107001352",173,"BW","Body Weight","300","g","300",300,"g",NA,NA,NA,NA,NA,NA,-1,"2007-06-11T07:47:45",-1
"GLP003","BW","107001352",174,"BW","Body Weight","301","g","301",301,"g",NA,NA,"Y",NA,NA,NA,1,"2007-06-12T07:33:15",1
"GLP003","BW","107001352",175,"BW","Body Weight","326","g","326",326,"g",NA,NA,NA,NA,NA,NA,8,"2007-06-19T07:52:34",8
"GLP003","BW","107001352",176,"BW","Body Weight","361","g","361",361,"g",NA,NA,NA,NA,NA,NA,15,"2007-06-26T07:43:20",15
"GLP003","BW","107001352",177,"BW","Body Weight","388","g","388",388,"g",NA,NA,NA,NA,NA,NA,22,"2007-07-03T06:45:58",22
"GLP003","BW","107001354",178,"BW","Body Weight","265","g","265",265,"g",NA,NA,NA,NA,NA,NA,-4,"2007-06-08T08:06:36",-4
"GLP003","BW","107001354",179,"BW","Body Weight","294","g","294",294,"g",NA,NA,NA,NA,NA,NA,-1,"2007-06-11T07:47:59",-1
"GLP003","BW","107001354",180,"BW","Body Weight","298","g","298",298,"g",NA,NA,"Y",NA,NA,NA,1,"2007-06-12T07:34:08",1
"GLP003","BW","107001354",181,"BW","Body Weight","336","g","336",336,"g",NA,NA,NA,NA,NA,NA,8,"2007-06-19T07:53:40",8
"GLP003","BW","107001354",182,"BW","Body Weight","368","g","368",368,"g",NA,NA,NA,NA,NA,NA,15,"2007-06-26T07:44:11",15
"GLP003","BW","107001354",183,"BW","Body Weight","399","g","399",399,"g",NA,NA,NA,NA,NA,NA,22,"2007-07-03T06:47:43",22
"GLP003","BW","107001355",184,"BW","Body Weight","284","g","284",284,"g",NA,NA,NA,NA,NA,NA,-4,"2007-06-08T08:06:45",-4
"GLP003","BW","107001355",185,"BW","Body Weight","307","g","307",307,"g",NA,NA,NA,NA,NA,NA,-1,"2007-06-11T07:48:09",-1
"GLP003","BW","107001355",186,"BW","Body Weight","309","g","309",309,"g",NA,NA,"Y",NA,NA,NA,1,"2007-06-12T07:31:34",1
"GLP003","BW","107001355",187,"BW","Body Weight","348","g","348",348,"g",NA,NA,NA,NA,NA,NA,8,"2007-06-19T07:50:35",8
"GLP003","BW","107001355",188,"BW","Body Weight","376","g","376",376,"g",NA,NA,NA,NA,NA,NA,15,"2007-06-26T07:42:06",15
"GLP003","BW","107001355",189,"BW","Body Weight","404","g","404",404,"g",NA,NA,NA,NA,NA,NA,22,"2007-07-03T06:43:57",22
"GLP003","BW","107001355",190,"BW","Body Weight","414","g","414",414,"g",NA,NA,NA,NA,NA,NA,29,"2007-07-10T10:57:21",29
"GLP003","BW","107001358",191,"BW","Body Weight","265","g","265",265,"g",NA,NA,NA,NA,NA,NA,-4,"2007-06-08T08:07:10",-4
"GLP003","BW","107001358",192,"BW","Body Weight","290","g","290",290,"g",NA,NA,NA,NA,NA,NA,-1,"2007-06-11T07:48:28",-1
"GLP003","BW","107001358",193,"BW","Body Weight","296","g","296",296,"g",NA,NA,"Y",NA,NA,NA,1,"2007-06-12T07:21:24",1
"GLP003","BW","107001358",194,"BW","Body Weight","335","g","335",335,"g",NA,NA,NA,NA,NA,NA,8,"2007-06-19T07:40:35",8
"GLP003","BW","107001358",195,"BW","Body Weight","375","g","375",375,"g",NA,NA,NA,NA,NA,NA,15,"2007-06-26T07:34:19",15
"GLP003","BW","107001358",196,"BW","Body Weight","408","g","408",408,"g",NA,NA,NA,NA,NA,NA,22,"2007-07-03T06:25:45",22
"GLP003","BW","107001360",197,"BW","Body Weight","274","g","274",274,"g",NA,NA,NA,NA,NA,NA,-4,"2007-06-08T08:07:24",-4
"GLP003","BW","107001360",198,"BW","Body Weight","304","g","304",304,"g",NA,NA,NA,NA,NA,NA,-1,"2007-06-11T07:48:43",-1
"GLP003","BW","107001360",199,"BW","Body Weight","310","g","310",310,"g",NA,NA,"Y",NA,NA,NA,1,"2007-06-12T07:21:51",1
"GLP003","BW","107001360",200,"BW","Body Weight","362","g","362",362,"g",NA,NA,NA,NA,NA,NA,8,"2007-06-19T07:41:05",8
"GLP003","BW","107001360",201,"BW","Body Weight","405","g","405",405,"g",NA,NA,NA,NA,NA,NA,15,"2007-06-26T07:34:47",15
"GLP003","BW","107001360",202,"BW","Body Weight","443","g","443",443,"g",NA,NA,NA,NA,NA,NA,22,"2007-07-03T06:32:29",22
"GLP003","BW","107001362",203,"BW","Body Weight","278","g","278",278,"g",NA,NA,NA,NA,NA,NA,-4,"2007-06-08T08:07:40",-4
"GLP003","BW","107001362",204,"BW","Body Weight","302","g","302",302,"g",NA,NA,NA,NA,NA,NA,-1,"2007-06-11T07:49:00",-1
"GLP003","BW","107001362",205,"BW","Body Weight","309","g","309",309,"g",NA,NA,"Y",NA,NA,NA,1,"2007-06-12T07:23:53",1
"GLP003","BW","107001362",206,"BW","Body Weight","343","g","343",343,"g",NA,NA,NA,NA,NA,NA,8,"2007-06-19T07:43:08",8
"GLP003","BW","107001362",207,"BW","Body Weight","370","g","370",370,"g",NA,NA,NA,NA,NA,NA,15,"2007-06-26T07:36:32",15
"GLP003","BW","107001362",208,"BW","Body Weight","387","g","387",387,"g",NA,NA,NA,NA,NA,NA,22,"2007-07-03T06:35:32",22
"GLP003","BW","107001362",209,"BW","Body Weight","380","g","380",380,"g",NA,NA,NA,NA,NA,NA,29,"2007-07-10T10:54:48",29
"GLP003","BW","107001362",210,"BW","Body Weight","414","g","414",414,"g",NA,NA,NA,NA,NA,NA,36,"2007-07-17T07:38:14",36
"GLP003","BW","107001363",211,"BW","Body Weight","266","g","266",266,"g",NA,NA,NA,NA,NA,NA,-4,"2007-06-08T08:07:46",-4
"GLP003","BW","107001363",212,"BW","Body Weight","292","g","292",292,"g",NA,NA,NA,NA,NA,NA,-1,"2007-06-11T07:49:07",-1
"GLP003","BW","107001363",213,"BW","Body Weight","299","g","299",299,"g",NA,NA,"Y",NA,NA,NA,1,"2007-06-12T07:24:20",1
"GLP003","BW","107001363",214,"BW","Body Weight","350","g","350",350,"g",NA,NA,NA,NA,NA,NA,8,"2007-06-19T07:43:14",8
"GLP003","BW","107001363",215,"BW","Body Weight","390","g","390",390,"g",NA,NA,NA,NA,NA,NA,15,"2007-06-26T07:36:39",15
"GLP003","BW","107001363",216,"BW","Body Weight","422","g","422",422,"g",NA,NA,NA,NA,NA,NA,22,"2007-07-03T06:35:39",22
"GLP003","BW","107001363",217,"BW","Body Weight","437","g","437",437,"g",NA,NA,NA,NA,NA,NA,29,"2007-07-10T10:54:56",29
"GLP003","BW","107001363",218,"BW","Body Weight","458","g","458",458,"g",NA,NA,NA,NA,NA,NA,36,"2007-07-17T07:38:21",36
"GLP003","BW","107001367",219,"BW","Body Weight","269","g","269",269,"g",NA,NA,NA,NA,NA,NA,-4,"2007-06-08T08:08:18",-4
"GLP003","BW","107001367",220,"BW","Body Weight","293","g","293",293,"g",NA,NA,NA,NA,NA,NA,-1,"2007-06-11T07:49:31",-1
"GLP003","BW","107001367",221,"BW","Body Weight","300.7","g","300.7",300.7,"g",NA,NA,"Y",NA,NA,NA,1,"2007-06-12T07:30:25",1
"GLP003","BW","107001367",222,"BW","Body Weight","345","g","345",345,"g",NA,NA,NA,NA,NA,NA,8,"2007-06-19T07:49:29",8
"GLP003","BW","107001367",223,"BW","Body Weight","391","g","391",391,"g",NA,NA,NA,NA,NA,NA,15,"2007-06-26T07:41:07",15
"GLP003","BW","107001367",224,"BW","Body Weight","417","g","417",417,"g",NA,NA,NA,NA,NA,NA,22,"2007-07-03T06:41:59",22
"GLP003","BW","107001368",225,"BW","Body Weight","283","g","283",283,"g",NA,NA,NA,NA,NA,NA,-4,"2007-06-08T08:08:26",-4
"GLP003","BW","107001368",226,"BW","Body Weight","306","g","306",306,"g",NA,NA,NA,NA,NA,NA,-1,"2007-06-11T07:49:38",-1
"GLP003","BW","107001368",227,"BW","Body Weight","305","g","305",305,"g",NA,NA,"Y",NA,NA,NA,1,"2007-06-12T07:23:05",1
"GLP003","BW","107001369",228,"BW","Body Weight","260","g","260",260,"g",NA,NA,NA,NA,NA,NA,-4,"2007-06-08T08:08:33",-4
"GLP003","BW","107001369",229,"BW","Body Weight","284","g","284",284,"g",NA,NA,NA,NA,NA,NA,-1,"2007-06-11T07:49:46",-1
"GLP003","BW","107001369",230,"BW","Body Weight","292","g","292",292,"g",NA,NA,"Y",NA,NA,NA,1,"2007-06-12T07:35:44",1
"GLP003","BW","107001369",231,"BW","Body Weight","323","g","323",323,"g",NA,NA,NA,NA,NA,NA,8,"2007-06-19T07:54:45",8
"GLP003","BW","107001369",232,"BW","Body Weight","360","g","360",360,"g",NA,NA,NA,NA,NA,NA,15,"2007-06-26T07:45:19",15
"GLP003","BW","107001369",233,"BW","Body Weight","396","g","396",396,"g",NA,NA,NA,NA,NA,NA,22,"2007-07-03T06:49:16",22
"GLP003","BW","107001369",234,"BW","Body Weight","412","g","412",412,"g",NA,NA,NA,NA,NA,NA,29,"2007-07-10T10:59:11",29
"GLP003","BW","107001371",235,"BW","Body Weight","270","g","270",270,"g",NA,NA,NA,NA,NA,NA,-4,"2007-06-08T08:08:50",-4
"GLP003","BW","107001371",236,"BW","Body Weight","307","g","307",307,"g",NA,NA,NA,NA,NA,NA,-1,"2007-06-11T07:50:00",-1
"GLP003","BW","107001371",237,"BW","Body Weight","315","g","315",315,"g",NA,NA,"Y",NA,NA,NA,1,"2007-06-12T07:25:25",1
"GLP003","BW","107001371",238,"BW","Body Weight","369","g","369",369,"g",NA,NA,NA,NA,NA,NA,8,"2007-06-19T07:44:21",8
"GLP003","BW","107001371",239,"BW","Body Weight","416","g","416",416,"g",NA,NA,NA,NA,NA,NA,15,"2007-06-26T07:37:40",15
"GLP003","BW","107001371",240,"BW","Body Weight","452","g","452",452,"g",NA,NA,NA,NA,NA,NA,22,"2007-07-03T06:37:10",22
"GLP003","BW","107001373",241,"BW","Body Weight","275","g","275",275,"g",NA,NA,NA,NA,NA,NA,-4,"2007-06-08T08:09:06",-4
"GLP003","BW","107001373",242,"BW","Body Weight","297","g","297",297,"g",NA,NA,NA,NA,NA,NA,-1,"2007-06-11T07:50:14",-1
"GLP003","BW","107001373",243,"BW","Body Weight","303","g","303",303,"g",NA,NA,"Y",NA,NA,NA,1,"2007-06-12T07:24:33",1
"GLP003","BW","107001373",244,"BW","Body Weight","349","g","349",349,"g",NA,NA,NA,NA,NA,NA,8,"2007-06-19T07:43:33",8
"GLP003","BW","107001373",245,"BW","Body Weight","382","g","382",382,"g",NA,NA,NA,NA,NA,NA,15,"2007-06-26T07:37:01",15
"GLP003","BW","107001373",246,"BW","Body Weight","416","g","416",416,"g",NA,NA,NA,NA,NA,NA,22,"2007-07-03T06:36:01",22
"GLP003","BW","107001374",247,"BW","Body Weight","281","g","281",281,"g",NA,NA,NA,NA,NA,NA,-4,"2007-06-08T08:09:17",-4
"GLP003","BW","107001374",248,"BW","Body Weight","301","g","301",301,"g",NA,NA,NA,NA,NA,NA,-1,"2007-06-11T07:50:22",-1
"GLP003","BW","107001374",249,"BW","Body Weight","305","g","305",305,"g",NA,NA,"Y",NA,NA,NA,1,"2007-06-12T07:20:45",1
"GLP003","BW","107001374",250,"BW","Body Weight","342","g","342",342,"g",NA,NA,NA,NA,NA,NA,8,"2007-06-19T07:39:44",8
"GLP003","BW","107001374",251,"BW","Body Weight","365","g","365",365,"g",NA,NA,NA,NA,NA,NA,15,"2007-06-26T07:33:54",15
"GLP003","BW","107001374",252,"BW","Body Weight","390","g","390",390,"g",NA,NA,NA,NA,NA,NA,22,"2007-07-03T06:24:17",22
"GLP003","BW","107001375",253,"BW","Body Weight","261","g","261",261,"g",NA,NA,NA,NA,NA,NA,-4,"2007-06-08T08:09:26",-4
"GLP003","BW","107001375",254,"BW","Body Weight","288","g","288",288,"g",NA,NA,NA,NA,NA,NA,-1,"2007-06-11T07:50:30",-1
"GLP003","BW","107001375",255,"BW","Body Weight","297","g","297",297,"g",NA,NA,"Y",NA,NA,NA,1,"2007-06-12T07:27:16",1
"GLP003","BW","107001375",256,"BW","Body Weight","346","g","346",346,"g",NA,NA,NA,NA,NA,NA,8,"2007-06-19T07:46:05",8
"GLP003","BW","107001375",257,"BW","Body Weight","387","g","387",387,"g",NA,NA,NA,NA,NA,NA,15,"2007-06-26T07:39:17",15
"GLP003","BW","107001375",258,"BW","Body Weight","422","g","422",422,"g",NA,NA,NA,NA,NA,NA,22,"2007-07-03T06:38:59",22
"GLP003","BW","107001375",259,"BW","Body Weight","445","g","445",445,"g",NA,NA,NA,NA,NA,NA,29,"2007-07-10T10:55:49",29
"GLP003","BW","107001376",260,"BW","Body Weight","265","g","265",265,"g",NA,NA,NA,NA,NA,NA,-4,"2007-06-08T08:09:33",-4
"GLP003","BW","107001376",261,"BW","Body Weight","294","g","294",294,"g",NA,NA,NA,NA,NA,NA,-1,"2007-06-11T07:50:37",-1
"GLP003","BW","107001376",262,"BW","Body Weight","300","g","300",300,"g",NA,NA,"Y",NA,NA,NA,1,"2007-06-12T07:36:05",1
"GLP003","BW","107001376",263,"BW","Body Weight","334","g","334",334,"g",NA,NA,NA,NA,NA,NA,8,"2007-06-19T07:55:02",8
"GLP003","BW","107001376",264,"BW","Body Weight","370","g","370",370,"g",NA,NA,NA,NA,NA,NA,15,"2007-06-26T07:45:34",15
"GLP003","BW","107001376",265,"BW","Body Weight","395","g","395",395,"g",NA,NA,NA,NA,NA,NA,22,"2007-07-03T06:49:43",22
"GLP003","BW","107001376",266,"BW","Body Weight","406","g","406",406,"g",NA,NA,NA,NA,NA,NA,29,"2007-07-10T10:59:30",29
"GLP003","BW","107001377",267,"BW","Body Weight","261","g","261",261,"g",NA,NA,NA,NA,NA,NA,-4,"2007-06-08T08:09:42",-4
"GLP003","BW","107001377",268,"BW","Body Weight","296","g","296",296,"g",NA,NA,NA,NA,NA,NA,-1,"2007-06-11T07:50:47",-1
"GLP003","BW","107001377",269,"BW","Body Weight","301","g","301",301,"g",NA,NA,"Y",NA,NA,NA,1,"2007-06-12T07:18:54",1
"GLP003","BW","107001377",270,"BW","Body Weight","356","g","356",356,"g",NA,NA,NA,NA,NA,NA,8,"2007-06-19T07:38:06",8
"GLP003","BW","107001377",271,"BW","Body Weight","399","g","399",399,"g",NA,NA,NA,NA,NA,NA,15,"2007-06-26T07:32:29",15
"GLP003","BW","107001377",272,"BW","Body Weight","427","g","427",427,"g",NA,NA,NA,NA,NA,NA,22,"2007-07-03T06:21:57",22
"GLP003","BW","107001378",273,"BW","Body Weight","256","g","256",256,"g",NA,NA,NA,NA,NA,NA,-4,"2007-06-08T08:09:50",-4
"GLP003","BW","107001378",274,"BW","Body Weight","286","g","286",286,"g",NA,NA,NA,NA,NA,NA,-1,"2007-06-11T07:50:54",-1
"GLP003","BW","107001378",275,"BW","Body Weight","290","g","290",290,"g",NA,NA,"Y",NA,NA,NA,1,"2007-06-12T07:29:47",1
"GLP003","BW","107001378",276,"BW","Body Weight","341","g","341",341,"g",NA,NA,NA,NA,NA,NA,8,"2007-06-19T07:48:30",8
"GLP003","BW","107001378",277,"BW","Body Weight","377","g","377",377,"g",NA,NA,NA,NA,NA,NA,15,"2007-06-26T07:40:32",15
"GLP003","BW","107001378",278,"BW","Body Weight","417","g","417",417,"g",NA,NA,NA,NA,NA,NA,22,"2007-07-03T06:40:54",22
"GLP003","BW","107001379",279,"BW","Body Weight","279","g","279",279,"g",NA,NA,NA,NA,NA,NA,-4,"2007-06-08T08:10:22",-4
"GLP003","BW","107001379",280,"BW","Body Weight","303","g","303",303,"g",NA,NA,NA,NA,NA,NA,-1,"2007-06-11T07:51:39",-1
"GLP003","BW","107001379",281,"BW","Body Weight","311","g","311",311,"g",NA,NA,"Y",NA,NA,NA,1,"2007-06-12T07:28:02",1
"GLP003","BW","107001379",282,"BW","Body Weight","359","g","359",359,"g",NA,NA,NA,NA,NA,NA,8,"2007-06-19T07:46:56",8
"GLP003","BW","107001379",283,"BW","Body Weight","401","g","401",401,"g",NA,NA,NA,NA,NA,NA,15,"2007-06-26T07:39:42",15
"GLP003","BW","107001379",284,"BW","Body Weight","430","g","430",430,"g",NA,NA,NA,NA,NA,NA,22,"2007-07-03T06:39:40",22
"GLP003","BW","107001379",285,"BW","Body Weight","414","g","414",414,"g",NA,NA,NA,NA,NA,NA,29,"2007-07-10T10:56:27",29
"GLP003","BW","107001379",286,"BW","Body Weight","461","g","461",461,"g",NA,NA,NA,NA,NA,NA,36,"2007-07-17T07:38:55",36
"GLP003","BW","107001380",287,"BW","Body Weight","266","g","266",266,"g",NA,NA,NA,NA,NA,NA,-4,"2007-06-08T08:10:32",-4
"GLP003","BW","107001380",288,"BW","Body Weight","295","g","295",295,"g",NA,NA,NA,NA,NA,NA,-1,"2007-06-11T07:51:44",-1
"GLP003","BW","107001380",289,"BW","Body Weight","302","g","302",302,"g",NA,NA,"Y",NA,NA,NA,1,"2007-06-12T07:38:20",1
"GLP003","BW","107001380",290,"BW","Body Weight","349","g","349",349,"g",NA,NA,NA,NA,NA,NA,8,"2007-06-19T07:57:14",8
"GLP003","BW","107001380",291,"BW","Body Weight","386","g","386",386,"g",NA,NA,NA,NA,NA,NA,15,"2007-06-26T07:47:33",15
"GLP003","BW","107001380",292,"BW","Body Weight","411","g","411",411,"g",NA,NA,NA,NA,NA,NA,22,"2007-07-03T06:52:38",22
"GLP003","BW","107001381",293,"BW","Body Weight","268","g","268",268,"g",NA,NA,NA,NA,NA,NA,-4,"2007-06-08T08:10:36",-4
"GLP003","BW","107001381",294,"BW","Body Weight","290","g","290",290,"g",NA,NA,NA,NA,NA,NA,-1,"2007-06-11T07:51:52",-1
"GLP003","BW","107001381",295,"BW","Body Weight","301","g","301",301,"g",NA,NA,"Y",NA,NA,NA,1,"2007-06-12T07:27:36",1
"GLP003","BW","107001381",296,"BW","Body Weight","336","g","336",336,"g",NA,NA,NA,NA,NA,NA,8,"2007-06-19T07:46:26",8
"GLP003","BW","107001381",297,"BW","Body Weight","365","g","365",365,"g",NA,NA,NA,NA,NA,NA,15,"2007-06-26T07:39:22",15
"GLP003","BW","107001381",298,"BW","Body Weight","387","g","387",387,"g",NA,NA,NA,NA,NA,NA,22,"2007-07-03T06:39:09",22
"GLP003","BW","107001381",299,"BW","Body Weight","400","g","400",400,"g",NA,NA,NA,NA,NA,NA,29,"2007-07-10T10:55:58",29
"GLP003","BW","107001382",300,"BW","Body Weight","271","g","271",271,"g",NA,NA,NA,NA,NA,NA,-4,"2007-06-08T08:10:45",-4
"GLP003","BW","107001382",301,"BW","Body Weight","304","g","304",304,"g",NA,NA,NA,NA,NA,NA,-1,"2007-06-11T07:51:59",-1
"GLP003","BW","107001382",302,"BW","Body Weight","311","g","311",311,"g",NA,NA,"Y",NA,NA,NA,1,"2007-06-12T07:23:45",1
"GLP003","BW","107001382",303,"BW","Body Weight","357","g","357",357,"g",NA,NA,NA,NA,NA,NA,8,"2007-06-19T07:42:59",8
"GLP003","BW","107001382",304,"BW","Body Weight","389","g","389",389,"g",NA,NA,NA,NA,NA,NA,15,"2007-06-26T07:36:25",15
"GLP003","BW","107001382",305,"BW","Body Weight","428","g","428",428,"g",NA,NA,NA,NA,NA,NA,22,"2007-07-03T06:35:21",22
"GLP003","BW","107001382",306,"BW","Body Weight","408","g","408",408,"g",NA,NA,NA,NA,NA,NA,29,"2007-07-10T10:54:36",29
"GLP003","BW","107001382",307,"BW","Body Weight","459","g","459",459,"g",NA,NA,NA,NA,NA,NA,36,"2007-07-17T07:38:04",36
"GLP003","BW","107001383",308,"BW","Body Weight","267","g","267",267,"g",NA,NA,NA,NA,NA,NA,-4,"2007-06-08T08:10:53",-4
"GLP003","BW","107001383",309,"BW","Body Weight","298","g","298",298,"g",NA,NA,NA,NA,NA,NA,-1,"2007-06-11T07:52:10",-1
"GLP003","BW","107001383",310,"BW","Body Weight","306","g","306",306,"g",NA,NA,"Y",NA,NA,NA,1,"2007-06-12T07:37:05",1
"GLP003","BW","107001383",311,"BW","Body Weight","338","g","338",338,"g",NA,NA,NA,NA,NA,NA,8,"2007-06-19T07:56:06",8
"GLP003","BW","107001383",312,"BW","Body Weight","377","g","377",377,"g",NA,NA,NA,NA,NA,NA,15,"2007-06-26T07:46:35",15
"GLP003","BW","107001383",313,"BW","Body Weight","408","g","408",408,"g",NA,NA,NA,NA,NA,NA,22,"2007-07-03T06:50:54",22
"GLP003","BW","107001383",314,"BW","Body Weight","418","g","418",418,"g",NA,NA,NA,NA,NA,NA,29,"2007-07-10T11:01:00",29
"GLP003","BW","107001383",315,"BW","Body Weight","441","g","441",441,"g",NA,NA,NA,NA,NA,NA,36,"2007-07-17T07:41:42",36
"GLP003","BW","107001384",316,"BW","Body Weight","266","g","266",266,"g",NA,NA,NA,NA,NA,NA,-4,"2007-06-08T08:11:06",-4
"GLP003","BW","107001384",317,"BW","Body Weight","291","g","291",291,"g",NA,NA,NA,NA,NA,NA,-1,"2007-06-11T07:52:25",-1
"GLP003","BW","107001384",318,"BW","Body Weight","298","g","298",298,"g",NA,NA,"Y",NA,NA,NA,1,"2007-06-12T07:20:24",1
"GLP003","BW","107001384",319,"BW","Body Weight","338","g","338",338,"g",NA,NA,NA,NA,NA,NA,8,"2007-06-19T07:39:24",8
"GLP003","BW","107001384",320,"BW","Body Weight","377","g","377",377,"g",NA,NA,NA,NA,NA,NA,15,"2007-06-26T07:33:31",15
"GLP003","BW","107001384",321,"BW","Body Weight","407","g","407",407,"g",NA,NA,NA,NA,NA,NA,22,"2007-07-03T06:23:31",22
"GLP003","BW","107001384",322,"BW","Body Weight","400","g","400",400,"g",NA,NA,NA,NA,NA,NA,29,"2007-07-10T10:52:29",29
"GLP003","BW","107001384",323,"BW","Body Weight","422","g","422",422,"g",NA,NA,NA,NA,NA,NA,36,"2007-07-17T07:37:32",36
"GLP003","BW","107001385",324,"BW","Body Weight","256","g","256",256,"g",NA,NA,NA,NA,NA,NA,-4,"2007-06-08T08:11:14",-4
"GLP003","BW","107001385",325,"BW","Body Weight","279","g","279",279,"g",NA,NA,NA,NA,NA,NA,-1,"2007-06-11T07:52:31",-1
"GLP003","BW","107001385",326,"BW","Body Weight","285.7","g","285.7",285.7,"g",NA,NA,"Y",NA,NA,NA,1,"2007-06-12T07:30:19",1
"GLP003","BW","107001385",327,"BW","Body Weight","312","g","312",312,"g",NA,NA,NA,NA,NA,NA,8,"2007-06-19T07:49:19",8
"GLP003","BW","107001385",328,"BW","Body Weight","345","g","345",345,"g",NA,NA,NA,NA,NA,NA,15,"2007-06-26T07:40:59",15
"GLP003","BW","107001385",329,"BW","Body Weight","385","g","385",385,"g",NA,NA,NA,NA,NA,NA,22,"2007-07-03T06:41:37",22
"GLP003","BW","107001386",330,"BW","Body Weight","268","g","268",268,"g",NA,NA,NA,NA,NA,NA,-4,"2007-06-08T08:11:28",-4
"GLP003","BW","107001386",331,"BW","Body Weight","283","g","283",283,"g",NA,NA,NA,NA,NA,NA,-1,"2007-06-11T07:52:39",-1
"GLP003","BW","107001386",332,"BW","Body Weight","296","g","296",296,"g",NA,NA,"Y",NA,NA,NA,1,"2007-06-12T07:27:53",1
"GLP003","BW","107001386",333,"BW","Body Weight","343","g","343",343,"g",NA,NA,NA,NA,NA,NA,8,"2007-06-19T07:46:42",8
"GLP003","BW","107001386",334,"BW","Body Weight","383","g","383",383,"g",NA,NA,NA,NA,NA,NA,15,"2007-06-26T07:39:34",15
"GLP003","BW","107001386",335,"BW","Body Weight","416","g","416",416,"g",NA,NA,NA,NA,NA,NA,22,"2007-07-03T06:39:30",22
"GLP003","BW","107001386",336,"BW","Body Weight","411","g","411",411,"g",NA,NA,NA,NA,NA,NA,29,"2007-07-10T10:56:16",29
"GLP003","BW","107001386",337,"BW","Body Weight","443","g","443",443,"g",NA,NA,NA,NA,NA,NA,36,"2007-07-17T07:38:47",36
"GLP003","BW","107001387",338,"BW","Body Weight","257","g","257",257,"g",NA,NA,NA,NA,NA,NA,-4,"2007-06-08T08:11:33",-4
"GLP003","BW","107001387",339,"BW","Body Weight","281","g","281",281,"g",NA,NA,NA,NA,NA,NA,-1,"2007-06-11T07:52:44",-1
"GLP003","BW","107001387",340,"BW","Body Weight","287","g","287",287,"g",NA,NA,"Y",NA,NA,NA,1,"2007-06-12T07:20:14",1
"GLP003","BW","107001387",341,"BW","Body Weight","320","g","320",320,"g",NA,NA,NA,NA,NA,NA,8,"2007-06-19T07:39:15",8
"GLP003","BW","107001387",342,"BW","Body Weight","347","g","347",347,"g",NA,NA,NA,NA,NA,NA,15,"2007-06-26T07:33:24",15
"GLP003","BW","107001387",343,"BW","Body Weight","374","g","374",374,"g",NA,NA,NA,NA,NA,NA,22,"2007-07-03T06:23:17",22
"GLP003","BW","107001387",344,"BW","Body Weight","370","g","370",370,"g",NA,NA,NA,NA,NA,NA,29,"2007-07-10T10:52:20",29
"GLP003","BW","107001387",345,"BW","Body Weight","408","g","408",408,"g",NA,NA,NA,NA,NA,NA,36,"2007-07-17T07:37:26",36
"GLP003","BW","107001389",346,"BW","Body Weight","254","g","254",254,"g",NA,NA,NA,NA,NA,NA,-4,"2007-06-08T08:11:50",-4
"GLP003","BW","107001389",347,"BW","Body Weight","282","g","282",282,"g",NA,NA,NA,NA,NA,NA,-1,"2007-06-11T07:52:57",-1
"GLP003","BW","107001389",348,"BW","Body Weight","289","g","289",289,"g",NA,NA,"Y",NA,NA,NA,1,"2007-06-12T07:18:45",1
"GLP003","BW","107001389",349,"BW","Body Weight","336","g","336",336,"g",NA,NA,NA,NA,NA,NA,8,"2007-06-19T07:37:56",8
"GLP003","BW","107001389",350,"BW","Body Weight","373","g","373",373,"g",NA,NA,NA,NA,NA,NA,15,"2007-06-26T07:32:21",15
"GLP003","BW","107001389",351,"BW","Body Weight","406","g","406",406,"g",NA,NA,NA,NA,NA,NA,22,"2007-07-03T06:21:45",22
"GLP003","BW","107001390",352,"BW","Body Weight","275","g","275",275,"g",NA,NA,NA,NA,NA,NA,-4,"2007-06-08T08:11:58",-4
"GLP003","BW","107001390",353,"BW","Body Weight","299","g","299",299,"g",NA,NA,NA,NA,NA,NA,-1,"2007-06-11T07:53:06",-1
"GLP003","BW","107001390",354,"BW","Body Weight","311","g","311",311,"g",NA,NA,"Y",NA,NA,NA,1,"2007-06-12T07:21:29",1
"GLP003","BW","107001390",355,"BW","Body Weight","366","g","366",366,"g",NA,NA,NA,NA,NA,NA,8,"2007-06-19T07:40:45",8
"GLP003","BW","107001390",356,"BW","Body Weight","404","g","404",404,"g",NA,NA,NA,NA,NA,NA,15,"2007-06-26T07:34:26",15
"GLP003","BW","107001390",357,"BW","Body Weight","442","g","442",442,"g",NA,NA,NA,NA,NA,NA,22,"2007-07-03T06:25:54",22
"GLP003","BW","107001391",358,"BW","Body Weight","276","g","276",276,"g",NA,NA,NA,NA,NA,NA,-4,"2007-06-08T08:12:07",-4
"GLP003","BW","107001391",359,"BW","Body Weight","301","g","301",301,"g",NA,NA,NA,NA,NA,NA,-1,"2007-06-11T07:53:12",-1
"GLP003","BW","107001391",360,"BW","Body Weight","308","g","308",308,"g",NA,NA,"Y",NA,NA,NA,1,"2007-06-12T07:35:23",1
"GLP003","BW","107001391",361,"BW","Body Weight","361","g","361",361,"g",NA,NA,NA,NA,NA,NA,8,"2007-06-19T07:54:25",8
"GLP003","BW","107001391",362,"BW","Body Weight","398","g","398",398,"g",NA,NA,NA,NA,NA,NA,15,"2007-06-26T07:45:05",15
"GLP003","BW","107001391",363,"BW","Body Weight","430","g","430",430,"g",NA,NA,NA,NA,NA,NA,22,"2007-07-03T06:48:56",22
"GLP003","BW","107001392",364,"BW","Body Weight","272","g","272",272,"g",NA,NA,NA,NA,NA,NA,-4,"2007-06-08T08:12:12",-4
"GLP003","BW","107001392",365,"BW","Body Weight","290","g","290",290,"g",NA,NA,NA,NA,NA,NA,-1,"2007-06-11T07:53:18",-1
"GLP003","BW","107001392",366,"BW","Body Weight","299","g","299",299,"g",NA,NA,"Y",NA,NA,NA,1,"2007-06-12T07:35:07",1
"GLP003","BW","107001392",367,"BW","Body Weight","334","g","334",334,"g",NA,NA,NA,NA,NA,NA,8,"2007-06-19T07:54:10",8
"GLP003","BW","107001392",368,"BW","Body Weight","363","g","363",363,"g",NA,NA,NA,NA,NA,NA,15,"2007-06-26T07:44:50",15
"GLP003","BW","107001392",369,"BW","Body Weight","393","g","393",393,"g",NA,NA,NA,NA,NA,NA,22,"2007-07-03T06:48:35",22
"GLP003","BW","107001393",370,"BW","Body Weight","279","g","279",279,"g",NA,NA,NA,NA,NA,NA,-4,"2007-06-08T08:12:20",-4
"GLP003","BW","107001393",371,"BW","Body Weight","304","g","304",304,"g",NA,NA,NA,NA,NA,NA,-1,"2007-06-11T07:53:26",-1
"GLP003","BW","107001393",372,"BW","Body Weight","307","g","307",307,"g",NA,NA,"Y",NA,NA,NA,1,"2007-06-12T07:31:26",1
"GLP003","BW","107001393",373,"BW","Body Weight","351","g","351",351,"g",NA,NA,NA,NA,NA,NA,8,"2007-06-19T07:50:28",8
"GLP003","BW","107001393",374,"BW","Body Weight","390","g","390",390,"g",NA,NA,NA,NA,NA,NA,15,"2007-06-26T07:41:59",15
"GLP003","BW","107001393",375,"BW","Body Weight","421","g","421",421,"g",NA,NA,NA,NA,NA,NA,22,"2007-07-03T06:43:50",22
"GLP003","BW","107001394",376,"BW","Body Weight","274","g","274",274,"g",NA,NA,NA,NA,NA,NA,-4,"2007-06-08T08:12:27",-4
"GLP003","BW","107001394",377,"BW","Body Weight","299","g","299",299,"g",NA,NA,NA,NA,NA,NA,-1,"2007-06-11T07:53:35",-1
"GLP003","BW","107001394",378,"BW","Body Weight","301","g","301",301,"g",NA,NA,"Y",NA,NA,NA,1,"2007-06-12T07:26:38",1
"GLP003","BW","107001394",379,"BW","Body Weight","348","g","348",348,"g",NA,NA,NA,NA,NA,NA,8,"2007-06-19T07:45:17",8
"GLP003","BW","107001394",380,"BW","Body Weight","380","g","380",380,"g",NA,NA,NA,NA,NA,NA,15,"2007-06-26T07:38:42",15
"GLP003","BW","107001394",381,"BW","Body Weight","412","g","412",412,"g",NA,NA,NA,NA,NA,NA,22,"2007-07-03T06:38:15",22
"GLP003","BW","107001395",382,"BW","Body Weight","284","g","284",284,"g",NA,NA,NA,NA,NA,NA,-4,"2007-06-08T08:12:34",-4
"GLP003","BW","107001395",383,"BW","Body Weight","308","g","308",308,"g",NA,NA,NA,NA,NA,NA,-1,"2007-06-11T07:53:40",-1
"GLP003","BW","107001395",384,"BW","Body Weight","315","g","315",315,"g",NA,NA,"Y",NA,NA,NA,1,"2007-06-12T07:29:39",1
"GLP003","BW","107001395",385,"BW","Body Weight","351","g","351",351,"g",NA,NA,NA,NA,NA,NA,8,"2007-06-19T07:48:22",8
"GLP003","BW","107001395",386,"BW","Body Weight","389","g","389",389,"g",NA,NA,NA,NA,NA,NA,15,"2007-06-26T07:40:25",15
"GLP003","BW","107001395",387,"BW","Body Weight","423","g","423",423,"g",NA,NA,NA,NA,NA,NA,22,"2007-07-03T06:40:45",22
"GLP003","BW","107001397",388,"BW","Body Weight","262","g","262",262,"g",NA,NA,NA,NA,NA,NA,-4,"2007-06-08T08:12:50",-4
"GLP003","BW","107001397",389,"BW","Body Weight","285","g","285",285,"g",NA,NA,NA,NA,NA,NA,-1,"2007-06-11T07:53:58",-1
"GLP003","BW","107001397",390,"BW","Body Weight","293","g","293",293,"g",NA,NA,"Y",NA,NA,NA,1,"2007-06-12T07:19:59",1
"GLP003","BW","107001397",391,"BW","Body Weight","338","g","338",338,"g",NA,NA,NA,NA,NA,NA,8,"2007-06-19T07:38:59",8
"GLP003","BW","107001397",392,"BW","Body Weight","369","g","369",369,"g",NA,NA,NA,NA,NA,NA,15,"2007-06-26T07:33:10",15
"GLP003","BW","107001397",393,"BW","Body Weight","393","g","393",393,"g",NA,NA,NA,NA,NA,NA,22,"2007-07-03T06:22:58",22
"GLP003","BW","107001397",394,"BW","Body Weight","396","g","396",396,"g",NA,NA,NA,NA,NA,NA,29,"2007-07-10T10:51:46",29
"GLP003","BW","107001397",395,"BW","Body Weight","414","g","414",414,"g",NA,NA,NA,NA,NA,NA,36,"2007-07-17T07:37:09",36
"GLP003","BW","107001398",396,"BW","Body Weight","258","g","258",258,"g",NA,NA,NA,NA,NA,NA,-4,"2007-06-08T08:12:58",-4
"GLP003","BW","107001398",397,"BW","Body Weight","284","g","284",284,"g",NA,NA,NA,NA,NA,NA,-1,"2007-06-11T07:54:07",-1
"GLP003","BW","107001398",398,"BW","Body Weight","289","g","289",289,"g",NA,NA,"Y",NA,NA,NA,1,"2007-06-12T07:32:29",1
"GLP003","BW","107001398",399,"BW","Body Weight","339","g","339",339,"g",NA,NA,NA,NA,NA,NA,8,"2007-06-19T07:52:02",8
"GLP003","BW","107001398",400,"BW","Body Weight","375","g","375",375,"g",NA,NA,NA,NA,NA,NA,15,"2007-06-26T07:42:58",15
"GLP003","BW","107001398",401,"BW","Body Weight","399","g","399",399,"g",NA,NA,NA,NA,NA,NA,22,"2007-07-03T06:45:29",22
"GLP003","BW","107001398",402,"BW","Body Weight","393","g","393",393,"g",NA,NA,NA,NA,NA,NA,29,"2007-07-10T10:58:27",29
"GLP003","BW","107001398",403,"BW","Body Weight","422","g","422",422,"g",NA,NA,NA,NA,NA,NA,36,"2007-07-17T07:40:14",36
"GLP003","BW","107001399",404,"BW","Body Weight","274","g","274",274,"g",NA,NA,NA,NA,NA,NA,-4,"2007-06-08T08:13:08",-4
"GLP003","BW","107001399",405,"BW","Body Weight","299","g","299",299,"g",NA,NA,NA,NA,NA,NA,-1,"2007-06-11T07:54:12",-1
"GLP003","BW","107001399",406,"BW","Body Weight","308","g","308",308,"g",NA,NA,"Y",NA,NA,NA,1,"2007-06-12T07:32:49",1
"GLP003","BW","107001399",407,"BW","Body Weight","352","g","352",352,"g",NA,NA,NA,NA,NA,NA,8,"2007-06-19T07:52:24",8
"GLP003","BW","107001399",408,"BW","Body Weight","395","g","395",395,"g",NA,NA,NA,NA,NA,NA,15,"2007-06-26T07:43:11",15
"GLP003","BW","107001399",409,"BW","Body Weight","415","g","415",415,"g",NA,NA,NA,NA,NA,NA,22,"2007-07-03T06:45:49",22
"GLP003","BW","107001399",410,"BW","Body Weight","429","g","429",429,"g",NA,NA,NA,NA,NA,NA,29,"2007-07-10T10:58:57",29
"GLP003","BW","107001399",411,"BW","Body Weight","450","g","450",450,"g",NA,NA,NA,NA,NA,NA,36,"2007-07-17T07:40:36",36
"GLP003","BW","107001400",412,"BW","Body Weight","278","g","278",278,"g",NA,NA,NA,NA,NA,NA,-4,"2007-06-08T08:13:16",-4
"GLP003","BW","107001400",413,"BW","Body Weight","312","g","312",312,"g",NA,NA,NA,NA,NA,NA,-1,"2007-06-11T07:54:20",-1
"GLP003","BW","107001400",414,"BW","Body Weight","315","g","315",315,"g",NA,NA,"Y",NA,NA,NA,1,"2007-06-12T07:31:05",1
"GLP003","BW","107001400",415,"BW","Body Weight","375","g","375",375,"g",NA,NA,NA,NA,NA,NA,8,"2007-06-19T07:50:12",8
"GLP003","BW","107001400",416,"BW","Body Weight","423","g","423",423,"g",NA,NA,NA,NA,NA,NA,15,"2007-06-26T07:41:44",15
"GLP003","BW","107001400",417,"BW","Body Weight","455","g","455",455,"g",NA,NA,NA,NA,NA,NA,22,"2007-07-03T06:43:07",22
"GLP003","BW","107001401",418,"BW","Body Weight","276","g","276",276,"g",NA,NA,NA,NA,NA,NA,-4,"2007-06-08T08:13:25",-4
"GLP003","BW","107001401",419,"BW","Body Weight","307","g","307",307,"g",NA,NA,NA,NA,NA,NA,-1,"2007-06-11T07:54:27",-1
"GLP003","BW","107001401",420,"BW","Body Weight","317","g","317",317,"g",NA,NA,"Y",NA,NA,NA,1,"2007-06-12T07:19:11",1
"GLP003","BW","107001401",421,"BW","Body Weight","362","g","362",362,"g",NA,NA,NA,NA,NA,NA,8,"2007-06-19T07:38:27",8
"GLP003","BW","107001401",422,"BW","Body Weight","393","g","393",393,"g",NA,NA,NA,NA,NA,NA,15,"2007-06-26T07:32:44",15
"GLP003","BW","107001401",423,"BW","Body Weight","424","g","424",424,"g",NA,NA,NA,NA,NA,NA,22,"2007-07-03T06:22:16",22
"GLP003","BW","107001401",424,"BW","Body Weight","445","g","445",445,"g",NA,NA,NA,NA,NA,NA,29,"2007-07-10T10:50:30",29
"GLP003","BW","107001402",425,"BW","Body Weight","272","g","272",272,"g",NA,NA,NA,NA,NA,NA,-4,"2007-06-08T08:13:32",-4
"GLP003","BW","107001402",426,"BW","Body Weight","291","g","291",291,"g",NA,NA,NA,NA,NA,NA,-1,"2007-06-11T07:54:34",-1
"GLP003","BW","107001402",427,"BW","Body Weight","302","g","302",302,"g",NA,NA,"Y",NA,NA,NA,1,"2007-06-12T07:34:17",1
"GLP003","BW","107001402",428,"BW","Body Weight","336","g","336",336,"g",NA,NA,NA,NA,NA,NA,8,"2007-06-19T07:53:47",8
"GLP003","BW","107001402",429,"BW","Body Weight","364","g","364",364,"g",NA,NA,NA,NA,NA,NA,15,"2007-06-26T07:44:17",15
"GLP003","BW","107001402",430,"BW","Body Weight","382","g","382",382,"g",NA,NA,NA,NA,NA,NA,22,"2007-07-03T06:47:58",22
"GLP003","BW","107001404",431,"BW","Body Weight","276","g","276",276,"g",NA,NA,NA,NA,NA,NA,-4,"2007-06-08T08:13:50",-4
"GLP003","BW","107001404",432,"BW","Body Weight","303","g","303",303,"g",NA,NA,NA,NA,NA,NA,-1,"2007-06-11T07:54:55",-1
"GLP003","BW","107001404",433,"BW","Body Weight","314","g","314",314,"g",NA,NA,"Y",NA,NA,NA,1,"2007-06-12T07:32:05",1
"GLP003","BW","107001404",434,"BW","Body Weight","362","g","362",362,"g",NA,NA,NA,NA,NA,NA,8,"2007-06-19T07:51:19",8
"GLP003","BW","107001404",435,"BW","Body Weight","403","g","403",403,"g",NA,NA,NA,NA,NA,NA,15,"2007-06-26T07:42:36",15
"GLP003","BW","107001404",436,"BW","Body Weight","438","g","438",438,"g",NA,NA,NA,NA,NA,NA,22,"2007-07-03T06:44:47",22
"GLP003","BW","107001404",437,"BW","Body Weight","456","g","456",456,"g",NA,NA,NA,NA,NA,NA,29,"2007-07-10T10:58:00",29
"GLP003","BW","107001405",438,"BW","Body Weight","259","g","259",259,"g",NA,NA,NA,NA,NA,NA,-4,"2007-06-08T08:13:56",-4
"GLP003","BW","107001405",439,"BW","Body Weight","285","g","285",285,"g",NA,NA,NA,NA,NA,NA,-1,"2007-06-11T07:54:59",-1
"GLP003","BW","107001405",440,"BW","Body Weight","290","g","290",290,"g",NA,NA,"Y",NA,NA,NA,1,"2007-06-12T07:37:16",1
"GLP003","BW","107001405",441,"BW","Body Weight","326","g","326",326,"g",NA,NA,NA,NA,NA,NA,8,"2007-06-19T07:56:15",8
"GLP003","BW","107001405",442,"BW","Body Weight","356","g","356",356,"g",NA,NA,NA,NA,NA,NA,15,"2007-06-26T07:46:42",15
"GLP003","BW","107001405",443,"BW","Body Weight","381","g","381",381,"g",NA,NA,NA,NA,NA,NA,22,"2007-07-03T06:51:07",22
"GLP003","BW","107001406",444,"BW","Body Weight","261","g","261",261,"g",NA,NA,NA,NA,NA,NA,-4,"2007-06-08T08:14:02",-4
"GLP003","BW","107001406",445,"BW","Body Weight","284","g","284",284,"g",NA,NA,NA,NA,NA,NA,-1,"2007-06-11T07:55:07",-1
"GLP003","BW","107001406",446,"BW","Body Weight","289","g","289",289,"g",NA,NA,"Y",NA,NA,NA,1,"2007-06-12T07:33:19",1
"GLP003","BW","107001406",447,"BW","Body Weight","330","g","330",330,"g",NA,NA,NA,NA,NA,NA,8,"2007-06-19T07:52:41",8
"GLP003","BW","107001406",448,"BW","Body Weight","370","g","370",370,"g",NA,NA,NA,NA,NA,NA,15,"2007-06-26T07:43:26",15
"GLP003","BW","107001406",449,"BW","Body Weight","407","g","407",407,"g",NA,NA,NA,NA,NA,NA,22,"2007-07-03T06:46:09",22
"GLP003","BW","107001407",450,"BW","Body Weight","272","g","272",272,"g",NA,NA,NA,NA,NA,NA,-4,"2007-06-08T08:14:09",-4
"GLP003","BW","107001407",451,"BW","Body Weight","298","g","298",298,"g",NA,NA,NA,NA,NA,NA,-1,"2007-06-11T07:55:15",-1
"GLP003","BW","107001407",452,"BW","Body Weight","303","g","303",303,"g",NA,NA,"Y",NA,NA,NA,1,"2007-06-12T07:29:10",1
"GLP003","BW","107001407",453,"BW","Body Weight","344","g","344",344,"g",NA,NA,NA,NA,NA,NA,8,"2007-06-19T07:47:58",8
"GLP003","BW","107001407",454,"BW","Body Weight","392","g","392",392,"g",NA,NA,NA,NA,NA,NA,15,"2007-06-26T07:40:10",15
"GLP003","BW","107001407",455,"BW","Body Weight","438","g","438",438,"g",NA,NA,NA,NA,NA,NA,22,"2007-07-03T06:40:19",22
"GLP003","BW","107001409",456,"BW","Body Weight","272","g","272",272,"g",NA,NA,NA,NA,NA,NA,-4,"2007-06-08T08:15:18",-4
"GLP003","BW","107001409",457,"BW","Body Weight","302","g","302",302,"g",NA,NA,NA,NA,NA,NA,-1,"2007-06-11T07:55:47",-1
"GLP003","BW","107001409",458,"BW","Body Weight","310","g","310",310,"g",NA,NA,"Y",NA,NA,NA,1,"2007-06-12T07:33:46",1
"GLP003","BW","107001409",459,"BW","Body Weight","347","g","347",347,"g",NA,NA,NA,NA,NA,NA,8,"2007-06-19T07:53:01",8
"GLP003","BW","107001409",460,"BW","Body Weight","387","g","387",387,"g",NA,NA,NA,NA,NA,NA,15,"2007-06-26T07:43:49",15
"GLP003","BW","107001409",461,"BW","Body Weight","422","g","422",422,"g",NA,NA,NA,NA,NA,NA,22,"2007-07-03T06:46:48",22
"GLP003","BW","107001411",462,"BW","Body Weight","284","g","284",284,"g",NA,NA,NA,NA,NA,NA,-4,"2007-06-08T08:15:41",-4
"GLP003","BW","107001411",463,"BW","Body Weight","312","g","312",312,"g",NA,NA,NA,NA,NA,NA,-1,"2007-06-11T07:56:10",-1
"GLP003","BW","107001411",464,"BW","Body Weight","317","g","317",317,"g",NA,NA,"Y",NA,NA,NA,1,"2007-06-12T07:26:55",1
"GLP003","BW","107001411",465,"BW","Body Weight","359","g","359",359,"g",NA,NA,NA,NA,NA,NA,8,"2007-06-19T07:45:33",8
"GLP003","BW","107001411",466,"BW","Body Weight","393","g","393",393,"g",NA,NA,NA,NA,NA,NA,15,"2007-06-26T07:38:58",15
"GLP003","BW","107001411",467,"BW","Body Weight","426","g","426",426,"g",NA,NA,NA,NA,NA,NA,22,"2007-07-03T06:38:32",22
"GLP003","BW","107001411",468,"BW","Body Weight","438","g","438",438,"g",NA,NA,NA,NA,NA,NA,29,"2007-07-10T10:55:30",29
"GLP003","BW","107001413",469,"BW","Body Weight","279","g","279",279,"g",NA,NA,NA,NA,NA,NA,-4,"2007-06-08T08:15:55",-4
"GLP003","BW","107001413",470,"BW","Body Weight","304","g","304",304,"g",NA,NA,NA,NA,NA,NA,-1,"2007-06-11T07:56:29",-1
"GLP003","BW","107001413",471,"BW","Body Weight","311","g","311",311,"g",NA,NA,"Y",NA,NA,NA,1,"2007-06-12T07:38:08",1
"GLP003","BW","107001413",472,"BW","Body Weight","341","g","341",341,"g",NA,NA,NA,NA,NA,NA,8,"2007-06-19T07:56:59",8
"GLP003","BW","107001413",473,"BW","Body Weight","376","g","376",376,"g",NA,NA,NA,NA,NA,NA,15,"2007-06-26T07:47:18",15
"GLP003","BW","107001413",474,"BW","Body Weight","406","g","406",406,"g",NA,NA,NA,NA,NA,NA,22,"2007-07-03T06:52:17",22
"GLP003","BW","107001414",475,"BW","Body Weight","251","g","251",251,"g",NA,NA,NA,NA,NA,NA,-4,"2007-06-08T08:37:17",-4
"GLP003","BW","107001414",476,"BW","Body Weight","280","g","280",280,"g",NA,NA,NA,NA,NA,NA,-1,"2007-06-11T07:56:41",-1
"GLP003","BW","107001414",477,"BW","Body Weight","286","g","286",286,"g",NA,NA,"Y",NA,NA,NA,1,"2007-06-12T07:30:55",1
"GLP003","BW","107001414",478,"BW","Body Weight","330","g","330",330,"g",NA,NA,NA,NA,NA,NA,8,"2007-06-19T07:50:04",8
"GLP003","BW","107001414",479,"BW","Body Weight","362","g","362",362,"g",NA,NA,NA,NA,NA,NA,15,"2007-06-26T07:41:36",15
"GLP003","BW","107001414",480,"BW","Body Weight","345","g","345",345,"g",NA,NA,NA,NA,NA,NA,22,"2007-07-03T06:42:56",22
"GLP003","BW","107001415",481,"BW","Body Weight","280","g","280",280,"g",NA,NA,NA,NA,NA,NA,-4,"2007-06-08T08:37:23",-4
"GLP003","BW","107001415",482,"BW","Body Weight","298","g","298",298,"g",NA,NA,NA,NA,NA,NA,-1,"2007-06-11T07:56:47",-1
"GLP003","BW","107001415",483,"BW","Body Weight","301","g","301",301,"g",NA,NA,"Y",NA,NA,NA,1,"2007-06-12T07:22:54",1
"GLP003","BW","107001415",484,"BW","Body Weight","333","g","333",333,"g",NA,NA,NA,NA,NA,NA,8,"2007-06-19T07:42:15",8
"GLP003","BW","107001415",485,"BW","Body Weight","361","g","361",361,"g",NA,NA,NA,NA,NA,NA,15,"2007-06-26T07:35:49",15
"GLP003","BW","107001415",486,"BW","Body Weight","386","g","386",386,"g",NA,NA,NA,NA,NA,NA,22,"2007-07-03T06:34:31",22
"GLP003","BW","107001415",487,"BW","Body Weight","395","g","395",395,"g",NA,NA,NA,NA,NA,NA,29,"2007-07-10T10:53:36",29
"GLP003","BW","107001416",488,"BW","Body Weight","268","g","268",268,"g",NA,NA,NA,NA,NA,NA,-4,"2007-06-08T08:37:31",-4
"GLP003","BW","107001416",489,"BW","Body Weight","293","g","293",293,"g",NA,NA,NA,NA,NA,NA,-1,"2007-06-11T07:56:54",-1
"GLP003","BW","107001416",490,"BW","Body Weight","303","g","303",303,"g",NA,NA,"Y",NA,NA,NA,1,"2007-06-12T07:27:46",1
"GLP003","BW","107001416",491,"BW","Body Weight","352","g","352",352,"g",NA,NA,NA,NA,NA,NA,8,"2007-06-19T07:46:32",8
"GLP003","BW","107001416",492,"BW","Body Weight","387","g","387",387,"g",NA,NA,NA,NA,NA,NA,15,"2007-06-26T07:39:28",15
"GLP003","BW","107001416",493,"BW","Body Weight","423","g","423",423,"g",NA,NA,NA,NA,NA,NA,22,"2007-07-03T06:39:23",22
"GLP003","BW","107001416",494,"BW","Body Weight","442","g","442",442,"g",NA,NA,NA,NA,NA,NA,29,"2007-07-10T10:56:07",29
"GLP003","BW","107001417",495,"BW","Body Weight","254","g","254",254,"g",NA,NA,NA,NA,NA,NA,-4,"2007-06-08T08:37:38",-4
"GLP003","BW","107001417",496,"BW","Body Weight","281","g","281",281,"g",NA,NA,NA,NA,NA,NA,-1,"2007-06-11T07:57:03",-1
"GLP003","BW","107001417",497,"BW","Body Weight","290","g","290",290,"g",NA,NA,"Y",NA,NA,NA,1,"2007-06-12T07:38:29",1
"GLP003","BW","107001417",498,"BW","Body Weight","331","g","331",331,"g",NA,NA,NA,NA,NA,NA,8,"2007-06-19T07:57:22",8
"GLP003","BW","107001417",499,"BW","Body Weight","375","g","375",375,"g",NA,NA,NA,NA,NA,NA,15,"2007-06-26T07:47:38",15
"GLP003","BW","107001417",500,"BW","Body Weight","409","g","409",409,"g",NA,NA,NA,NA,NA,NA,22,"2007-07-03T06:52:45",22
"GLP003","BW","107001418",501,"BW","Body Weight","261","g","261",261,"g",NA,NA,NA,NA,NA,NA,-4,"2007-06-08T08:37:49",-4
"GLP003","BW","107001418",502,"BW","Body Weight","294","g","294",294,"g",NA,NA,NA,NA,NA,NA,-1,"2007-06-11T07:57:11",-1
"GLP003","BW","107001418",503,"BW","Body Weight","303","g","303",303,"g",NA,NA,"Y",NA,NA,NA,1,"2007-06-12T07:25:00",1
"GLP003","BW","107001418",504,"BW","Body Weight","357","g","357",357,"g",NA,NA,NA,NA,NA,NA,8,"2007-06-19T07:43:58",8
"GLP003","BW","107001418",505,"BW","Body Weight","396","g","396",396,"g",NA,NA,NA,NA,NA,NA,15,"2007-06-26T07:37:21",15
"GLP003","BW","107001418",506,"BW","Body Weight","429","g","429",429,"g",NA,NA,NA,NA,NA,NA,22,"2007-07-03T06:36:33",22
"GLP003","BW","107001419",507,"BW","Body Weight","254","g","254",254,"g",NA,NA,NA,NA,NA,NA,-4,"2007-06-08T08:37:56",-4
"GLP003","BW","107001419",508,"BW","Body Weight","283","g","283",283,"g",NA,NA,NA,NA,NA,NA,-1,"2007-06-11T07:57:21",-1
"GLP003","BW","107001419",509,"BW","Body Weight","318","g","318",318,"g",NA,NA,"Y",NA,NA,NA,1,"2007-06-12T07:22:38",1
"GLP003","BW","107001419",510,"BW","Body Weight","345","g","345",345,"g",NA,NA,NA,NA,NA,NA,8,"2007-06-19T07:41:59",8
"GLP003","BW","107001419",511,"BW","Body Weight","386","g","386",386,"g",NA,NA,NA,NA,NA,NA,15,"2007-06-26T07:35:36",15
"GLP003","BW","107001419",512,"BW","Body Weight","421","g","421",421,"g",NA,NA,NA,NA,NA,NA,22,"2007-07-03T06:34:01",22
"GLP003","BW","107001420",513,"BW","Body Weight","266","g","266",266,"g",NA,NA,NA,NA,NA,NA,-4,"2007-06-08T08:38:07",-4
"GLP003","BW","107001420",514,"BW","Body Weight","296","g","296",296,"g",NA,NA,NA,NA,NA,NA,-1,"2007-06-11T07:57:29",-1
"GLP003","BW","107001420",515,"BW","Body Weight","305","g","305",305,"g",NA,NA,"Y",NA,NA,NA,1,"2007-06-12T07:36:16",1
"GLP003","BW","107001420",516,"BW","Body Weight","345","g","345",345,"g",NA,NA,NA,NA,NA,NA,8,"2007-06-19T07:55:08",8
"GLP003","BW","107001420",517,"BW","Body Weight","384","g","384",384,"g",NA,NA,NA,NA,NA,NA,15,"2007-06-26T07:45:42",15
"GLP003","BW","107001420",518,"BW","Body Weight","409","g","409",409,"g",NA,NA,NA,NA,NA,NA,22,"2007-07-03T06:49:52",22
"GLP003","BW","107001420",519,"BW","Body Weight","421","g","421",421,"g",NA,NA,NA,NA,NA,NA,29,"2007-07-10T10:59:40",29
"GLP003","BW","107001423",520,"BW","Body Weight","278","g","278",278,"g",NA,NA,NA,NA,NA,NA,-4,"2007-06-08T08:38:37",-4
"GLP003","BW","107001423",521,"BW","Body Weight","301","g","301",301,"g",NA,NA,NA,NA,NA,NA,-1,"2007-06-11T07:57:55",-1
"GLP003","BW","107001423",522,"BW","Body Weight","303","g","303",303,"g",NA,NA,"Y",NA,NA,NA,1,"2007-06-12T07:20:32",1
"GLP003","BW","107001423",523,"BW","Body Weight","334","g","334",334,"g",NA,NA,NA,NA,NA,NA,8,"2007-06-19T07:39:36",8
"GLP003","BW","107001423",524,"BW","Body Weight","372","g","372",372,"g",NA,NA,NA,NA,NA,NA,15,"2007-06-26T07:33:37",15
"GLP003","BW","107001423",525,"BW","Body Weight","408","g","408",408,"g",NA,NA,NA,NA,NA,NA,22,"2007-07-03T06:23:51",22
"GLP003","BW","107001423",526,"BW","Body Weight","393","g","393",393,"g",NA,NA,NA,NA,NA,NA,29,"2007-07-10T10:52:44",29
"GLP003","BW","107001423",527,"BW","Body Weight","410","g","410",410,"g",NA,NA,NA,NA,NA,NA,36,"2007-07-17T07:37:38",36
"GLP003","BW","107001424",528,"BW","Body Weight","270","g","270",270,"g",NA,NA,NA,NA,NA,NA,-4,"2007-06-08T08:38:44",-4
"GLP003","BW","107001424",529,"BW","Body Weight","296","g","296",296,"g",NA,NA,NA,NA,NA,NA,-1,"2007-06-11T07:58:04",-1
"GLP003","BW","107001424",530,"BW","Body Weight","303","g","303",303,"g",NA,NA,"Y",NA,NA,NA,1,"2007-06-12T07:31:48",1
"GLP003","BW","107001424",531,"BW","Body Weight","345","g","345",345,"g",NA,NA,NA,NA,NA,NA,8,"2007-06-19T07:50:54",8
"GLP003","BW","107001424",532,"BW","Body Weight","377","g","377",377,"g",NA,NA,NA,NA,NA,NA,15,"2007-06-26T07:42:22",15
"GLP003","BW","107001424",533,"BW","Body Weight","405","g","405",405,"g",NA,NA,NA,NA,NA,NA,22,"2007-07-03T06:44:25",22
"GLP003","BW","107001424",534,"BW","Body Weight","416","g","416",416,"g",NA,NA,NA,NA,NA,NA,29,"2007-07-10T10:57:39",29
"GLP003","BW","107001425",535,"BW","Body Weight","285","g","285",285,"g",NA,NA,NA,NA,NA,NA,-4,"2007-06-08T08:38:50",-4
"GLP003","BW","107001425",536,"BW","Body Weight","303","g","303",303,"g",NA,NA,NA,NA,NA,NA,-1,"2007-06-11T07:58:13",-1
"GLP003","BW","107001425",537,"BW","Body Weight","307","g","307",307,"g",NA,NA,"Y",NA,NA,NA,1,"2007-06-12T07:22:19",1
"GLP003","BW","107001425",538,"BW","Body Weight","340","g","340",340,"g",NA,NA,NA,NA,NA,NA,8,"2007-06-19T07:41:43",8
"GLP003","BW","107001425",539,"BW","Body Weight","353","g","353",353,"g",NA,NA,NA,NA,NA,NA,15,"2007-06-26T07:35:20",15
"GLP003","BW","107001425",540,"BW","Body Weight","371","g","371",371,"g",NA,NA,NA,NA,NA,NA,22,"2007-07-03T06:33:39",22
"GLP003","BW","107001426",541,"BW","Body Weight","279","g","279",279,"g",NA,NA,NA,NA,NA,NA,-4,"2007-06-08T08:38:56",-4
"GLP003","BW","107001426",542,"BW","Body Weight","285","g","285",285,"g",NA,NA,NA,NA,NA,NA,-1,"2007-06-11T07:58:20",-1
"GLP003","BW","107001426",543,"BW","Body Weight","292","g","292",292,"g",NA,NA,"Y",NA,NA,NA,1,"2007-06-12T07:31:41",1
"GLP003","BW","107001426",544,"BW","Body Weight","365","g","365",365,"g",NA,NA,NA,NA,NA,NA,8,"2007-06-19T07:50:43",8
"GLP003","BW","107001426",545,"BW","Body Weight","421","g","421",421,"g",NA,NA,NA,NA,NA,NA,15,"2007-06-26T07:42:14",15
"GLP003","BW","107001426",546,"BW","Body Weight","464","g","464",464,"g",NA,NA,NA,NA,NA,NA,22,"2007-07-03T06:44:12",22
"GLP003","BW","107001426",547,"BW","Body Weight","485","g","485",485,"g",NA,NA,NA,NA,NA,NA,29,"2007-07-10T10:57:30",29
"GLP003","BW","107001427",548,"BW","Body Weight","275","g","275",275,"g",NA,NA,NA,NA,NA,NA,-4,"2007-06-08T08:39:05",-4
"GLP003","BW","107001427",549,"BW","Body Weight","297","g","297",297,"g",NA,NA,NA,NA,NA,NA,-1,"2007-06-11T07:58:28",-1
"GLP003","BW","107001427",550,"BW","Body Weight","305","g","305",305,"g",NA,NA,"Y",NA,NA,NA,1,"2007-06-12T07:18:12",1
"GLP003","BW","107001427",551,"BW","Body Weight","354","g","354",354,"g",NA,NA,NA,NA,NA,NA,8,"2007-06-19T07:37:42",8
"GLP003","BW","107001427",552,"BW","Body Weight","386","g","386",386,"g",NA,NA,NA,NA,NA,NA,15,"2007-06-26T07:32:07",15
"GLP003","BW","107001427",553,"BW","Body Weight","416","g","416",416,"g",NA,NA,NA,NA,NA,NA,22,"2007-07-03T06:21:21",22
"GLP003","BW","107001428",554,"BW","Body Weight","275","g","275",275,"g",NA,NA,NA,NA,NA,NA,-4,"2007-06-08T08:39:13",-4
"GLP003","BW","107001428",555,"BW","Body Weight","308","g","308",308,"g",NA,NA,NA,NA,NA,NA,-1,"2007-06-11T07:58:45",-1
"GLP003","BW","107001428",556,"BW","Body Weight","313","g","313",313,"g",NA,NA,"Y",NA,NA,NA,1,"2007-06-12T07:19:28",1
"GLP003","BW","107001428",557,"BW","Body Weight","362","g","362",362,"g",NA,NA,NA,NA,NA,NA,8,"2007-06-19T07:38:43",8
"GLP003","BW","107001428",558,"BW","Body Weight","408","g","408",408,"g",NA,NA,NA,NA,NA,NA,15,"2007-06-26T07:32:58",15
"GLP003","BW","107001428",559,"BW","Body Weight","450","g","450",450,"g",NA,NA,NA,NA,NA,NA,22,"2007-07-03T06:22:39",22
"GLP003","BW","107001428",560,"BW","Body Weight","470","g","470",470,"g",NA,NA,NA,NA,NA,NA,29,"2007-07-10T10:50:53",29
"GLP003","BW","107001429",561,"BW","Body Weight","288","g","288",288,"g",NA,NA,NA,NA,NA,NA,-4,"2007-06-08T08:39:18",-4
"GLP003","BW","107001429",562,"BW","Body Weight","309","g","309",309,"g",NA,NA,NA,NA,NA,NA,-1,"2007-06-11T07:58:50",-1
"GLP003","BW","107001429",563,"BW","Body Weight","313","g","313",313,"g",NA,NA,"Y",NA,NA,NA,1,"2007-06-12T07:33:36",1
"GLP003","BW","107001429",564,"BW","Body Weight","351","g","351",351,"g",NA,NA,NA,NA,NA,NA,8,"2007-06-19T07:52:54",8
"GLP003","BW","107001429",565,"BW","Body Weight","379","g","379",379,"g",NA,NA,NA,NA,NA,NA,15,"2007-06-26T07:43:41",15
"GLP003","BW","107001429",566,"BW","Body Weight","400","g","400",400,"g",NA,NA,NA,NA,NA,NA,22,"2007-07-03T06:46:26",22
"GLP003","BW","107001430",567,"BW","Body Weight","279","g","279",279,"g",NA,NA,NA,NA,NA,NA,-4,"2007-06-08T08:39:24",-4
"GLP003","BW","107001430",568,"BW","Body Weight","305","g","305",305,"g",NA,NA,NA,NA,NA,NA,-1,"2007-06-11T07:58:57",-1
"GLP003","BW","107001430",569,"BW","Body Weight","309","g","309",309,"g",NA,NA,"Y",NA,NA,NA,1,"2007-06-12T07:33:54",1
"GLP003","BW","107001430",570,"BW","Body Weight","353","g","353",353,"g",NA,NA,NA,NA,NA,NA,8,"2007-06-19T07:53:10",8
"GLP003","BW","107001430",571,"BW","Body Weight","393","g","393",393,"g",NA,NA,NA,NA,NA,NA,15,"2007-06-26T07:43:55",15
"GLP003","BW","107001430",572,"BW","Body Weight","417","g","417",417,"g",NA,NA,NA,NA,NA,NA,22,"2007-07-03T06:47:10",22
"GLP003","BW","107001431",573,"BW","Body Weight","270","g","270",270,"g",NA,NA,NA,NA,NA,NA,-4,"2007-06-08T08:39:29",-4
"GLP003","BW","107001431",574,"BW","Body Weight","296","g","296",296,"g",NA,NA,NA,NA,NA,NA,-1,"2007-06-11T07:59:08",-1
"GLP003","BW","107001431",575,"BW","Body Weight","295","g","295",295,"g",NA,NA,"Y",NA,NA,NA,1,"2007-06-12T07:26:32",1
"GLP003","BW","107001431",576,"BW","Body Weight","324","g","324",324,"g",NA,NA,NA,NA,NA,NA,8,"2007-06-19T07:45:11",8
"GLP003","BW","107001431",577,"BW","Body Weight","342","g","342",342,"g",NA,NA,NA,NA,NA,NA,15,"2007-06-26T07:38:36",15
"GLP003","BW","107001431",578,"BW","Body Weight","367","g","367",367,"g",NA,NA,NA,NA,NA,NA,22,"2007-07-03T06:38:06",22
"GLP003","BW","107001432",579,"BW","Body Weight","271","g","271",271,"g",NA,NA,NA,NA,NA,NA,-4,"2007-06-08T08:39:36",-4
"GLP003","BW","107001432",580,"BW","Body Weight","297","g","297",297,"g",NA,NA,NA,NA,NA,NA,-1,"2007-06-11T07:59:16",-1
"GLP003","BW","107001432",581,"BW","Body Weight","305","g","305",305,"g",NA,NA,"Y",NA,NA,NA,1,"2007-06-12T07:28:12",1
"GLP003","BW","107001432",582,"BW","Body Weight","351","g","351",351,"g",NA,NA,NA,NA,NA,NA,8,"2007-06-19T07:47:11",8
"GLP003","BW","107001432",583,"BW","Body Weight","388","g","388",388,"g",NA,NA,NA,NA,NA,NA,15,"2007-06-26T07:39:48",15
"GLP003","BW","107001432",584,"BW","Body Weight","412","g","412",412,"g",NA,NA,NA,NA,NA,NA,22,"2007-07-03T06:39:48",22
"GLP003","BW","107001432",585,"BW","Body Weight","406","g","406",406,"g",NA,NA,NA,NA,NA,NA,29,"2007-07-10T10:56:36",29
"GLP003","BW","107001432",586,"BW","Body Weight","438","g","438",438,"g",NA,NA,NA,NA,NA,NA,36,"2007-07-17T07:39:03",36
"GLP003","BW","107001433",587,"BW","Body Weight","278","g","278",278,"g",NA,NA,NA,NA,NA,NA,-4,"2007-06-08T08:39:44",-4
"GLP003","BW","107001433",588,"BW","Body Weight","298","g","298",298,"g",NA,NA,NA,NA,NA,NA,-1,"2007-06-11T07:59:25",-1
"GLP003","BW","107001433",589,"BW","Body Weight","298","g","298",298,"g",NA,NA,"Y",NA,NA,NA,1,"2007-06-12T07:27:08",1
"GLP003","BW","107001433",590,"BW","Body Weight","311","g","311",311,"g",NA,NA,NA,NA,NA,NA,8,"2007-06-19T07:45:45",8
"GLP003","BW","107001433",591,"BW","Body Weight","326","g","326",326,"g",NA,NA,NA,NA,NA,NA,15,"2007-06-26T07:39:06",15
"GLP003","BW","107001433",592,"BW","Body Weight","341","g","341",341,"g",NA,NA,NA,NA,NA,NA,22,"2007-07-03T06:38:46",22
"GLP003","BW","107001433",593,"BW","Body Weight","342","g","342",342,"g",NA,NA,NA,NA,NA,NA,29,"2007-07-10T10:55:39",29
"GLP003","BW","107001435",594,"BW","Body Weight","260","g","260",260,"g",NA,NA,NA,NA,NA,NA,-4,"2007-06-08T08:39:58",-4
"GLP003","BW","107001435",595,"BW","Body Weight","291","g","291",291,"g",NA,NA,NA,NA,NA,NA,-1,"2007-06-11T07:59:40",-1
"GLP003","BW","107001435",596,"BW","Body Weight","291","g","291",291,"g",NA,NA,"Y",NA,NA,NA,1,"2007-06-12T07:36:58",1
"GLP003","BW","107001435",597,"BW","Body Weight","330","g","330",330,"g",NA,NA,NA,NA,NA,NA,8,"2007-06-19T07:55:59",8
"GLP003","BW","107001435",598,"BW","Body Weight","364","g","364",364,"g",NA,NA,NA,NA,NA,NA,15,"2007-06-26T07:46:19",15
"GLP003","BW","107001435",599,"BW","Body Weight","391","g","391",391,"g",NA,NA,NA,NA,NA,NA,22,"2007-07-03T06:50:45",22
"GLP003","BW","107001435",600,"BW","Body Weight","420","g","420",420,"g",NA,NA,NA,NA,NA,NA,29,"2007-07-10T11:00:50",29
"GLP003","BW","107001435",601,"BW","Body Weight","437","g","437",437,"g",NA,NA,NA,NA,NA,NA,36,"2007-07-17T07:41:30",36
"GLP003","BW","107001436",602,"BW","Body Weight","251","g","251",251,"g",NA,NA,NA,NA,NA,NA,-4,"2007-06-08T08:40:04",-4
"GLP003","BW","107001436",603,"BW","Body Weight","281","g","281",281,"g",NA,NA,NA,NA,NA,NA,-1,"2007-06-11T07:59:49",-1
"GLP003","BW","107001436",604,"BW","Body Weight","273","g","273",273,"g",NA,NA,"Y",NA,NA,NA,1,"2007-06-12T07:29:22",1
"GLP003","BW","107001436",605,"BW","Body Weight","334","g","334",334,"g",NA,NA,NA,NA,NA,NA,8,"2007-06-19T07:48:15",8
"GLP003","BW","107001436",606,"BW","Body Weight","374","g","374",374,"g",NA,NA,NA,NA,NA,NA,15,"2007-06-26T07:40:18",15
"GLP003","BW","107001436",607,"BW","Body Weight","420","g","420",420,"g",NA,NA,NA,NA,NA,NA,22,"2007-07-03T06:40:29",22
"GLP003","BW","107001437",608,"BW","Body Weight","255","g","255",255,"g",NA,NA,NA,NA,NA,NA,-4,"2007-06-08T08:40:12",-4
"GLP003","BW","107001437",609,"BW","Body Weight","286","g","286",286,"g",NA,NA,NA,NA,NA,NA,-1,"2007-06-11T07:59:58",-1
"GLP003","BW","107001437",610,"BW","Body Weight","287","g","287",287,"g",NA,NA,"Y",NA,NA,NA,1,"2007-06-12T07:22:48",1
"GLP003","BW","107001437",611,"BW","Body Weight","339","g","339",339,"g",NA,NA,NA,NA,NA,NA,8,"2007-06-19T07:42:10",8
"GLP003","BW","107001437",612,"BW","Body Weight","374","g","374",374,"g",NA,NA,NA,NA,NA,NA,15,"2007-06-26T07:35:43",15
"GLP003","BW","107001437",613,"BW","Body Weight","398","g","398",398,"g",NA,NA,NA,NA,NA,NA,22,"2007-07-03T06:34:21",22
"GLP003","BW","107001438",614,"BW","Body Weight","266","g","266",266,"g",NA,NA,NA,NA,NA,NA,-4,"2007-06-08T08:40:19",-4
"GLP003","BW","107001438",615,"BW","Body Weight","282","g","282",282,"g",NA,NA,NA,NA,NA,NA,-1,"2007-06-11T08:00:07",-1
"GLP003","BW","107001438",616,"BW","Body Weight","286","g","286",286,"g",NA,NA,"Y",NA,NA,NA,1,"2007-06-12T07:31:57",1
"GLP003","BW","107001438",617,"BW","Body Weight","303","g","303",303,"g",NA,NA,NA,NA,NA,NA,8,"2007-06-19T07:51:01",8
"GLP003","BW","107001438",618,"BW","Body Weight","328","g","328",328,"g",NA,NA,NA,NA,NA,NA,15,"2007-06-26T07:42:28",15
"GLP003","BW","107001438",619,"BW","Body Weight","354","g","354",354,"g",NA,NA,NA,NA,NA,NA,22,"2007-07-03T06:44:41",22
"GLP003","BW","107001438",620,"BW","Body Weight","357","g","357",357,"g",NA,NA,NA,NA,NA,NA,29,"2007-07-10T10:57:50",29
"GLP003","BW","107001440",621,"BW","Body Weight","276","g","276",276,"g",NA,NA,NA,NA,NA,NA,-4,"2007-06-08T08:41:17",-4
"GLP003","BW","107001440",622,"BW","Body Weight","309","g","309",309,"g",NA,NA,NA,NA,NA,NA,-1,"2007-06-11T08:01:05",-1
"GLP003","BW","107001440",623,"BW","Body Weight","318","g","318",318,"g",NA,NA,"Y",NA,NA,NA,1,"2007-06-12T07:22:28",1
"GLP003","BW","107001440",624,"BW","Body Weight","371","g","371",371,"g",NA,NA,NA,NA,NA,NA,8,"2007-06-19T07:41:50",8
"GLP003","BW","107001440",625,"BW","Body Weight","416","g","416",416,"g",NA,NA,NA,NA,NA,NA,15,"2007-06-26T07:35:29",15
"GLP003","BW","107001440",626,"BW","Body Weight","452","g","452",452,"g",NA,NA,NA,NA,NA,NA,22,"2007-07-03T06:33:51",22
"GLP003","BW","107001441",627,"BW","Body Weight","261","g","261",261,"g",NA,NA,NA,NA,NA,NA,-4,"2007-06-08T08:41:31",-4
"GLP003","BW","107001441",628,"BW","Body Weight","289","g","289",289,"g",NA,NA,NA,NA,NA,NA,-1,"2007-06-11T08:01:21",-1
"GLP003","BW","107001441",629,"BW","Body Weight","298","g","298",298,"g",NA,NA,"Y",NA,NA,NA,1,"2007-06-12T07:26:16",1
"GLP003","BW","107001441",630,"BW","Body Weight","333","g","333",333,"g",NA,NA,NA,NA,NA,NA,8,"2007-06-19T07:44:56",8
"GLP003","BW","107001441",631,"BW","Body Weight","357","g","357",357,"g",NA,NA,NA,NA,NA,NA,15,"2007-06-26T07:38:21",15
"GLP003","BW","107001441",632,"BW","Body Weight","379","g","379",379,"g",NA,NA,NA,NA,NA,NA,22,"2007-07-03T06:37:49",22
"GLP003","BW","107001442",633,"BW","Body Weight","275","g","275",275,"g",NA,NA,NA,NA,NA,NA,-4,"2007-06-08T08:41:38",-4
"GLP003","BW","107001442",634,"BW","Body Weight","306","g","306",306,"g",NA,NA,NA,NA,NA,NA,-1,"2007-06-11T08:01:31",-1
"GLP003","BW","107001442",635,"BW","Body Weight","314","g","314",314,"g",NA,NA,"Y",NA,NA,NA,1,"2007-06-12T07:33:28",1
"GLP003","BW","107001442",636,"BW","Body Weight","341","g","341",341,"g",NA,NA,NA,NA,NA,NA,8,"2007-06-19T07:52:47",8
"GLP003","BW","107001442",637,"BW","Body Weight","367","g","367",367,"g",NA,NA,NA,NA,NA,NA,15,"2007-06-26T07:43:34",15
"GLP003","BW","107001442",638,"BW","Body Weight","393","g","393",393,"g",NA,NA,NA,NA,NA,NA,22,"2007-07-03T06:46:17",22
"GLP003","BW","107001444",639,"BW","Body Weight","281","g","281",281,"g",NA,NA,NA,NA,NA,NA,-4,"2007-06-08T08:41:53",-4
"GLP003","BW","107001444",640,"BW","Body Weight","311","g","311",311,"g",NA,NA,NA,NA,NA,NA,-1,"2007-06-11T08:01:50",-1
"GLP003","BW","107001444",641,"BW","Body Weight","319","g","319",319,"g",NA,NA,"Y",NA,NA,NA,1,"2007-06-12T07:34:02",1
"GLP003","BW","107001444",642,"BW","Body Weight","361","g","361",361,"g",NA,NA,NA,NA,NA,NA,8,"2007-06-19T07:53:18",8
"GLP003","BW","107001444",643,"BW","Body Weight","403","g","403",403,"g",NA,NA,NA,NA,NA,NA,15,"2007-06-26T07:44:04",15
"GLP003","BW","107001444",644,"BW","Body Weight","432","g","432",432,"g",NA,NA,NA,NA,NA,NA,22,"2007-07-03T06:47:27",22
"GLP003","BW","107001445",645,"BW","Body Weight","262","g","262",262,"g",NA,NA,NA,NA,NA,NA,-4,"2007-06-08T08:42:00",-4
"GLP003","BW","107001445",646,"BW","Body Weight","290","g","290",290,"g",NA,NA,NA,NA,NA,NA,-1,"2007-06-11T08:01:59",-1
"GLP003","BW","107001445",647,"BW","Body Weight","289","g","289",289,"g",NA,NA,"Y",NA,NA,NA,1,"2007-06-12T07:32:42",1
"GLP003","BW","107001445",648,"BW","Body Weight","349","g","349",349,"g",NA,NA,NA,NA,NA,NA,8,"2007-06-19T07:52:16",8
"GLP003","BW","107001445",649,"BW","Body Weight","384","g","384",384,"g",NA,NA,NA,NA,NA,NA,15,"2007-06-26T07:43:04",15
"GLP003","BW","107001445",650,"BW","Body Weight","404","g","404",404,"g",NA,NA,NA,NA,NA,NA,22,"2007-07-03T06:45:41",22
"GLP003","BW","107001445",651,"BW","Body Weight","428","g","428",428,"g",NA,NA,NA,NA,NA,NA,29,"2007-07-10T10:58:49",29
"GLP003","BW","107001445",652,"BW","Body Weight","442","g","442",442,"g",NA,NA,NA,NA,NA,NA,36,"2007-07-17T07:40:24",36
"GLP003","BW","107001446",653,"BW","Body Weight","280","g","280",280,"g",NA,NA,NA,NA,NA,NA,-4,"2007-06-08T08:42:08",-4
"GLP003","BW","107001446",654,"BW","Body Weight","309","g","309",309,"g",NA,NA,NA,NA,NA,NA,-1,"2007-06-11T08:02:06",-1
"GLP003","BW","107001446",655,"BW","Body Weight","314","g","314",314,"g",NA,NA,"Y",NA,NA,NA,1,"2007-06-12T07:36:40",1
"GLP003","BW","107001446",656,"BW","Body Weight","358","g","358",358,"g",NA,NA,NA,NA,NA,NA,8,"2007-06-19T07:55:31",8
"GLP003","BW","107001446",657,"BW","Body Weight","397","g","397",397,"g",NA,NA,NA,NA,NA,NA,15,"2007-06-26T07:46:02",15
"GLP003","BW","107001446",658,"BW","Body Weight","439","g","439",439,"g",NA,NA,NA,NA,NA,NA,22,"2007-07-03T06:50:23",22
"GLP003","BW","107001446",659,"BW","Body Weight","437","g","437",437,"g",NA,NA,NA,NA,NA,NA,29,"2007-07-10T11:00:12",29
"GLP003","BW","107001446",660,"BW","Body Weight","481","g","481",481,"g",NA,NA,NA,NA,NA,NA,36,"2007-07-17T07:40:59",36
"GLP003","BW","107001447",661,"BW","Body Weight","273","g","273",273,"g",NA,NA,NA,NA,NA,NA,-4,"2007-06-08T08:42:15",-4
"GLP003","BW","107001447",662,"BW","Body Weight","303","g","303",303,"g",NA,NA,NA,NA,NA,NA,-1,"2007-06-11T08:02:13",-1
"GLP003","BW","107001447",663,"BW","Body Weight","308","g","308",308,"g",NA,NA,"Y",NA,NA,NA,1,"2007-06-12T07:30:49",1
"GLP003","BW","107001447",664,"BW","Body Weight","346","g","346",346,"g",NA,NA,NA,NA,NA,NA,8,"2007-06-19T07:49:56",8
"GLP003","BW","107001447",665,"BW","Body Weight","380","g","380",380,"g",NA,NA,NA,NA,NA,NA,15,"2007-06-26T07:41:29",15
"GLP003","BW","107001447",666,"BW","Body Weight","415","g","415",415,"g",NA,NA,NA,NA,NA,NA,22,"2007-07-03T06:42:25",22
"GLP003","BW","107001448",667,"BW","Body Weight","267","g","267",267,"g",NA,NA,NA,NA,NA,NA,-4,"2007-06-08T08:42:22",-4
"GLP003","BW","107001448",668,"BW","Body Weight","297","g","297",297,"g",NA,NA,NA,NA,NA,NA,-1,"2007-06-11T08:02:21",-1
"GLP003","BW","107001448",669,"BW","Body Weight","308","g","308",308,"g",NA,NA,"Y",NA,NA,NA,1,"2007-06-12T07:38:00",1
"GLP003","BW","107001448",670,"BW","Body Weight","351","g","351",351,"g",NA,NA,NA,NA,NA,NA,8,"2007-06-19T07:56:50",8
"GLP003","BW","107001448",671,"BW","Body Weight","395","g","395",395,"g",NA,NA,NA,NA,NA,NA,15,"2007-06-26T07:47:12",15
"GLP003","BW","107001448",672,"BW","Body Weight","428","g","428",428,"g",NA,NA,NA,NA,NA,NA,22,"2007-07-03T06:52:04",22
"GLP003","BW","107001449",673,"BW","Body Weight","267","g","267",267,"g",NA,NA,NA,NA,NA,NA,-4,"2007-06-08T08:42:28",-4
"GLP003","BW","107001449",674,"BW","Body Weight","297","g","297",297,"g",NA,NA,NA,NA,NA,NA,-1,"2007-06-11T08:02:30",-1
"GLP003","BW","107001449",675,"BW","Body Weight","310","g","310",310,"g",NA,NA,"Y",NA,NA,NA,1,"2007-06-12T07:34:59",1
"GLP003","BW","107001449",676,"BW","Body Weight","354","g","354",354,"g",NA,NA,NA,NA,NA,NA,8,"2007-06-19T07:54:04",8
"GLP003","BW","107001449",677,"BW","Body Weight","390","g","390",390,"g",NA,NA,NA,NA,NA,NA,15,"2007-06-26T07:44:43",15
"GLP003","BW","107001449",678,"BW","Body Weight","418","g","418",418,"g",NA,NA,NA,NA,NA,NA,22,"2007-07-03T06:48:24",22
"GLP003","BW","107001450",679,"BW","Body Weight","264","g","264",264,"g",NA,NA,NA,NA,NA,NA,-4,"2007-06-08T08:42:35",-4
"GLP003","BW","107001450",680,"BW","Body Weight","295","g","295",295,"g",NA,NA,NA,NA,NA,NA,-1,"2007-06-11T08:02:37",-1
"GLP003","BW","107001450",681,"BW","Body Weight","299.7","g","299.7",299.7,"g",NA,NA,"Y",NA,NA,NA,1,"2007-06-12T07:30:04",1
"GLP003","BW","107001450",682,"BW","Body Weight","352","g","352",352,"g",NA,NA,NA,NA,NA,NA,8,"2007-06-19T07:48:48",8
"GLP003","BW","107001450",683,"BW","Body Weight","386","g","386",386,"g",NA,NA,NA,NA,NA,NA,15,"2007-06-26T07:40:46",15
"GLP003","BW","107001450",684,"BW","Body Weight","412","g","412",412,"g",NA,NA,NA,NA,NA,NA,22,"2007-07-03T06:41:15",22
"GLP003","BW","107001451",685,"BW","Body Weight","261","g","261",261,"g",NA,NA,NA,NA,NA,NA,-4,"2007-06-08T08:42:44",-4
"GLP003","BW","107001451",686,"BW","Body Weight","284","g","284",284,"g",NA,NA,NA,NA,NA,NA,-1,"2007-06-11T08:02:45",-1
"GLP003","BW","107001451",687,"BW","Body Weight","290","g","290",290,"g",NA,NA,"Y",NA,NA,NA,1,"2007-06-12T07:25:37",1
"GLP003","BW","107001451",688,"BW","Body Weight","330","g","330",330,"g",NA,NA,NA,NA,NA,NA,8,"2007-06-19T07:44:39",8
"GLP003","BW","107001451",689,"BW","Body Weight","357","g","357",357,"g",NA,NA,NA,NA,NA,NA,15,"2007-06-26T07:37:53",15
"GLP003","BW","107001451",690,"BW","Body Weight","383","g","383",383,"g",NA,NA,NA,NA,NA,NA,22,"2007-07-03T06:37:25",22
"GLP003","BW","107001453",691,"BW","Body Weight","274","g","274",274,"g",NA,NA,NA,NA,NA,NA,-4,"2007-06-08T08:42:57",-4
"GLP003","BW","107001453",692,"BW","Body Weight","300","g","300",300,"g",NA,NA,NA,NA,NA,NA,-1,"2007-06-11T08:03:00",-1
"GLP003","BW","107001453",693,"BW","Body Weight","309","g","309",309,"g",NA,NA,"Y",NA,NA,NA,1,"2007-06-12T07:37:45",1
"GLP003","BW","107001453",694,"BW","Body Weight","362","g","362",362,"g",NA,NA,NA,NA,NA,NA,8,"2007-06-19T07:56:41",8
"GLP003","BW","107001453",695,"BW","Body Weight","384","g","384",384,"g",NA,NA,NA,NA,NA,NA,15,"2007-06-26T07:47:05",15
"GLP003","BW","107001453",696,"BW","Body Weight","409","g","409",409,"g",NA,NA,NA,NA,NA,NA,22,"2007-07-03T06:51:55",22
"GLP003","BW","107001454",697,"BW","Body Weight","270","g","270",270,"g",NA,NA,NA,NA,NA,NA,-4,"2007-06-08T08:43:04",-4
"GLP003","BW","107001454",698,"BW","Body Weight","291","g","291",291,"g",NA,NA,NA,NA,NA,NA,-1,"2007-06-11T08:03:08",-1
"GLP003","BW","107001454",699,"BW","Body Weight","298","g","298",298,"g",NA,NA,"Y",NA,NA,NA,1,"2007-06-12T07:31:13",1
"GLP003","BW","107001454",700,"BW","Body Weight","331","g","331",331,"g",NA,NA,NA,NA,NA,NA,8,"2007-06-19T07:50:21",8
"GLP003","BW","107001454",701,"BW","Body Weight","351","g","351",351,"g",NA,NA,NA,NA,NA,NA,15,"2007-06-26T07:41:52",15
"GLP003","BW","107001454",702,"BW","Body Weight","366","g","366",366,"g",NA,NA,NA,NA,NA,NA,22,"2007-07-03T06:43:36",22
"GLP003","BW","107001455",703,"BW","Body Weight","255","g","255",255,"g",NA,NA,NA,NA,NA,NA,-4,"2007-06-08T08:43:08",-4
"GLP003","BW","107001455",704,"BW","Body Weight","291","g","291",291,"g",NA,NA,NA,NA,NA,NA,-1,"2007-06-11T08:03:14",-1
"GLP003","BW","107001455",705,"BW","Body Weight","302","g","302",302,"g",NA,NA,"Y",NA,NA,NA,1,"2007-06-12T07:23:13",1
"GLP003","BW","107001455",706,"BW","Body Weight","359","g","359",359,"g",NA,NA,NA,NA,NA,NA,8,"2007-06-19T07:42:25",8
"GLP003","BW","107001455",707,"BW","Body Weight","404","g","404",404,"g",NA,NA,NA,NA,NA,NA,15,"2007-06-26T07:35:57",15
"GLP003","BW","107001455",708,"BW","Body Weight","446","g","446",446,"g",NA,NA,NA,NA,NA,NA,22,"2007-07-03T06:34:44",22
"GLP003","BW","107001455",709,"BW","Body Weight","473","g","473",473,"g",NA,NA,NA,NA,NA,NA,29,"2007-07-10T10:53:44",29
"GLP003","BW","107001456",710,"BW","Body Weight","261","g","261",261,"g",NA,NA,NA,NA,NA,NA,-4,"2007-06-08T08:43:15",-4
"GLP003","BW","107001456",711,"BW","Body Weight","287","g","287",287,"g",NA,NA,NA,NA,NA,NA,-1,"2007-06-11T08:03:22",-1
"GLP003","BW","107001456",712,"BW","Body Weight","292","g","292",292,"g",NA,NA,"Y",NA,NA,NA,1,"2007-06-12T07:23:29",1
"GLP003","BW","107001456",713,"BW","Body Weight","316","g","316",316,"g",NA,NA,NA,NA,NA,NA,8,"2007-06-19T07:42:44",8
"GLP003","BW","107001456",714,"BW","Body Weight","344","g","344",344,"g",NA,NA,NA,NA,NA,NA,15,"2007-06-26T07:36:13",15
"GLP003","BW","107001456",715,"BW","Body Weight","371","g","371",371,"g",NA,NA,NA,NA,NA,NA,22,"2007-07-03T06:35:06",22
"GLP003","BW","107001456",716,"BW","Body Weight","394","g","394",394,"g",NA,NA,NA,NA,NA,NA,29,"2007-07-10T10:54:02",29
"GLP003","BW","107001457",717,"BW","Body Weight","271","g","271",271,"g",NA,NA,NA,NA,NA,NA,-4,"2007-06-08T08:43:21",-4
"GLP003","BW","107001457",718,"BW","Body Weight","294","g","294",294,"g",NA,NA,NA,NA,NA,NA,-1,"2007-06-11T08:03:29",-1
"GLP003","BW","107001457",719,"BW","Body Weight","304","g","304",304,"g",NA,NA,"Y",NA,NA,NA,1,"2007-06-12T07:24:50",1
"GLP003","BW","107001457",720,"BW","Body Weight","329","g","329",329,"g",NA,NA,NA,NA,NA,NA,8,"2007-06-19T07:43:48",8
"GLP003","BW","107001457",721,"BW","Body Weight","356","g","356",356,"g",NA,NA,NA,NA,NA,NA,15,"2007-06-26T07:37:13",15
"GLP003","BW","107001457",722,"BW","Body Weight","379","g","379",379,"g",NA,NA,NA,NA,NA,NA,22,"2007-07-03T06:36:21",22
"GLP003","BW","107001458",723,"BW","Body Weight","265","g","265",265,"g",NA,NA,NA,NA,NA,NA,-4,"2007-06-08T08:43:27",-4
"GLP003","BW","107001458",724,"BW","Body Weight","291","g","291",291,"g",NA,NA,NA,NA,NA,NA,-1,"2007-06-11T08:03:35",-1
"GLP003","BW","107001458",725,"BW","Body Weight","296","g","296",296,"g",NA,NA,"Y",NA,NA,NA,1,"2007-06-12T07:18:19",1
"GLP003","BW","107001458",726,"BW","Body Weight","339","g","339",339,"g",NA,NA,NA,NA,NA,NA,8,"2007-06-19T07:37:49",8
"GLP003","BW","107001458",727,"BW","Body Weight","375","g","375",375,"g",NA,NA,NA,NA,NA,NA,15,"2007-06-26T07:32:14",15
"GLP003","BW","107001458",728,"BW","Body Weight","410","g","410",410,"g",NA,NA,NA,NA,NA,NA,22,"2007-07-03T06:21:35",22
"GLP003","BW","107001459",729,"BW","Body Weight","280","g","280",280,"g",NA,NA,NA,NA,NA,NA,-4,"2007-06-08T08:43:34",-4
"GLP003","BW","107001459",730,"BW","Body Weight","312","g","312",312,"g",NA,NA,NA,NA,NA,NA,-1,"2007-06-11T08:03:44",-1
"GLP003","BW","107001459",731,"BW","Body Weight","326","g","326",326,"g",NA,NA,"Y",NA,NA,NA,1,"2007-06-12T07:21:38",1
"GLP003","BW","107001459",732,"BW","Body Weight","375","g","375",375,"g",NA,NA,NA,NA,NA,NA,8,"2007-06-19T07:40:50",8
"GLP003","BW","107001459",733,"BW","Body Weight","424","g","424",424,"g",NA,NA,NA,NA,NA,NA,15,"2007-06-26T07:34:32",15
"GLP003","BW","107001459",734,"BW","Body Weight","451","g","451",451,"g",NA,NA,NA,NA,NA,NA,22,"2007-07-03T06:32:13",22
"GLP003","BW","107001461",735,"BW","Body Weight","279","g","279",279,"g",NA,NA,NA,NA,NA,NA,-4,"2007-06-08T08:43:49",-4
"GLP003","BW","107001461",736,"BW","Body Weight","303","g","303",303,"g",NA,NA,NA,NA,NA,NA,-1,"2007-06-11T08:04:16",-1
"GLP003","BW","107001461",737,"BW","Body Weight","309","g","309",309,"g",NA,NA,"Y",NA,NA,NA,1,"2007-06-12T07:35:55",1
"GLP003","BW","107001461",738,"BW","Body Weight","335","g","335",335,"g",NA,NA,NA,NA,NA,NA,8,"2007-06-19T07:54:54",8
"GLP003","BW","107001461",739,"BW","Body Weight","370","g","370",370,"g",NA,NA,NA,NA,NA,NA,15,"2007-06-26T07:45:28",15
"GLP003","BW","107001461",740,"BW","Body Weight","400","g","400",400,"g",NA,NA,NA,NA,NA,NA,22,"2007-07-03T06:49:29",22
"GLP003","BW","107001461",741,"BW","Body Weight","415","g","415",415,"g",NA,NA,NA,NA,NA,NA,29,"2007-07-10T10:59:21",29
"GLP003","BW","107001463",742,"BW","Body Weight","261","g","261",261,"g",NA,NA,NA,NA,NA,NA,-4,"2007-06-08T08:44:03",-4
"GLP003","BW","107001463",743,"BW","Body Weight","282","g","282",282,"g",NA,NA,NA,NA,NA,NA,-1,"2007-06-11T08:04:40",-1
"GLP003","BW","107001463",744,"BW","Body Weight","283","g","283",283,"g",NA,NA,"Y",NA,NA,NA,1,"2007-06-12T07:37:24",1
"GLP003","BW","107001463",745,"BW","Body Weight","317","g","317",317,"g",NA,NA,NA,NA,NA,NA,8,"2007-06-19T07:56:23",8
"GLP003","BW","107001463",746,"BW","Body Weight","342","g","342",342,"g",NA,NA,NA,NA,NA,NA,15,"2007-06-26T07:46:48",15
"GLP003","BW","107001463",747,"BW","Body Weight","364","g","364",364,"g",NA,NA,NA,NA,NA,NA,22,"2007-07-03T06:51:22",22
"GLP003","BW","107001464",748,"BW","Body Weight","264","g","264",264,"g",NA,NA,NA,NA,NA,NA,-4,"2007-06-08T08:44:09",-4
"GLP003","BW","107001464",749,"BW","Body Weight","289","g","289",289,"g",NA,NA,NA,NA,NA,NA,-1,"2007-06-11T08:05:07",-1
"GLP003","BW","107001464",750,"BW","Body Weight","292","g","292",292,"g",NA,NA,"Y",NA,NA,NA,1,"2007-06-12T07:29:54",1
"GLP003","BW","107001464",751,"BW","Body Weight","325","g","325",325,"g",NA,NA,NA,NA,NA,NA,8,"2007-06-19T07:48:39",8
"GLP003","BW","107001464",752,"BW","Body Weight","357","g","357",357,"g",NA,NA,NA,NA,NA,NA,15,"2007-06-26T07:40:39",15
"GLP003","BW","107001464",753,"BW","Body Weight","390","g","390",390,"g",NA,NA,NA,NA,NA,NA,22,"2007-07-03T06:41:00",22
"GLP003","BW","107001466",754,"BW","Body Weight","273","g","273",273,"g",NA,NA,NA,NA,NA,NA,-4,"2007-06-08T08:44:26",-4
"GLP003","BW","107001466",755,"BW","Body Weight","303","g","303",303,"g",NA,NA,NA,NA,NA,NA,-1,"2007-06-11T08:05:28",-1
"GLP003","BW","107001466",756,"BW","Body Weight","312","g","312",312,"g",NA,NA,"Y",NA,NA,NA,1,"2007-06-12T07:19:21",1
"GLP003","BW","107001466",757,"BW","Body Weight","361","g","361",361,"g",NA,NA,NA,NA,NA,NA,8,"2007-06-19T07:38:34",8
"GLP003","BW","107001466",758,"BW","Body Weight","399","g","399",399,"g",NA,NA,NA,NA,NA,NA,15,"2007-06-26T07:32:51",15
"GLP003","BW","107001466",759,"BW","Body Weight","439","g","439",439,"g",NA,NA,NA,NA,NA,NA,22,"2007-07-03T06:22:25",22
"GLP003","BW","107001466",760,"BW","Body Weight","457","g","457",457,"g",NA,NA,NA,NA,NA,NA,29,"2007-07-10T10:50:37",29
"GLP003","BW","107001467",761,"BW","Body Weight","274","g","274",274,"g",NA,NA,NA,NA,NA,NA,-4,"2007-06-08T08:44:32",-4
"GLP003","BW","107001467",762,"BW","Body Weight","301","g","301",301,"g",NA,NA,NA,NA,NA,NA,-1,"2007-06-11T08:05:34",-1
"GLP003","BW","107001467",763,"BW","Body Weight","306","g","306",306,"g",NA,NA,"Y",NA,NA,NA,1,"2007-06-12T07:20:05",1
"GLP003","BW","107001467",764,"BW","Body Weight","346","g","346",346,"g",NA,NA,NA,NA,NA,NA,8,"2007-06-19T07:39:09",8
"GLP003","BW","107001467",765,"BW","Body Weight","382","g","382",382,"g",NA,NA,NA,NA,NA,NA,15,"2007-06-26T07:33:17",15
"GLP003","BW","107001467",766,"BW","Body Weight","418","g","418",418,"g",NA,NA,NA,NA,NA,NA,22,"2007-07-03T06:23:06",22
"GLP003","BW","107001467",767,"BW","Body Weight","406","g","406",406,"g",NA,NA,NA,NA,NA,NA,29,"2007-07-10T10:52:11",29
"GLP003","BW","107001467",768,"BW","Body Weight","460","g","460",460,"g",NA,NA,NA,NA,NA,NA,36,"2007-07-17T07:37:20",36
"GLP003","BW","107001468",769,"BW","Body Weight","277","g","277",277,"g",NA,NA,NA,NA,NA,NA,-4,"2007-06-08T08:44:39",-4
"GLP003","BW","107001468",770,"BW","Body Weight","305","g","305",305,"g",NA,NA,NA,NA,NA,NA,-1,"2007-06-11T08:05:41",-1
"GLP003","BW","107001468",771,"BW","Body Weight","310","g","310",310,"g",NA,NA,"Y",NA,NA,NA,1,"2007-06-12T07:21:44",1
"GLP003","BW","107001468",772,"BW","Body Weight","352","g","352",352,"g",NA,NA,NA,NA,NA,NA,8,"2007-06-19T07:40:57",8
"GLP003","BW","107001468",773,"BW","Body Weight","387","g","387",387,"g",NA,NA,NA,NA,NA,NA,15,"2007-06-26T07:34:39",15
"GLP003","BW","107001468",774,"BW","Body Weight","414","g","414",414,"g",NA,NA,NA,NA,NA,NA,22,"2007-07-03T06:32:18",22
"GLP003","BW","107001469",775,"BW","Body Weight","270","g","270",270,"g",NA,NA,NA,NA,NA,NA,-4,"2007-06-08T08:45:10",-4
"GLP003","BW","107001469",776,"BW","Body Weight","297","g","297",297,"g",NA,NA,NA,NA,NA,NA,-1,"2007-06-11T08:06:19",-1
"GLP003","BW","107001469",777,"BW","Body Weight","307","g","307",307,"g",NA,NA,"Y",NA,NA,NA,1,"2007-06-12T07:22:14",1
"GLP003","BW","107001469",778,"BW","Body Weight","350","g","350",350,"g",NA,NA,NA,NA,NA,NA,8,"2007-06-19T07:41:35",8
"GLP003","BW","107001469",779,"BW","Body Weight","388","g","388",388,"g",NA,NA,NA,NA,NA,NA,15,"2007-06-26T07:35:14",15
"GLP003","BW","107001469",780,"BW","Body Weight","366","g","366",366,"g",NA,NA,NA,NA,NA,NA,22,"2007-07-03T06:33:28",22
"GLP003","BW","107001470",781,"BW","Body Weight","274","g","274",274,"g",NA,NA,NA,NA,NA,NA,-4,"2007-06-08T08:45:16",-4
"GLP003","BW","107001470",782,"BW","Body Weight","294","g","294",294,"g",NA,NA,NA,NA,NA,NA,-1,"2007-06-11T08:06:29",-1
"GLP003","BW","107001470",783,"BW","Body Weight","302","g","302",302,"g",NA,NA,"Y",NA,NA,NA,1,"2007-06-12T07:23:20",1
"GLP003","BW","107001470",784,"BW","Body Weight","346","g","346",346,"g",NA,NA,NA,NA,NA,NA,8,"2007-06-19T07:42:34",8
"GLP003","BW","107001470",785,"BW","Body Weight","379","g","379",379,"g",NA,NA,NA,NA,NA,NA,15,"2007-06-26T07:36:06",15
"GLP003","BW","107001470",786,"BW","Body Weight","405","g","405",405,"g",NA,NA,NA,NA,NA,NA,22,"2007-07-03T06:34:55",22
"GLP003","BW","107001470",787,"BW","Body Weight","425","g","425",425,"g",NA,NA,NA,NA,NA,NA,29,"2007-07-10T10:53:54",29
"GLP003","BW","107001471",788,"BW","Body Weight","273","g","273",273,"g",NA,NA,NA,NA,NA,NA,-4,"2007-06-08T08:45:22",-4
"GLP003","BW","107001471",789,"BW","Body Weight","296","g","296",296,"g",NA,NA,NA,NA,NA,NA,-1,"2007-06-11T08:06:36",-1
"GLP003","BW","107001471",790,"BW","Body Weight","302","g","302",302,"g",NA,NA,"Y",NA,NA,NA,1,"2007-06-12T07:30:11",1
"GLP003","BW","107001471",791,"BW","Body Weight","331","g","331",331,"g",NA,NA,NA,NA,NA,NA,8,"2007-06-19T07:49:11",8
"GLP003","BW","107001471",792,"BW","Body Weight","365","g","365",365,"g",NA,NA,NA,NA,NA,NA,15,"2007-06-26T07:40:52",15
"GLP003","BW","107001471",793,"BW","Body Weight","401","g","401",401,"g",NA,NA,NA,NA,NA,NA,22,"2007-07-03T06:41:25",22
"GLP003","BW","107001472",794,"BW","Body Weight","268","g","268",268,"g",NA,NA,NA,NA,NA,NA,-4,"2007-06-08T08:45:39",-4
"GLP003","BW","107001472",795,"BW","Body Weight","288","g","288",288,"g",NA,NA,NA,NA,NA,NA,-1,"2007-06-11T08:06:48",-1
"GLP003","BW","107001472",796,"BW","Body Weight","293","g","293",293,"g",NA,NA,"Y",NA,NA,NA,1,"2007-06-12T07:19:01",1
"GLP003","BW","107001472",797,"BW","Body Weight","317","g","317",317,"g",NA,NA,NA,NA,NA,NA,8,"2007-06-19T07:38:16",8
"GLP003","BW","107001472",798,"BW","Body Weight","338","g","338",338,"g",NA,NA,NA,NA,NA,NA,15,"2007-06-26T07:32:37",15
"GLP003","BW","107001472",799,"BW","Body Weight","353","g","353",353,"g",NA,NA,NA,NA,NA,NA,22,"2007-07-03T06:22:08",22
"GLP003","BW","107001472",800,"BW","Body Weight","354","g","354",354,"g",NA,NA,NA,NA,NA,NA,29,"2007-07-10T10:50:24",29
"GLP003","BW","107001473",801,"BW","Body Weight","267","g","267",267,"g",NA,NA,NA,NA,NA,NA,-4,"2007-06-08T08:45:47",-4
"GLP003","BW","107001473",802,"BW","Body Weight","283","g","283",283,"g",NA,NA,NA,NA,NA,NA,-1,"2007-06-11T08:06:56",-1
"GLP003","BW","107001473",803,"BW","Body Weight","287","g","287",287,"g",NA,NA,"Y",NA,NA,NA,1,"2007-06-12T07:24:26",1
"GLP003","BW","107001473",804,"BW","Body Weight","314","g","314",314,"g",NA,NA,NA,NA,NA,NA,8,"2007-06-19T07:43:23",8
"GLP003","BW","107001473",805,"BW","Body Weight","337","g","337",337,"g",NA,NA,NA,NA,NA,NA,15,"2007-06-26T07:36:46",15
"GLP003","BW","107001473",806,"BW","Body Weight","349","g","349",349,"g",NA,NA,NA,NA,NA,NA,22,"2007-07-03T06:35:48",22
"GLP003","BW","107001473",807,"BW","Body Weight","363","g","363",363,"g",NA,NA,NA,NA,NA,NA,29,"2007-07-10T10:55:04",29
"GLP003","BW","107001473",808,"BW","Body Weight","377","g","377",377,"g",NA,NA,NA,NA,NA,NA,36,"2007-07-17T07:38:30",36
"GLP003","BW","107001474",809,"BW","Body Weight","258","g","258",258,"g",NA,NA,NA,NA,NA,NA,-4,"2007-06-08T08:45:55",-4
"GLP003","BW","107001474",810,"BW","Body Weight","286","g","286",286,"g",NA,NA,NA,NA,NA,NA,-1,"2007-06-11T08:07:06",-1
"GLP003","BW","107001474",811,"BW","Body Weight","297","g","297",297,"g",NA,NA,"Y",NA,NA,NA,1,"2007-06-12T07:36:32",1
"GLP003","BW","107001474",812,"BW","Body Weight","341","g","341",341,"g",NA,NA,NA,NA,NA,NA,8,"2007-06-19T07:55:22",8
"GLP003","BW","107001474",813,"BW","Body Weight","377","g","377",377,"g",NA,NA,NA,NA,NA,NA,15,"2007-06-26T07:45:55",15
"GLP003","BW","107001474",814,"BW","Body Weight","404","g","404",404,"g",NA,NA,NA,NA,NA,NA,22,"2007-07-03T06:50:11",22
"GLP003","BW","107001474",815,"BW","Body Weight","399","g","399",399,"g",NA,NA,NA,NA,NA,NA,29,"2007-07-10T11:00:01",29
"GLP003","BW","107001474",816,"BW","Body Weight","441","g","441",441,"g",NA,NA,NA,NA,NA,NA,36,"2007-07-17T07:40:52",36
"GLP003","BW","107001476",817,"BW","Body Weight","278","g","278",278,"g",NA,NA,NA,NA,NA,NA,-4,"2007-06-08T08:46:17",-4
"GLP003","BW","107001476",818,"BW","Body Weight","301","g","301",301,"g",NA,NA,NA,NA,NA,NA,-1,"2007-06-11T08:07:21",-1
"GLP003","BW","107001476",819,"BW","Body Weight","312","g","312",312,"g",NA,NA,"Y",NA,NA,NA,1,"2007-06-12T07:38:12",1
"GLP003","BW","107001476",820,"BW","Body Weight","347","g","347",347,"g",NA,NA,NA,NA,NA,NA,8,"2007-06-19T07:57:06",8
"GLP003","BW","107001476",821,"BW","Body Weight","378","g","378",378,"g",NA,NA,NA,NA,NA,NA,15,"2007-06-26T07:47:25",15
"GLP003","BW","107001476",822,"BW","Body Weight","406","g","406",406,"g",NA,NA,NA,NA,NA,NA,22,"2007-07-03T06:52:28",22
"GLP003","BW","107001477",823,"BW","Body Weight","276","g","276",276,"g",NA,NA,NA,NA,NA,NA,-4,"2007-06-08T08:46:23",-4
"GLP003","BW","107001477",824,"BW","Body Weight","299","g","299",299,"g",NA,NA,NA,NA,NA,NA,-1,"2007-06-11T08:07:29",-1
"GLP003","BW","107001477",825,"BW","Body Weight","309","g","309",309,"g",NA,NA,"Y",NA,NA,NA,1,"2007-06-12T07:35:35",1
"GLP003","BW","107001477",826,"BW","Body Weight","352","g","352",352,"g",NA,NA,NA,NA,NA,NA,8,"2007-06-19T07:54:34",8
"GLP003","BW","107001477",827,"BW","Body Weight","389","g","389",389,"g",NA,NA,NA,NA,NA,NA,15,"2007-06-26T07:45:12",15
"GLP003","BW","107001477",828,"BW","Body Weight","415","g","415",415,"g",NA,NA,NA,NA,NA,NA,22,"2007-07-03T06:49:09",22
"GLP003","BW","107001478",829,"BW","Body Weight","278","g","278",278,"g",NA,NA,NA,NA,NA,NA,-4,"2007-06-08T08:46:29",-4
"GLP003","BW","107001478",830,"BW","Body Weight","307","g","307",307,"g",NA,NA,NA,NA,NA,NA,-1,"2007-06-11T08:07:56",-1
"GLP003","BW","107001478",831,"BW","Body Weight","315","g","315",315,"g",NA,NA,"Y",NA,NA,NA,1,"2007-06-12T07:28:20",1
"GLP003","BW","107001478",832,"BW","Body Weight","371","g","371",371,"g",NA,NA,NA,NA,NA,NA,8,"2007-06-19T07:47:31",8
"GLP003","BW","107001478",833,"BW","Body Weight","418","g","418",418,"g",NA,NA,NA,NA,NA,NA,15,"2007-06-26T07:39:56",15
"GLP003","BW","107001478",834,"BW","Body Weight","449","g","449",449,"g",NA,NA,NA,NA,NA,NA,22,"2007-07-03T06:39:58",22
"GLP003","BW","107001478",835,"BW","Body Weight","456","g","456",456,"g",NA,NA,NA,NA,NA,NA,29,"2007-07-10T10:56:43",29
"GLP003","BW","107001478",836,"BW","Body Weight","465","g","465",465,"g",NA,NA,NA,NA,NA,NA,36,"2007-07-17T07:39:12",36
"GLP003","BW","107001479",837,"BW","Body Weight","271","g","271",271,"g",NA,NA,NA,NA,NA,NA,-4,"2007-06-08T08:46:36",-4
"GLP003","BW","107001479",838,"BW","Body Weight","303","g","303",303,"g",NA,NA,NA,NA,NA,NA,-1,"2007-06-11T08:08:03",-1
"GLP003","BW","107001479",839,"BW","Body Weight","305","g","305",305,"g",NA,NA,"Y",NA,NA,NA,1,"2007-06-12T07:25:07",1
"GLP003","BW","107001479",840,"BW","Body Weight","352","g","352",352,"g",NA,NA,NA,NA,NA,NA,8,"2007-06-19T07:44:04",8
"GLP003","BW","107001479",841,"BW","Body Weight","388","g","388",388,"g",NA,NA,NA,NA,NA,NA,15,"2007-06-26T07:37:28",15
"GLP003","BW","107001479",842,"BW","Body Weight","423","g","423",423,"g",NA,NA,NA,NA,NA,NA,22,"2007-07-03T06:36:54",22
"GLP003","BW","107001480",843,"BW","Body Weight","277","g","277",277,"g",NA,NA,NA,NA,NA,NA,-4,"2007-06-08T08:46:46",-4
"GLP003","BW","107001480",844,"BW","Body Weight","305","g","305",305,"g",NA,NA,NA,NA,NA,NA,-1,"2007-06-11T08:08:13",-1
"GLP003","BW","107001480",845,"BW","Body Weight","315","g","315",315,"g",NA,NA,"Y",NA,NA,NA,1,"2007-06-12T07:26:47",1
"GLP003","BW","107001480",846,"BW","Body Weight","362","g","362",362,"g",NA,NA,NA,NA,NA,NA,8,"2007-06-19T07:45:24",8
"GLP003","BW","107001480",847,"BW","Body Weight","377","g","377",377,"g",NA,NA,NA,NA,NA,NA,15,"2007-06-26T07:38:51",15
"GLP003","BW","107001480",848,"BW","Body Weight","391","g","391",391,"g",NA,NA,NA,NA,NA,NA,22,"2007-07-03T06:38:25",22
"GLP003","BW","107001481",849,"BW","Body Weight","275","g","275",275,"g",NA,NA,NA,NA,NA,NA,-4,"2007-06-08T08:46:58",-4
"GLP003","BW","107001481",850,"BW","Body Weight","302","g","302",302,"g",NA,NA,NA,NA,NA,NA,-1,"2007-06-11T08:08:24",-1
"GLP003","BW","107001481",851,"BW","Body Weight","310","g","310",310,"g",NA,NA,"Y",NA,NA,NA,1,"2007-06-12T07:24:43",1
"GLP003","BW","107001481",852,"BW","Body Weight","368","g","368",368,"g",NA,NA,NA,NA,NA,NA,8,"2007-06-19T07:43:39",8
"GLP003","BW","107001481",853,"BW","Body Weight","414","g","414",414,"g",NA,NA,NA,NA,NA,NA,15,"2007-06-26T07:37:07",15
"GLP003","BW","107001481",854,"BW","Body Weight","459","g","459",459,"g",NA,NA,NA,NA,NA,NA,22,"2007-07-03T06:36:13",22
"GLP003","BW","107001482",855,"BW","Body Weight","285","g","285",285,"g",NA,NA,NA,NA,NA,NA,-4,"2007-06-08T08:47:07",-4
"GLP003","BW","107001482",856,"BW","Body Weight","309","g","309",309,"g",NA,NA,NA,NA,NA,NA,-1,"2007-06-11T08:08:30",-1
"GLP003","BW","107001482",857,"BW","Body Weight","317","g","317",317,"g",NA,NA,"Y",NA,NA,NA,1,"2007-06-12T07:32:14",1
"GLP003","BW","107001482",858,"BW","Body Weight","355","g","355",355,"g",NA,NA,NA,NA,NA,NA,8,"2007-06-19T07:51:28",8
"GLP003","BW","107001482",859,"BW","Body Weight","399","g","399",399,"g",NA,NA,NA,NA,NA,NA,15,"2007-06-26T07:42:42",15
"GLP003","BW","107001482",860,"BW","Body Weight","432","g","432",432,"g",NA,NA,NA,NA,NA,NA,22,"2007-07-03T06:45:00",22
"GLP003","BW","107001482",861,"BW","Body Weight","425","g","425",425,"g",NA,NA,NA,NA,NA,NA,29,"2007-07-10T10:58:07",29
"GLP003","BW","107001482",862,"BW","Body Weight","462","g","462",462,"g",NA,NA,NA,NA,NA,NA,36,"2007-07-17T07:39:53",36
"GLP003","BW","107001483",863,"BW","Body Weight","267","g","267",267,"g",NA,NA,NA,NA,NA,NA,-4,"2007-06-08T08:47:25",-4
"GLP003","BW","107001483",864,"BW","Body Weight","290","g","290",290,"g",NA,NA,NA,NA,NA,NA,-1,"2007-06-11T08:08:40",-1
"GLP003","BW","107001483",865,"BW","Body Weight","293","g","293",293,"g",NA,NA,"Y",NA,NA,NA,1,"2007-06-12T07:19:51",1
"GLP003","BW","107001483",866,"BW","Body Weight","323","g","323",323,"g",NA,NA,NA,NA,NA,NA,8,"2007-06-19T07:38:53",8
"GLP003","BW","107001483",867,"BW","Body Weight","352","g","352",352,"g",NA,NA,NA,NA,NA,NA,15,"2007-06-26T07:33:04",15
"GLP003","BW","107001483",868,"BW","Body Weight","367","g","367",367,"g",NA,NA,NA,NA,NA,NA,22,"2007-07-03T06:22:49",22
"GLP003","BW","107001483",869,"BW","Body Weight","379","g","379",379,"g",NA,NA,NA,NA,NA,NA,29,"2007-07-10T10:51:00",29
"GLP003","BW","107001485",870,"BW","Body Weight","265","g","265",265,"g",NA,NA,NA,NA,NA,NA,-4,"2007-06-08T08:47:57",-4
"GLP003","BW","107001485",871,"BW","Body Weight","284","g","284",284,"g",NA,NA,NA,NA,NA,NA,-1,"2007-06-11T08:08:56",-1
"GLP003","BW","107001485",872,"BW","Body Weight","289","g","289",289,"g",NA,NA,"Y",NA,NA,NA,1,"2007-06-12T07:36:48",1
"GLP003","BW","107001485",873,"BW","Body Weight","316","g","316",316,"g",NA,NA,NA,NA,NA,NA,8,"2007-06-19T07:55:38",8
"GLP003","BW","107001485",874,"BW","Body Weight","346","g","346",346,"g",NA,NA,NA,NA,NA,NA,15,"2007-06-26T07:46:09",15
"GLP003","BW","107001485",875,"BW","Body Weight","382","g","382",382,"g",NA,NA,NA,NA,NA,NA,22,"2007-07-03T06:50:35",22
"GLP003","BW","107001485",876,"BW","Body Weight","383","g","383",383,"g",NA,NA,NA,NA,NA,NA,29,"2007-07-10T11:00:21",29
"GLP003","BW","107001485",877,"BW","Body Weight","402","g","402",402,"g",NA,NA,NA,NA,NA,NA,36,"2007-07-17T07:41:10",36
"GLP003","BW","107001486",878,"BW","Body Weight","276","g","276",276,"g",NA,NA,NA,NA,NA,NA,-4,"2007-06-08T08:48:03",-4
"GLP003","BW","107001486",879,"BW","Body Weight","296","g","296",296,"g",NA,NA,NA,NA,NA,NA,-1,"2007-06-11T08:09:04",-1
"GLP003","BW","107001486",880,"BW","Body Weight","302","g","302",302,"g",NA,NA,"Y",NA,NA,NA,1,"2007-06-12T07:32:20",1
"GLP003","BW","107001486",881,"BW","Body Weight","335","g","335",335,"g",NA,NA,NA,NA,NA,NA,8,"2007-06-19T07:51:41",8
"GLP003","BW","107001486",882,"BW","Body Weight","368","g","368",368,"g",NA,NA,NA,NA,NA,NA,15,"2007-06-26T07:42:50",15
"GLP003","BW","107001486",883,"BW","Body Weight","399","g","399",399,"g",NA,NA,NA,NA,NA,NA,22,"2007-07-03T06:45:13",22
"GLP003","BW","107001486",884,"BW","Body Weight","397","g","397",397,"g",NA,NA,NA,NA,NA,NA,29,"2007-07-10T10:58:17",29
"GLP003","BW","107001486",885,"BW","Body Weight","424","g","424",424,"g",NA,NA,NA,NA,NA,NA,36,"2007-07-17T07:40:01",36
"GLP003","BW","107001487",886,"BW","Body Weight","273","g","273",273,"g",NA,NA,NA,NA,NA,NA,-4,"2007-06-08T08:48:09",-4
"GLP003","BW","107001487",887,"BW","Body Weight","294","g","294",294,"g",NA,NA,NA,NA,NA,NA,-1,"2007-06-11T08:09:11",-1
"GLP003","BW","107001487",888,"BW","Body Weight","297","g","297",297,"g",NA,NA,"Y",NA,NA,NA,1,"2007-06-12T07:21:05",1
"GLP003","BW","107001487",889,"BW","Body Weight","332","g","332",332,"g",NA,NA,NA,NA,NA,NA,8,"2007-06-19T07:40:17",8
"GLP003","BW","107001487",890,"BW","Body Weight","359","g","359",359,"g",NA,NA,NA,NA,NA,NA,15,"2007-06-26T07:34:07",15
"GLP003","BW","107001487",891,"BW","Body Weight","388","g","388",388,"g",NA,NA,NA,NA,NA,NA,22,"2007-07-03T06:25:21",22
"GLP003","BW","107001488",892,"BW","Body Weight","258","g","258",258,"g",NA,NA,NA,NA,NA,NA,-4,"2007-06-08T08:48:16",-4
"GLP003","BW","107001488",893,"BW","Body Weight","281","g","281",281,"g",NA,NA,NA,NA,NA,NA,-1,"2007-06-11T08:09:19",-1
"GLP003","BW","107001488",894,"BW","Body Weight","290","g","290",290,"g",NA,NA,"Y",NA,NA,NA,1,"2007-06-12T07:26:22",1
"GLP003","BW","107001488",895,"BW","Body Weight","330","g","330",330,"g",NA,NA,NA,NA,NA,NA,8,"2007-06-19T07:45:02",8
"GLP003","BW","107001488",896,"BW","Body Weight","366","g","366",366,"g",NA,NA,NA,NA,NA,NA,15,"2007-06-26T07:38:27",15
"GLP003","BW","107001488",897,"BW","Body Weight","389","g","389",389,"g",NA,NA,NA,NA,NA,NA,22,"2007-07-03T06:37:57",22
"GLP003","BW","107001489",898,"BW","Body Weight","263","g","263",263,"g",NA,NA,NA,NA,NA,NA,-4,"2007-06-08T08:48:25",-4
"GLP003","BW","107001489",899,"BW","Body Weight","290","g","290",290,"g",NA,NA,NA,NA,NA,NA,-1,"2007-06-11T08:09:32",-1
"GLP003","BW","107001489",900,"BW","Body Weight","300","g","300",300,"g",NA,NA,"Y",NA,NA,NA,1,"2007-06-12T07:25:30",1
"GLP003","BW","107001489",901,"BW","Body Weight","350","g","350",350,"g",NA,NA,NA,NA,NA,NA,8,"2007-06-19T07:44:31",8
"GLP003","BW","107001489",902,"BW","Body Weight","390","g","390",390,"g",NA,NA,NA,NA,NA,NA,15,"2007-06-26T07:37:46",15
"GLP003","BW","107001489",903,"BW","Body Weight","426","g","426",426,"g",NA,NA,NA,NA,NA,NA,22,"2007-07-03T06:37:18",22
"GLP003","BW","107001490",904,"BW","Body Weight","255","g","255",255,"g",NA,NA,NA,NA,NA,NA,-4,"2007-06-08T08:48:31",-4
"GLP003","BW","107001490",905,"BW","Body Weight","280","g","280",280,"g",NA,NA,NA,NA,NA,NA,-1,"2007-06-11T08:09:40",-1
"GLP003","BW","107001490",906,"BW","Body Weight","282","g","282",282,"g",NA,NA,"Y",NA,NA,NA,1,"2007-06-12T07:20:55",1
"GLP003","BW","107001490",907,"BW","Body Weight","317","g","317",317,"g",NA,NA,NA,NA,NA,NA,8,"2007-06-19T07:39:54",8
"GLP003","BW","107001490",908,"BW","Body Weight","353","g","353",353,"g",NA,NA,NA,NA,NA,NA,15,"2007-06-26T07:33:59",15
"GLP003","BW","107001490",909,"BW","Body Weight","377","g","377",377,"g",NA,NA,NA,NA,NA,NA,22,"2007-07-03T06:24:55",22
"GLP003","BW","107001491",910,"BW","Body Weight","265","g","265",265,"g",NA,NA,NA,NA,NA,NA,-4,"2007-06-08T08:48:38",-4
"GLP003","BW","107001491",911,"BW","Body Weight","294","g","294",294,"g",NA,NA,NA,NA,NA,NA,-1,"2007-06-11T08:09:49",-1
"GLP003","BW","107001491",912,"BW","Body Weight","300","g","300",300,"g",NA,NA,"Y",NA,NA,NA,1,"2007-06-12T07:28:28",1
"GLP003","BW","107001491",913,"BW","Body Weight","341","g","341",341,"g",NA,NA,NA,NA,NA,NA,8,"2007-06-19T07:47:46",8
"GLP003","BW","107001491",914,"BW","Body Weight","377","g","377",377,"g",NA,NA,NA,NA,NA,NA,15,"2007-06-26T07:40:02",15
"GLP003","BW","107001491",915,"BW","Body Weight","416","g","416",416,"g",NA,NA,NA,NA,NA,NA,22,"2007-07-03T06:40:06",22
"GLP003","BW","107001491",916,"BW","Body Weight","432","g","432",432,"g",NA,NA,NA,NA,NA,NA,29,"2007-07-10T10:56:52",29
"GLP003","BW","107001491",917,"BW","Body Weight","464","g","464",464,"g",NA,NA,NA,NA,NA,NA,36,"2007-07-17T07:39:22",36
"GLP003","BW","107001493",918,"BW","Body Weight","274","g","274",274,"g",NA,NA,NA,NA,NA,NA,-4,"2007-06-08T08:48:52",-4
"GLP003","BW","107001493",919,"BW","Body Weight","299","g","299",299,"g",NA,NA,NA,NA,NA,NA,-1,"2007-06-11T08:10:06",-1
"GLP003","BW","107001493",920,"BW","Body Weight","307","g","307",307,"g",NA,NA,"Y",NA,NA,NA,1,"2007-06-12T07:17:53",1
"GLP003","BW","107001493",921,"BW","Body Weight","348","g","348",348,"g",NA,NA,NA,NA,NA,NA,8,"2007-06-19T07:37:34",8
"GLP003","BW","107001493",922,"BW","Body Weight","377","g","377",377,"g",NA,NA,NA,NA,NA,NA,15,"2007-06-26T07:31:58",15
"GLP003","BW","107001493",923,"BW","Body Weight","400","g","400",400,"g",NA,NA,NA,NA,NA,NA,22,"2007-07-03T06:21:08",22
"GLP003","BW","107001494",924,"BW","Body Weight","286","g","286",286,"g",NA,NA,NA,NA,NA,NA,-4,"2007-06-08T08:49:00",-4
"GLP003","BW","107001494",925,"BW","Body Weight","307","g","307",307,"g",NA,NA,NA,NA,NA,NA,-1,"2007-06-11T08:10:14",-1
"GLP003","BW","107001494",926,"BW","Body Weight","323","g","323",323,"g",NA,NA,"Y",NA,NA,NA,1,"2007-06-12T07:37:34",1
"GLP003","BW","107001494",927,"BW","Body Weight","361","g","361",361,"g",NA,NA,NA,NA,NA,NA,8,"2007-06-19T07:56:32",8
"GLP003","BW","107001494",928,"BW","Body Weight","398","g","398",398,"g",NA,NA,NA,NA,NA,NA,15,"2007-06-26T07:46:55",15
"GLP003","BW","107001494",929,"BW","Body Weight","421","g","421",421,"g",NA,NA,NA,NA,NA,NA,22,"2007-07-03T06:51:37",22
"GLP003","BW","107001495",930,"BW","Body Weight","280","g","280",280,"g",NA,NA,NA,NA,NA,NA,-4,"2007-06-08T08:49:08",-4
"GLP003","BW","107001495",931,"BW","Body Weight","306","g","306",306,"g",NA,NA,NA,NA,NA,NA,-1,"2007-06-11T08:10:24",-1
"GLP003","BW","107001495",932,"BW","Body Weight","315","g","315",315,"g",NA,NA,"Y",NA,NA,NA,1,"2007-06-12T07:35:14",1
"GLP003","BW","107001495",933,"BW","Body Weight","356","g","356",356,"g",NA,NA,NA,NA,NA,NA,8,"2007-06-19T07:54:15",8
"GLP003","BW","107001495",934,"BW","Body Weight","396","g","396",396,"g",NA,NA,NA,NA,NA,NA,15,"2007-06-26T07:44:57",15
"GLP003","BW","107001495",935,"BW","Body Weight","442","g","442",442,"g",NA,NA,NA,NA,NA,NA,22,"2007-07-03T06:48:43",22
"GLP003","BW","107001498",936,"BW","Body Weight","266","g","266",266,"g",NA,NA,NA,NA,NA,NA,-4,"2007-06-08T08:49:29",-4
"GLP003","BW","107001498",937,"BW","Body Weight","287","g","287",287,"g",NA,NA,NA,NA,NA,NA,-1,"2007-06-11T08:10:46",-1
"GLP003","BW","107001498",938,"BW","Body Weight","294","g","294",294,"g",NA,NA,"Y",NA,NA,NA,1,"2007-06-12T07:25:14",1
"GLP003","BW","107001498",939,"BW","Body Weight","323","g","323",323,"g",NA,NA,NA,NA,NA,NA,8,"2007-06-19T07:44:13",8
"GLP003","BW","107001498",940,"BW","Body Weight","337","g","337",337,"g",NA,NA,NA,NA,NA,NA,15,"2007-06-26T07:37:33",15
"GLP003","BW","107001498",941,"BW","Body Weight","378","g","378",378,"g",NA,NA,NA,NA,NA,NA,22,"2007-07-03T06:37:04",22
"GLP003","BW","107001499",942,"BW","Body Weight","198","g","198",198,"g",NA,NA,NA,NA,NA,NA,-6,"2007-06-08T09:00:45",-6
"GLP003","BW","107001499",943,"BW","Body Weight","204","g","204",204,"g",NA,NA,NA,NA,NA,NA,-3,"2007-06-11T07:40:14",-3
"GLP003","BW","107001499",944,"BW","Body Weight","217","g","217",217,"g",NA,NA,"Y",NA,NA,NA,1,"2007-06-14T06:52:38",1
"GLP003","BW","107001499",945,"BW","Body Weight","235","g","235",235,"g",NA,NA,NA,NA,NA,NA,8,"2007-06-21T08:12:23",8
"GLP003","BW","107001499",946,"BW","Body Weight","249","g","249",249,"g",NA,NA,NA,NA,NA,NA,15,"2007-06-28T07:47:38",15
"GLP003","BW","107001499",947,"BW","Body Weight","250","g","250",250,"g",NA,NA,NA,NA,NA,NA,22,"2007-07-05T07:45:52",22
"GLP003","BW","107001499",948,"BW","Body Weight","256","g","256",256,"g",NA,NA,NA,NA,NA,NA,29,"2007-07-12T09:30:17",29
"GLP003","BW","107001500",949,"BW","Body Weight","184","g","184",184,"g",NA,NA,NA,NA,NA,NA,-6,"2007-06-08T09:00:51",-6
"GLP003","BW","107001500",950,"BW","Body Weight","199","g","199",199,"g",NA,NA,NA,NA,NA,NA,-3,"2007-06-11T07:40:26",-3
"GLP003","BW","107001500",951,"BW","Body Weight","203","g","203",203,"g",NA,NA,"Y",NA,NA,NA,1,"2007-06-14T06:23:56",1
"GLP003","BW","107001500",952,"BW","Body Weight","217","g","217",217,"g",NA,NA,NA,NA,NA,NA,8,"2007-06-21T08:03:41",8
"GLP003","BW","107001500",953,"BW","Body Weight","228","g","228",228,"g",NA,NA,NA,NA,NA,NA,15,"2007-06-28T07:41:15",15
"GLP003","BW","107001500",954,"BW","Body Weight","235","g","235",235,"g",NA,NA,NA,NA,NA,NA,22,"2007-07-05T07:36:05",22
"GLP003","BW","107001502",955,"BW","Body Weight","194","g","194",194,"g",NA,NA,NA,NA,NA,NA,-6,"2007-06-08T09:01:07",-6
"GLP003","BW","107001502",956,"BW","Body Weight","207","g","207",207,"g",NA,NA,NA,NA,NA,NA,-3,"2007-06-11T07:40:42",-3
"GLP003","BW","107001502",957,"BW","Body Weight","204","g","204",204,"g",NA,NA,"Y",NA,NA,NA,1,"2007-06-14T07:02:23",1
"GLP003","BW","107001502",958,"BW","Body Weight","222","g","222",222,"g",NA,NA,NA,NA,NA,NA,8,"2007-06-21T08:20:38",8
"GLP003","BW","107001502",959,"BW","Body Weight","229","g","229",229,"g",NA,NA,NA,NA,NA,NA,15,"2007-06-28T07:57:48",15
"GLP003","BW","107001502",960,"BW","Body Weight","234","g","234",234,"g",NA,NA,NA,NA,NA,NA,22,"2007-07-05T07:57:01",22
"GLP003","BW","107001503",961,"BW","Body Weight","192","g","192",192,"g",NA,NA,NA,NA,NA,NA,-6,"2007-06-08T09:01:15",-6
"GLP003","BW","107001503",962,"BW","Body Weight","207","g","207",207,"g",NA,NA,NA,NA,NA,NA,-3,"2007-06-11T07:40:52",-3
"GLP003","BW","107001503",963,"BW","Body Weight","216","g","216",216,"g",NA,NA,"Y",NA,NA,NA,1,"2007-06-14T06:54:18",1
"GLP003","BW","107001503",964,"BW","Body Weight","230","g","230",230,"g",NA,NA,NA,NA,NA,NA,8,"2007-06-21T08:14:07",8
"GLP003","BW","107001503",965,"BW","Body Weight","246","g","246",246,"g",NA,NA,NA,NA,NA,NA,15,"2007-06-28T07:48:57",15
"GLP003","BW","107001503",966,"BW","Body Weight","248","g","248",248,"g",NA,NA,NA,NA,NA,NA,22,"2007-07-05T07:47:49",22
"GLP003","BW","107001504",967,"BW","Body Weight","185","g","185",185,"g",NA,NA,NA,NA,NA,NA,-6,"2007-06-08T09:01:22",-6
"GLP003","BW","107001504",968,"BW","Body Weight","202","g","202",202,"g",NA,NA,NA,NA,NA,NA,-3,"2007-06-11T07:41:09",-3
"GLP003","BW","107001504",969,"BW","Body Weight","209","g","209",209,"g",NA,NA,"Y",NA,NA,NA,1,"2007-06-14T07:00:33",1
"GLP003","BW","107001504",970,"BW","Body Weight","216","g","216",216,"g",NA,NA,NA,NA,NA,NA,8,"2007-06-21T08:19:09",8
"GLP003","BW","107001504",971,"BW","Body Weight","226","g","226",226,"g",NA,NA,NA,NA,NA,NA,15,"2007-06-28T07:56:28",15
"GLP003","BW","107001504",972,"BW","Body Weight","239","g","239",239,"g",NA,NA,NA,NA,NA,NA,22,"2007-07-05T07:55:07",22
"GLP003","BW","107001504",973,"BW","Body Weight","244","g","244",244,"g",NA,NA,NA,NA,NA,NA,29,"2007-07-12T09:37:33",29
"GLP003","BW","107001505",974,"BW","Body Weight","200","g","200",200,"g",NA,NA,NA,NA,NA,NA,-6,"2007-06-08T09:01:33",-6
"GLP003","BW","107001505",975,"BW","Body Weight","214","g","214",214,"g",NA,NA,NA,NA,NA,NA,-3,"2007-06-11T07:41:19",-3
"GLP003","BW","107001505",976,"BW","Body Weight","220","g","220",220,"g",NA,NA,"Y",NA,NA,NA,1,"2007-06-14T06:52:54",1
"GLP003","BW","107001505",977,"BW","Body Weight","231","g","231",231,"g",NA,NA,NA,NA,NA,NA,8,"2007-06-21T08:12:37",8
"GLP003","BW","107001505",978,"BW","Body Weight","239","g","239",239,"g",NA,NA,NA,NA,NA,NA,15,"2007-06-28T07:47:49",15
"GLP003","BW","107001505",979,"BW","Body Weight","255","g","255",255,"g",NA,NA,NA,NA,NA,NA,22,"2007-07-05T07:46:12",22
"GLP003","BW","107001505",980,"BW","Body Weight","265","g","265",265,"g",NA,NA,NA,NA,NA,NA,29,"2007-07-12T09:30:51",29
"GLP003","BW","107001508",981,"BW","Body Weight","213","g","213",213,"g",NA,NA,NA,NA,NA,NA,-6,"2007-06-08T09:01:54",-6
"GLP003","BW","107001508",982,"BW","Body Weight","220","g","220",220,"g",NA,NA,NA,NA,NA,NA,-3,"2007-06-11T07:41:43",-3
"GLP003","BW","107001508",983,"BW","Body Weight","227","g","227",227,"g",NA,NA,"Y",NA,NA,NA,1,"2007-06-14T06:56:44",1
"GLP003","BW","107001508",984,"BW","Body Weight","234","g","234",234,"g",NA,NA,NA,NA,NA,NA,8,"2007-06-21T08:15:59",8
"GLP003","BW","107001508",985,"BW","Body Weight","246","g","246",246,"g",NA,NA,NA,NA,NA,NA,15,"2007-06-28T07:52:48",15
"GLP003","BW","107001508",986,"BW","Body Weight","261","g","261",261,"g",NA,NA,NA,NA,NA,NA,22,"2007-07-05T07:50:40",22
"GLP003","BW","107001508",987,"BW","Body Weight","259","g","259",259,"g",NA,NA,NA,NA,NA,NA,29,"2007-07-12T09:34:40",29
"GLP003","BW","107001509",988,"BW","Body Weight","201","g","201",201,"g",NA,NA,NA,NA,NA,NA,-6,"2007-06-08T09:02:01",-6
"GLP003","BW","107001509",989,"BW","Body Weight","216","g","216",216,"g",NA,NA,NA,NA,NA,NA,-3,"2007-06-11T07:41:51",-3
"GLP003","BW","107001509",990,"BW","Body Weight","225","g","225",225,"g",NA,NA,"Y",NA,NA,NA,1,"2007-06-14T07:02:43",1
"GLP003","BW","107001509",991,"BW","Body Weight","227","g","227",227,"g",NA,NA,NA,NA,NA,NA,8,"2007-06-21T08:22:46",8
"GLP003","BW","107001509",992,"BW","Body Weight","237","g","237",237,"g",NA,NA,NA,NA,NA,NA,15,"2007-06-28T07:58:03",15
"GLP003","BW","107001509",993,"BW","Body Weight","253","g","253",253,"g",NA,NA,NA,NA,NA,NA,22,"2007-07-05T07:57:30",22
"GLP003","BW","107001510",994,"BW","Body Weight","207","g","207",207,"g",NA,NA,NA,NA,NA,NA,-6,"2007-06-08T09:02:09",-6
"GLP003","BW","107001510",995,"BW","Body Weight","212","g","212",212,"g",NA,NA,NA,NA,NA,NA,-3,"2007-06-11T07:41:58",-3
"GLP003","BW","107001510",996,"BW","Body Weight","219","g","219",219,"g",NA,NA,"Y",NA,NA,NA,1,"2007-06-14T07:02:32",1
"GLP003","BW","107001510",997,"BW","Body Weight","233","g","233",233,"g",NA,NA,NA,NA,NA,NA,8,"2007-06-21T08:20:47",8
"GLP003","BW","107001510",998,"BW","Body Weight","244","g","244",244,"g",NA,NA,NA,NA,NA,NA,15,"2007-06-28T07:57:56",15
"GLP003","BW","107001510",999,"BW","Body Weight","255","g","255",255,"g",NA,NA,NA,NA,NA,NA,22,"2007-07-05T07:57:23",22
"GLP003","BW","107001511",1000,"BW","Body Weight","206","g","206",206,"g",NA,NA,NA,NA,NA,NA,-6,"2007-06-08T09:02:18",-6
"GLP003","BW","107001511",1001,"BW","Body Weight","206","g","206",206,"g",NA,NA,NA,NA,NA,NA,-3,"2007-06-11T07:42:08",-3
"GLP003","BW","107001511",1002,"BW","Body Weight","215","g","215",215,"g",NA,NA,"Y",NA,NA,NA,1,"2007-06-14T06:48:26",1
"GLP003","BW","107001511",1003,"BW","Body Weight","223","g","223",223,"g",NA,NA,NA,NA,NA,NA,8,"2007-06-21T08:08:28",8
"GLP003","BW","107001511",1004,"BW","Body Weight","230","g","230",230,"g",NA,NA,NA,NA,NA,NA,15,"2007-06-28T07:44:30",15
"GLP003","BW","107001511",1005,"BW","Body Weight","232","g","232",232,"g",NA,NA,NA,NA,NA,NA,22,"2007-07-05T07:40:22",22
"GLP003","BW","107001512",1006,"BW","Body Weight","188","g","188",188,"g",NA,NA,NA,NA,NA,NA,-6,"2007-06-08T09:02:23",-6
"GLP003","BW","107001512",1007,"BW","Body Weight","203","g","203",203,"g",NA,NA,NA,NA,NA,NA,-3,"2007-06-11T07:42:15",-3
"GLP003","BW","107001512",1008,"BW","Body Weight","210","g","210",210,"g",NA,NA,"Y",NA,NA,NA,1,"2007-06-14T06:54:37",1
"GLP003","BW","107001512",1009,"BW","Body Weight","219","g","219",219,"g",NA,NA,NA,NA,NA,NA,8,"2007-06-21T08:14:26",8
"GLP003","BW","107001512",1010,"BW","Body Weight","226","g","226",226,"g",NA,NA,NA,NA,NA,NA,15,"2007-06-28T07:49:13",15
"GLP003","BW","107001512",1011,"BW","Body Weight","232","g","232",232,"g",NA,NA,NA,NA,NA,NA,22,"2007-07-05T07:48:08",22
"GLP003","BW","107001513",1012,"BW","Body Weight","195","g","195",195,"g",NA,NA,NA,NA,NA,NA,-6,"2007-06-08T09:02:32",-6
"GLP003","BW","107001513",1013,"BW","Body Weight","206","g","206",206,"g",NA,NA,NA,NA,NA,NA,-3,"2007-06-11T07:42:22",-3
"GLP003","BW","107001513",1014,"BW","Body Weight","215","g","215",215,"g",NA,NA,"Y",NA,NA,NA,1,"2007-06-14T06:49:01",1
"GLP003","BW","107001513",1015,"BW","Body Weight","225","g","225",225,"g",NA,NA,NA,NA,NA,NA,8,"2007-06-21T08:09:20",8
"GLP003","BW","107001513",1016,"BW","Body Weight","233","g","233",233,"g",NA,NA,NA,NA,NA,NA,15,"2007-06-28T07:44:53",15
"GLP003","BW","107001513",1017,"BW","Body Weight","226","g","226",226,"g",NA,NA,NA,NA,NA,NA,22,"2007-07-05T07:41:17",22
"GLP003","BW","107001513",1018,"BW","Body Weight","236","g","236",236,"g",NA,NA,NA,NA,NA,NA,29,"2007-07-12T09:27:35",29
"GLP003","BW","107001515",1019,"BW","Body Weight","204","g","204",204,"g",NA,NA,NA,NA,NA,NA,-6,"2007-06-08T09:02:41",-6
"GLP003","BW","107001515",1020,"BW","Body Weight","210","g","210",210,"g",NA,NA,NA,NA,NA,NA,-3,"2007-06-11T07:42:36",-3
"GLP003","BW","107001515",1021,"BW","Body Weight","214","g","214",214,"g",NA,NA,"Y",NA,NA,NA,1,"2007-06-14T06:56:31",1
"GLP003","BW","107001515",1022,"BW","Body Weight","221","g","221",221,"g",NA,NA,NA,NA,NA,NA,8,"2007-06-21T08:15:44",8
"GLP003","BW","107001515",1023,"BW","Body Weight","230","g","230",230,"g",NA,NA,NA,NA,NA,NA,15,"2007-06-28T07:52:37",15
"GLP003","BW","107001515",1024,"BW","Body Weight","242","g","242",242,"g",NA,NA,NA,NA,NA,NA,22,"2007-07-05T07:50:18",22
"GLP003","BW","107001515",1025,"BW","Body Weight","245","g","245",245,"g",NA,NA,NA,NA,NA,NA,29,"2007-07-12T09:33:59",29
"GLP003","BW","107001516",1026,"BW","Body Weight","202","g","202",202,"g",NA,NA,NA,NA,NA,NA,-6,"2007-06-08T09:02:48",-6
"GLP003","BW","107001516",1027,"BW","Body Weight","216","g","216",216,"g",NA,NA,NA,NA,NA,NA,-3,"2007-06-11T07:42:43",-3
"GLP003","BW","107001516",1028,"BW","Body Weight","224","g","224",224,"g",NA,NA,"Y",NA,NA,NA,1,"2007-06-14T06:46:06",1
"GLP003","BW","107001516",1029,"BW","Body Weight","224","g","224",224,"g",NA,NA,NA,NA,NA,NA,8,"2007-06-21T08:05:07",8
"GLP003","BW","107001516",1030,"BW","Body Weight","238","g","238",238,"g",NA,NA,NA,NA,NA,NA,15,"2007-06-28T07:42:39",15
"GLP003","BW","107001516",1031,"BW","Body Weight","248","g","248",248,"g",NA,NA,NA,NA,NA,NA,22,"2007-07-05T07:38:05",22
"GLP003","BW","107001517",1032,"BW","Body Weight","197","g","197",197,"g",NA,NA,NA,NA,NA,NA,-6,"2007-06-08T09:02:55",-6
"GLP003","BW","107001517",1033,"BW","Body Weight","207","g","207",207,"g",NA,NA,NA,NA,NA,NA,-3,"2007-06-11T07:42:52",-3
"GLP003","BW","107001517",1034,"BW","Body Weight","225","g","225",225,"g",NA,NA,"Y",NA,NA,NA,1,"2007-06-14T06:55:40",1
"GLP003","BW","107001517",1035,"BW","Body Weight","243","g","243",243,"g",NA,NA,NA,NA,NA,NA,8,"2007-06-21T08:14:59",8
"GLP003","BW","107001517",1036,"BW","Body Weight","247","g","247",247,"g",NA,NA,NA,NA,NA,NA,15,"2007-06-28T07:50:09",15
"GLP003","BW","107001517",1037,"BW","Body Weight","259","g","259",259,"g",NA,NA,NA,NA,NA,NA,22,"2007-07-05T07:49:01",22
"GLP003","BW","107001518",1038,"BW","Body Weight","198","g","198",198,"g",NA,NA,NA,NA,NA,NA,-6,"2007-06-08T09:03:01",-6
"GLP003","BW","107001518",1039,"BW","Body Weight","211","g","211",211,"g",NA,NA,NA,NA,NA,NA,-3,"2007-06-11T07:43:01",-3
"GLP003","BW","107001518",1040,"BW","Body Weight","219","g","219",219,"g",NA,NA,"Y",NA,NA,NA,1,"2007-06-14T06:45:41",1
"GLP003","BW","107001518",1041,"BW","Body Weight","232","g","232",232,"g",NA,NA,NA,NA,NA,NA,8,"2007-06-21T08:04:46",8
"GLP003","BW","107001518",1042,"BW","Body Weight","250","g","250",250,"g",NA,NA,NA,NA,NA,NA,15,"2007-06-28T07:42:19",15
"GLP003","BW","107001518",1043,"BW","Body Weight","262","g","262",262,"g",NA,NA,NA,NA,NA,NA,22,"2007-07-05T07:37:36",22
"GLP003","BW","107001518",1044,"BW","Body Weight","266","g","266",266,"g",NA,NA,NA,NA,NA,NA,29,"2007-07-12T09:25:33",29
"GLP003","BW","107001518",1045,"BW","Body Weight","274","g","274",274,"g",NA,NA,NA,NA,NA,NA,36,"2007-07-19T09:37:52",36
"GLP003","BW","107001519",1046,"BW","Body Weight","207","g","207",207,"g",NA,NA,NA,NA,NA,NA,-6,"2007-06-08T09:03:08",-6
"GLP003","BW","107001519",1047,"BW","Body Weight","217","g","217",217,"g",NA,NA,NA,NA,NA,NA,-3,"2007-06-11T07:43:09",-3
"GLP003","BW","107001519",1048,"BW","Body Weight","227","g","227",227,"g",NA,NA,"Y",NA,NA,NA,1,"2007-06-14T06:53:26",1
"GLP003","BW","107001519",1049,"BW","Body Weight","241","g","241",241,"g",NA,NA,NA,NA,NA,NA,8,"2007-06-21T08:13:25",8
"GLP003","BW","107001519",1050,"BW","Body Weight","254","g","254",254,"g",NA,NA,NA,NA,NA,NA,15,"2007-06-28T07:48:13",15
"GLP003","BW","107001519",1051,"BW","Body Weight","268","g","268",268,"g",NA,NA,NA,NA,NA,NA,22,"2007-07-05T07:46:49",22
"GLP003","BW","107001519",1052,"BW","Body Weight","276","g","276",276,"g",NA,NA,NA,NA,NA,NA,29,"2007-07-12T09:32:13",29
"GLP003","BW","107001519",1053,"BW","Body Weight","276","g","276",276,"g",NA,NA,NA,NA,NA,NA,36,"2007-07-19T09:40:30",36
"GLP003","BW","107001520",1054,"BW","Body Weight","196","g","196",196,"g",NA,NA,NA,NA,NA,NA,-6,"2007-06-08T09:03:18",-6
"GLP003","BW","107001520",1055,"BW","Body Weight","208","g","208",208,"g",NA,NA,NA,NA,NA,NA,-3,"2007-06-11T07:43:16",-3
"GLP003","BW","107001520",1056,"BW","Body Weight","220","g","220",220,"g",NA,NA,"Y",NA,NA,NA,1,"2007-06-14T06:51:51",1
"GLP003","BW","107001520",1057,"BW","Body Weight","231","g","231",231,"g",NA,NA,NA,NA,NA,NA,8,"2007-06-21T08:11:41",8
"GLP003","BW","107001520",1058,"BW","Body Weight","243","g","243",243,"g",NA,NA,NA,NA,NA,NA,15,"2007-06-28T07:46:56",15
"GLP003","BW","107001520",1059,"BW","Body Weight","255","g","255",255,"g",NA,NA,NA,NA,NA,NA,22,"2007-07-05T07:44:30",22
"GLP003","BW","107001521",1060,"BW","Body Weight","196","g","196",196,"g",NA,NA,NA,NA,NA,NA,-6,"2007-06-08T09:03:24",-6
"GLP003","BW","107001521",1061,"BW","Body Weight","201","g","201",201,"g",NA,NA,NA,NA,NA,NA,-3,"2007-06-11T07:43:24",-3
"GLP003","BW","107001521",1062,"BW","Body Weight","203","g","203",203,"g",NA,NA,"Y",NA,NA,NA,1,"2007-06-14T06:56:37",1
"GLP003","BW","107001521",1063,"BW","Body Weight","220","g","220",220,"g",NA,NA,NA,NA,NA,NA,8,"2007-06-21T08:15:51",8
"GLP003","BW","107001521",1064,"BW","Body Weight","229","g","229",229,"g",NA,NA,NA,NA,NA,NA,15,"2007-06-28T07:52:43",15
"GLP003","BW","107001521",1065,"BW","Body Weight","237","g","237",237,"g",NA,NA,NA,NA,NA,NA,22,"2007-07-05T07:50:27",22
"GLP003","BW","107001521",1066,"BW","Body Weight","237","g","237",237,"g",NA,NA,NA,NA,NA,NA,29,"2007-07-12T09:34:19",29
"GLP003","BW","107001522",1067,"BW","Body Weight","202","g","202",202,"g",NA,NA,NA,NA,NA,NA,-6,"2007-06-08T09:03:30",-6
"GLP003","BW","107001522",1068,"BW","Body Weight","212","g","212",212,"g",NA,NA,NA,NA,NA,NA,-3,"2007-06-11T07:43:33",-3
"GLP003","BW","107001522",1069,"BW","Body Weight","216","g","216",216,"g",NA,NA,"Y",NA,NA,NA,1,"2007-06-14T07:00:08",1
"GLP003","BW","107001522",1070,"BW","Body Weight","222","g","222",222,"g",NA,NA,NA,NA,NA,NA,8,"2007-06-21T08:18:54",8
"GLP003","BW","107001522",1071,"BW","Body Weight","236","g","236",236,"g",NA,NA,NA,NA,NA,NA,15,"2007-06-28T07:56:07",15
"GLP003","BW","107001522",1072,"BW","Body Weight","241","g","241",241,"g",NA,NA,NA,NA,NA,NA,22,"2007-07-05T07:54:33",22
"GLP003","BW","107001522",1073,"BW","Body Weight","239","g","239",239,"g",NA,NA,NA,NA,NA,NA,29,"2007-07-12T09:36:53",29
"GLP003","BW","107001523",1074,"BW","Body Weight","195","g","195",195,"g",NA,NA,NA,NA,NA,NA,-6,"2007-06-08T09:03:37",-6
"GLP003","BW","107001523",1075,"BW","Body Weight","208","g","208",208,"g",NA,NA,NA,NA,NA,NA,-3,"2007-06-11T07:43:41",-3
"GLP003","BW","107001523",1076,"BW","Body Weight","217","g","217",217,"g",NA,NA,"Y",NA,NA,NA,1,"2007-06-14T07:02:05",1
"GLP003","BW","107001523",1077,"BW","Body Weight","231","g","231",231,"g",NA,NA,NA,NA,NA,NA,8,"2007-06-21T08:20:20",8
"GLP003","BW","107001523",1078,"BW","Body Weight","253","g","253",253,"g",NA,NA,NA,NA,NA,NA,15,"2007-06-28T07:57:33",15
"GLP003","BW","107001523",1079,"BW","Body Weight","268","g","268",268,"g",NA,NA,NA,NA,NA,NA,22,"2007-07-05T07:56:41",22
"GLP003","BW","107001525",1080,"BW","Body Weight","202","g","202",202,"g",NA,NA,NA,NA,NA,NA,-6,"2007-06-08T09:03:47",-6
"GLP003","BW","107001525",1081,"BW","Body Weight","214","g","214",214,"g",NA,NA,NA,NA,NA,NA,-3,"2007-06-11T07:43:57",-3
"GLP003","BW","107001525",1082,"BW","Body Weight","223","g","223",223,"g",NA,NA,"Y",NA,NA,NA,1,"2007-06-14T06:47:37",1
"GLP003","BW","107001525",1083,"BW","Body Weight","223","g","223",223,"g",NA,NA,NA,NA,NA,NA,8,"2007-06-21T08:07:04",8
"GLP003","BW","107001525",1084,"BW","Body Weight","231","g","231",231,"g",NA,NA,NA,NA,NA,NA,15,"2007-06-28T07:44:10",15
"GLP003","BW","107001525",1085,"BW","Body Weight","238","g","238",238,"g",NA,NA,NA,NA,NA,NA,22,"2007-07-05T07:39:45",22
"GLP003","BW","107001526",1086,"BW","Body Weight","196","g","196",196,"g",NA,NA,NA,NA,NA,NA,-6,"2007-06-08T09:03:53",-6
"GLP003","BW","107001526",1087,"BW","Body Weight","204","g","204",204,"g",NA,NA,NA,NA,NA,NA,-3,"2007-06-11T07:44:04",-3
"GLP003","BW","107001526",1088,"BW","Body Weight","215","g","215",215,"g",NA,NA,"Y",NA,NA,NA,1,"2007-06-14T06:53:50",1
"GLP003","BW","107001526",1089,"BW","Body Weight","224","g","224",224,"g",NA,NA,NA,NA,NA,NA,8,"2007-06-21T08:13:38",8
"GLP003","BW","107001526",1090,"BW","Body Weight","242","g","242",242,"g",NA,NA,NA,NA,NA,NA,15,"2007-06-28T07:48:30",15
"GLP003","BW","107001526",1091,"BW","Body Weight","248","g","248",248,"g",NA,NA,NA,NA,NA,NA,22,"2007-07-05T07:47:11",22
"GLP003","BW","107001527",1092,"BW","Body Weight","195","g","195",195,"g",NA,NA,NA,NA,NA,NA,-6,"2007-06-08T09:03:59",-6
"GLP003","BW","107001527",1093,"BW","Body Weight","205","g","205",205,"g",NA,NA,NA,NA,NA,NA,-3,"2007-06-11T07:44:12",-3
"GLP003","BW","107001527",1094,"BW","Body Weight","217","g","217",217,"g",NA,NA,"Y",NA,NA,NA,1,"2007-06-14T06:54:28",1
"GLP003","BW","107001527",1095,"BW","Body Weight","218","g","218",218,"g",NA,NA,NA,NA,NA,NA,8,"2007-06-21T08:14:13",8
"GLP003","BW","107001527",1096,"BW","Body Weight","226","g","226",226,"g",NA,NA,NA,NA,NA,NA,15,"2007-06-28T07:49:07",15
"GLP003","BW","107001527",1097,"BW","Body Weight","225","g","225",225,"g",NA,NA,NA,NA,NA,NA,22,"2007-07-05T07:47:59",22
"GLP003","BW","107001528",1098,"BW","Body Weight","199","g","199",199,"g",NA,NA,NA,NA,NA,NA,-6,"2007-06-08T09:04:04",-6
"GLP003","BW","107001528",1099,"BW","Body Weight","213","g","213",213,"g",NA,NA,NA,NA,NA,NA,-3,"2007-06-11T07:44:18",-3
"GLP003","BW","107001528",1100,"BW","Body Weight","220","g","220",220,"g",NA,NA,"Y",NA,NA,NA,1,"2007-06-14T06:23:12",1
"GLP003","BW","107001528",1101,"BW","Body Weight","237","g","237",237,"g",NA,NA,NA,NA,NA,NA,8,"2007-06-21T08:03:17",8
"GLP003","BW","107001528",1102,"BW","Body Weight","248","g","248",248,"g",NA,NA,NA,NA,NA,NA,15,"2007-06-28T07:40:58",15
"GLP003","BW","107001528",1103,"BW","Body Weight","266","g","266",266,"g",NA,NA,NA,NA,NA,NA,22,"2007-07-05T07:35:36",22
"GLP003","BW","107001529",1104,"BW","Body Weight","197","g","197",197,"g",NA,NA,NA,NA,NA,NA,-6,"2007-06-08T09:04:27",-6
"GLP003","BW","107001529",1105,"BW","Body Weight","207","g","207",207,"g",NA,NA,NA,NA,NA,NA,-3,"2007-06-11T07:44:38",-3
"GLP003","BW","107001529",1106,"BW","Body Weight","205","g","205",205,"g",NA,NA,"Y",NA,NA,NA,1,"2007-06-14T06:23:06",1
"GLP003","BW","107001529",1107,"BW","Body Weight","226","g","226",226,"g",NA,NA,NA,NA,NA,NA,8,"2007-06-21T08:03:10",8
"GLP003","BW","107001529",1108,"BW","Body Weight","228","g","228",228,"g",NA,NA,NA,NA,NA,NA,15,"2007-06-28T07:40:53",15
"GLP003","BW","107001529",1109,"BW","Body Weight","231","g","231",231,"g",NA,NA,NA,NA,NA,NA,22,"2007-07-05T07:35:28",22
"GLP003","BW","107001532",1110,"BW","Body Weight","203","g","203",203,"g",NA,NA,NA,NA,NA,NA,-6,"2007-06-08T09:04:48",-6
"GLP003","BW","107001532",1111,"BW","Body Weight","219","g","219",219,"g",NA,NA,NA,NA,NA,NA,-3,"2007-06-11T07:45:03",-3
"GLP003","BW","107001532",1112,"BW","Body Weight","234","g","234",234,"g",NA,NA,"Y",NA,NA,NA,1,"2007-06-14T07:00:03",1
"GLP003","BW","107001532",1113,"BW","Body Weight","242","g","242",242,"g",NA,NA,NA,NA,NA,NA,8,"2007-06-21T08:18:46",8
"GLP003","BW","107001532",1114,"BW","Body Weight","247","g","247",247,"g",NA,NA,NA,NA,NA,NA,15,"2007-06-28T07:56:00",15
"GLP003","BW","107001532",1115,"BW","Body Weight","260","g","260",260,"g",NA,NA,NA,NA,NA,NA,22,"2007-07-05T07:54:24",22
"GLP003","BW","107001533",1116,"BW","Body Weight","199","g","199",199,"g",NA,NA,NA,NA,NA,NA,-6,"2007-06-08T09:04:55",-6
"GLP003","BW","107001533",1117,"BW","Body Weight","213","g","213",213,"g",NA,NA,NA,NA,NA,NA,-3,"2007-06-11T07:45:12",-3
"GLP003","BW","107001533",1118,"BW","Body Weight","220","g","220",220,"g",NA,NA,"Y",NA,NA,NA,1,"2007-06-14T06:59:24",1
"GLP003","BW","107001533",1119,"BW","Body Weight","231","g","231",231,"g",NA,NA,NA,NA,NA,NA,8,"2007-06-21T08:18:17",8
"GLP003","BW","107001533",1120,"BW","Body Weight","246","g","246",246,"g",NA,NA,NA,NA,NA,NA,15,"2007-06-28T07:55:24",15
"GLP003","BW","107001533",1121,"BW","Body Weight","257","g","257",257,"g",NA,NA,NA,NA,NA,NA,22,"2007-07-05T07:53:43",22
"GLP003","BW","107001534",1122,"BW","Body Weight","190","g","190",190,"g",NA,NA,NA,NA,NA,NA,-6,"2007-06-08T09:05:03",-6
"GLP003","BW","107001534",1123,"BW","Body Weight","200","g","200",200,"g",NA,NA,NA,NA,NA,NA,-3,"2007-06-11T07:45:21",-3
"GLP003","BW","107001534",1124,"BW","Body Weight","202","g","202",202,"g",NA,NA,"Y",NA,NA,NA,1,"2007-06-14T06:48:07",1
"GLP003","BW","107001534",1125,"BW","Body Weight","220","g","220",220,"g",NA,NA,NA,NA,NA,NA,8,"2007-06-21T08:07:27",8
"GLP003","BW","107001534",1126,"BW","Body Weight","240","g","240",240,"g",NA,NA,NA,NA,NA,NA,15,"2007-06-28T07:44:25",15
"GLP003","BW","107001534",1127,"BW","Body Weight","243","g","243",243,"g",NA,NA,NA,NA,NA,NA,22,"2007-07-05T07:40:12",22
"GLP003","BW","107001535",1128,"BW","Body Weight","195","g","195",195,"g",NA,NA,NA,NA,NA,NA,-6,"2007-06-08T09:05:13",-6
"GLP003","BW","107001535",1129,"BW","Body Weight","206","g","206",206,"g",NA,NA,NA,NA,NA,NA,-3,"2007-06-11T07:45:29",-3
"GLP003","BW","107001535",1130,"BW","Body Weight","223","g","223",223,"g",NA,NA,"Y",NA,NA,NA,1,"2007-06-14T06:24:11",1
"GLP003","BW","107001535",1131,"BW","Body Weight","230","g","230",230,"g",NA,NA,NA,NA,NA,NA,8,"2007-06-21T08:03:48",8
"GLP003","BW","107001535",1132,"BW","Body Weight","240","g","240",240,"g",NA,NA,NA,NA,NA,NA,15,"2007-06-28T07:41:21",15
"GLP003","BW","107001535",1133,"BW","Body Weight","256","g","256",256,"g",NA,NA,NA,NA,NA,NA,22,"2007-07-05T07:36:16",22
"GLP003","BW","107001535",1134,"BW","Body Weight","265","g","265",265,"g",NA,NA,NA,NA,NA,NA,29,"2007-07-12T09:23:03",29
"GLP003","BW","107001536",1135,"BW","Body Weight","211","g","211",211,"g",NA,NA,NA,NA,NA,NA,-6,"2007-06-08T09:05:28",-6
"GLP003","BW","107001536",1136,"BW","Body Weight","217","g","217",217,"g",NA,NA,NA,NA,NA,NA,-3,"2007-06-11T07:45:37",-3
"GLP003","BW","107001536",1137,"BW","Body Weight","227","g","227",227,"g",NA,NA,"Y",NA,NA,NA,1,"2007-06-14T07:00:39",1
"GLP003","BW","107001536",1138,"BW","Body Weight","234","g","234",234,"g",NA,NA,NA,NA,NA,NA,8,"2007-06-21T08:19:17",8
"GLP003","BW","107001536",1139,"BW","Body Weight","234","g","234",234,"g",NA,NA,NA,NA,NA,NA,15,"2007-06-28T07:56:35",15
"GLP003","BW","107001536",1140,"BW","Body Weight","228","g","228",228,"g",NA,NA,NA,NA,NA,NA,22,"2007-07-05T07:55:16",22
"GLP003","BW","107001536",1141,"BW","Body Weight","235","g","235",235,"g",NA,NA,NA,NA,NA,NA,29,"2007-07-12T09:37:52",29
"GLP003","BW","107001537",1142,"BW","Body Weight","203","g","203",203,"g",NA,NA,NA,NA,NA,NA,-6,"2007-06-08T09:05:37",-6
"GLP003","BW","107001537",1143,"BW","Body Weight","220","g","220",220,"g",NA,NA,NA,NA,NA,NA,-3,"2007-06-11T07:45:43",-3
"GLP003","BW","107001537",1144,"BW","Body Weight","227","g","227",227,"g",NA,NA,"Y",NA,NA,NA,1,"2007-06-14T06:45:17",1
"GLP003","BW","107001537",1145,"BW","Body Weight","230","g","230",230,"g",NA,NA,NA,NA,NA,NA,8,"2007-06-21T08:04:22",8
"GLP003","BW","107001537",1146,"BW","Body Weight","245","g","245",245,"g",NA,NA,NA,NA,NA,NA,15,"2007-06-28T07:41:51",15
"GLP003","BW","107001537",1147,"BW","Body Weight","258","g","258",258,"g",NA,NA,NA,NA,NA,NA,22,"2007-07-05T07:37:08",22
"GLP003","BW","107001537",1148,"BW","Body Weight","260","g","260",260,"g",NA,NA,NA,NA,NA,NA,29,"2007-07-12T09:24:32",29
"GLP003","BW","107001538",1149,"BW","Body Weight","200","g","200",200,"g",NA,NA,NA,NA,NA,NA,-6,"2007-06-08T09:05:42",-6
"GLP003","BW","107001538",1150,"BW","Body Weight","209","g","209",209,"g",NA,NA,NA,NA,NA,NA,-3,"2007-06-11T07:45:50",-3
"GLP003","BW","107001538",1151,"BW","Body Weight","214","g","214",214,"g",NA,NA,"Y",NA,NA,NA,1,"2007-06-14T06:45:47",1
"GLP003","BW","107001538",1152,"BW","Body Weight","221","g","221",221,"g",NA,NA,NA,NA,NA,NA,8,"2007-06-21T08:04:50",8
"GLP003","BW","107001538",1153,"BW","Body Weight","230","g","230",230,"g",NA,NA,NA,NA,NA,NA,15,"2007-06-28T07:42:25",15
"GLP003","BW","107001538",1154,"BW","Body Weight","243","g","243",243,"g",NA,NA,NA,NA,NA,NA,22,"2007-07-05T07:37:47",22
"GLP003","BW","107001538",1155,"BW","Body Weight","257","g","257",257,"g",NA,NA,NA,NA,NA,NA,29,"2007-07-12T09:25:48",29
"GLP003","BW","107001538",1156,"BW","Body Weight","265","g","265",265,"g",NA,NA,NA,NA,NA,NA,36,"2007-07-19T09:38:05",36
"GLP003","BW","107001540",1157,"BW","Body Weight","200","g","200",200,"g",NA,NA,NA,NA,NA,NA,-6,"2007-06-08T09:06:03",-6
"GLP003","BW","107001540",1158,"BW","Body Weight","212","g","212",212,"g",NA,NA,NA,NA,NA,NA,-3,"2007-06-11T07:46:18",-3
"GLP003","BW","107001540",1159,"BW","Body Weight","216","g","216",216,"g",NA,NA,"Y",NA,NA,NA,1,"2007-06-14T06:52:12",1
"GLP003","BW","107001540",1160,"BW","Body Weight","222","g","222",222,"g",NA,NA,NA,NA,NA,NA,8,"2007-06-21T08:12:01",8
"GLP003","BW","107001540",1161,"BW","Body Weight","240","g","240",240,"g",NA,NA,NA,NA,NA,NA,15,"2007-06-28T07:47:09",15
"GLP003","BW","107001540",1162,"BW","Body Weight","243","g","243",243,"g",NA,NA,NA,NA,NA,NA,22,"2007-07-05T07:45:22",22
"GLP003","BW","107001541",1163,"BW","Body Weight","207","g","207",207,"g",NA,NA,NA,NA,NA,NA,-6,"2007-06-08T09:06:09",-6
"GLP003","BW","107001541",1164,"BW","Body Weight","217","g","217",217,"g",NA,NA,NA,NA,NA,NA,-3,"2007-06-11T07:46:25",-3
"GLP003","BW","107001541",1165,"BW","Body Weight","226","g","226",226,"g",NA,NA,"Y",NA,NA,NA,1,"2007-06-14T06:47:47",1
"GLP003","BW","107001541",1166,"BW","Body Weight","240","g","240",240,"g",NA,NA,NA,NA,NA,NA,8,"2007-06-21T08:07:12",8
"GLP003","BW","107001541",1167,"BW","Body Weight","255","g","255",255,"g",NA,NA,NA,NA,NA,NA,15,"2007-06-28T07:44:14",15
"GLP003","BW","107001541",1168,"BW","Body Weight","259","g","259",259,"g",NA,NA,NA,NA,NA,NA,22,"2007-07-05T07:39:53",22
"GLP003","BW","107001542",1169,"BW","Body Weight","196","g","196",196,"g",NA,NA,NA,NA,NA,NA,-6,"2007-06-08T09:06:16",-6
"GLP003","BW","107001542",1170,"BW","Body Weight","215","g","215",215,"g",NA,NA,NA,NA,NA,NA,-3,"2007-06-11T07:46:35",-3
"GLP003","BW","107001542",1171,"BW","Body Weight","213","g","213",213,"g",NA,NA,"Y",NA,NA,NA,1,"2007-06-14T06:50:01",1
"GLP003","BW","107001542",1172,"BW","Body Weight","226","g","226",226,"g",NA,NA,NA,NA,NA,NA,8,"2007-06-21T08:10:17",8
"GLP003","BW","107001542",1173,"BW","Body Weight","234","g","234",234,"g",NA,NA,NA,NA,NA,NA,15,"2007-06-28T07:45:37",15
"GLP003","BW","107001542",1174,"BW","Body Weight","248","g","248",248,"g",NA,NA,NA,NA,NA,NA,22,"2007-07-05T07:42:18",22
"GLP003","BW","107001545",1175,"BW","Body Weight","205","g","205",205,"g",NA,NA,NA,NA,NA,NA,-6,"2007-06-08T09:06:34",-6
"GLP003","BW","107001545",1176,"BW","Body Weight","219","g","219",219,"g",NA,NA,NA,NA,NA,NA,-3,"2007-06-11T07:47:00",-3
"GLP003","BW","107001545",1177,"BW","Body Weight","231","g","231",231,"g",NA,NA,"Y",NA,NA,NA,1,"2007-06-14T06:55:48",1
"GLP003","BW","107001545",1178,"BW","Body Weight","238","g","238",238,"g",NA,NA,NA,NA,NA,NA,8,"2007-06-21T08:15:06",8
"GLP003","BW","107001545",1179,"BW","Body Weight","258","g","258",258,"g",NA,NA,NA,NA,NA,NA,15,"2007-06-28T07:50:17",15
"GLP003","BW","107001545",1180,"BW","Body Weight","275","g","275",275,"g",NA,NA,NA,NA,NA,NA,22,"2007-07-05T07:49:12",22
"GLP003","BW","107001546",1181,"BW","Body Weight","181","g","181",181,"g",NA,NA,NA,NA,NA,NA,-6,"2007-06-08T09:06:40",-6
"GLP003","BW","107001546",1182,"BW","Body Weight","199","g","199",199,"g",NA,NA,NA,NA,NA,NA,-3,"2007-06-11T07:47:08",-3
"GLP003","BW","107001546",1183,"BW","Body Weight","207","g","207",207,"g",NA,NA,"Y",NA,NA,NA,1,"2007-06-14T06:58:52",1
"GLP003","BW","107001546",1184,"BW","Body Weight","212","g","212",212,"g",NA,NA,NA,NA,NA,NA,8,"2007-06-21T08:17:40",8
"GLP003","BW","107001546",1185,"BW","Body Weight","225","g","225",225,"g",NA,NA,NA,NA,NA,NA,15,"2007-06-28T07:54:47",15
"GLP003","BW","107001546",1186,"BW","Body Weight","242","g","242",242,"g",NA,NA,NA,NA,NA,NA,22,"2007-07-05T07:53:06",22
"GLP003","BW","107001547",1187,"BW","Body Weight","202","g","202",202,"g",NA,NA,NA,NA,NA,NA,-6,"2007-06-08T09:06:49",-6
"GLP003","BW","107001547",1188,"BW","Body Weight","206","g","206",206,"g",NA,NA,NA,NA,NA,NA,-3,"2007-06-11T07:47:15",-3
"GLP003","BW","107001547",1189,"BW","Body Weight","206","g","206",206,"g",NA,NA,"Y",NA,NA,NA,1,"2007-06-14T06:55:57",1
"GLP003","BW","107001547",1190,"BW","Body Weight","229","g","229",229,"g",NA,NA,NA,NA,NA,NA,8,"2007-06-21T08:15:14",8
"GLP003","BW","107001547",1191,"BW","Body Weight","237","g","237",237,"g",NA,NA,NA,NA,NA,NA,15,"2007-06-28T07:50:25",15
"GLP003","BW","107001547",1192,"BW","Body Weight","244","g","244",244,"g",NA,NA,NA,NA,NA,NA,22,"2007-07-05T07:49:23",22
"GLP003","BW","107001548",1193,"BW","Body Weight","198","g","198",198,"g",NA,NA,NA,NA,NA,NA,-6,"2007-06-08T09:06:57",-6
"GLP003","BW","107001548",1194,"BW","Body Weight","211","g","211",211,"g",NA,NA,NA,NA,NA,NA,-3,"2007-06-11T07:47:25",-3
"GLP003","BW","107001548",1195,"BW","Body Weight","214","g","214",214,"g",NA,NA,"Y",NA,NA,NA,1,"2007-06-14T07:01:48",1
"GLP003","BW","107001548",1196,"BW","Body Weight","224","g","224",224,"g",NA,NA,NA,NA,NA,NA,8,"2007-06-21T08:20:13",8
"GLP003","BW","107001548",1197,"BW","Body Weight","238","g","238",238,"g",NA,NA,NA,NA,NA,NA,15,"2007-06-28T07:57:27",15
"GLP003","BW","107001548",1198,"BW","Body Weight","254","g","254",254,"g",NA,NA,NA,NA,NA,NA,22,"2007-07-05T07:56:30",22
"GLP003","BW","107001549",1199,"BW","Body Weight","204","g","204",204,"g",NA,NA,NA,NA,NA,NA,-6,"2007-06-08T09:07:05",-6
"GLP003","BW","107001549",1200,"BW","Body Weight","213","g","213",213,"g",NA,NA,NA,NA,NA,NA,-3,"2007-06-11T07:47:32",-3
"GLP003","BW","107001549",1201,"BW","Body Weight","220","g","220",220,"g",NA,NA,"Y",NA,NA,NA,1,"2007-06-14T07:02:56",1
"GLP003","BW","107001549",1202,"BW","Body Weight","220","g","220",220,"g",NA,NA,NA,NA,NA,NA,8,"2007-06-21T08:23:26",8
"GLP003","BW","107001549",1203,"BW","Body Weight","238","g","238",238,"g",NA,NA,NA,NA,NA,NA,15,"2007-06-28T07:58:15",15
"GLP003","BW","107001549",1204,"BW","Body Weight","248","g","248",248,"g",NA,NA,NA,NA,NA,NA,22,"2007-07-05T07:57:42",22
"GLP003","BW","107001550",1205,"BW","Body Weight","201","g","201",201,"g",NA,NA,NA,NA,NA,NA,-6,"2007-06-08T09:07:10",-6
"GLP003","BW","107001550",1206,"BW","Body Weight","211","g","211",211,"g",NA,NA,NA,NA,NA,NA,-3,"2007-06-11T07:47:45",-3
"GLP003","BW","107001550",1207,"BW","Body Weight","223","g","223",223,"g",NA,NA,"Y",NA,NA,NA,1,"2007-06-14T06:58:08",1
"GLP003","BW","107001550",1208,"BW","Body Weight","228","g","228",228,"g",NA,NA,NA,NA,NA,NA,8,"2007-06-21T08:17:08",8
"GLP003","BW","107001550",1209,"BW","Body Weight","246","g","246",246,"g",NA,NA,NA,NA,NA,NA,15,"2007-06-28T07:54:09",15
"GLP003","BW","107001550",1210,"BW","Body Weight","257","g","257",257,"g",NA,NA,NA,NA,NA,NA,22,"2007-07-05T07:52:17",22
"GLP003","BW","107001551",1211,"BW","Body Weight","205","g","205",205,"g",NA,NA,NA,NA,NA,NA,-6,"2007-06-08T09:07:17",-6
"GLP003","BW","107001551",1212,"BW","Body Weight","217","g","217",217,"g",NA,NA,NA,NA,NA,NA,-3,"2007-06-11T07:47:54",-3
"GLP003","BW","107001551",1213,"BW","Body Weight","229","g","229",229,"g",NA,NA,"Y",NA,NA,NA,1,"2007-06-14T06:50:25",1
"GLP003","BW","107001551",1214,"BW","Body Weight","241","g","241",241,"g",NA,NA,NA,NA,NA,NA,8,"2007-06-21T08:10:40",8
"GLP003","BW","107001551",1215,"BW","Body Weight","265","g","265",265,"g",NA,NA,NA,NA,NA,NA,15,"2007-06-28T07:45:55",15
"GLP003","BW","107001551",1216,"BW","Body Weight","272","g","272",272,"g",NA,NA,NA,NA,NA,NA,22,"2007-07-05T07:42:55",22
"GLP003","BW","107001552",1217,"BW","Body Weight","190","g","190",190,"g",NA,NA,NA,NA,NA,NA,-6,"2007-06-08T09:07:23",-6
"GLP003","BW","107001552",1218,"BW","Body Weight","202","g","202",202,"g",NA,NA,NA,NA,NA,NA,-3,"2007-06-11T07:48:02",-3
"GLP003","BW","107001552",1219,"BW","Body Weight","211","g","211",211,"g",NA,NA,"Y",NA,NA,NA,1,"2007-06-14T06:52:45",1
"GLP003","BW","107001552",1220,"BW","Body Weight","217","g","217",217,"g",NA,NA,NA,NA,NA,NA,8,"2007-06-21T08:12:30",8
"GLP003","BW","107001552",1221,"BW","Body Weight","228","g","228",228,"g",NA,NA,NA,NA,NA,NA,15,"2007-06-28T07:47:43",15
"GLP003","BW","107001552",1222,"BW","Body Weight","238","g","238",238,"g",NA,NA,NA,NA,NA,NA,22,"2007-07-05T07:46:02",22
"GLP003","BW","107001552",1223,"BW","Body Weight","239","g","239",239,"g",NA,NA,NA,NA,NA,NA,29,"2007-07-12T09:30:33",29
"GLP003","BW","107001553",1224,"BW","Body Weight","197","g","197",197,"g",NA,NA,NA,NA,NA,NA,-6,"2007-06-08T09:07:30",-6
"GLP003","BW","107001553",1225,"BW","Body Weight","205","g","205",205,"g",NA,NA,NA,NA,NA,NA,-3,"2007-06-11T07:48:12",-3
"GLP003","BW","107001553",1226,"BW","Body Weight","217","g","217",217,"g",NA,NA,"Y",NA,NA,NA,1,"2007-06-14T06:52:01",1
"GLP003","BW","107001553",1227,"BW","Body Weight","223","g","223",223,"g",NA,NA,NA,NA,NA,NA,8,"2007-06-21T08:11:49",8
"GLP003","BW","107001553",1228,"BW","Body Weight","232","g","232",232,"g",NA,NA,NA,NA,NA,NA,15,"2007-06-28T07:47:02",15
"GLP003","BW","107001553",1229,"BW","Body Weight","236","g","236",236,"g",NA,NA,NA,NA,NA,NA,22,"2007-07-05T07:45:05",22
"GLP003","BW","107001554",1230,"BW","Body Weight","193","g","193",193,"g",NA,NA,NA,NA,NA,NA,-6,"2007-06-08T09:07:37",-6
"GLP003","BW","107001554",1231,"BW","Body Weight","207","g","207",207,"g",NA,NA,NA,NA,NA,NA,-3,"2007-06-11T07:48:22",-3
"GLP003","BW","107001554",1232,"BW","Body Weight","224","g","224",224,"g",NA,NA,"Y",NA,NA,NA,1,"2007-06-14T07:01:00",1
"GLP003","BW","107001554",1233,"BW","Body Weight","239","g","239",239,"g",NA,NA,NA,NA,NA,NA,8,"2007-06-21T08:19:40",8
"GLP003","BW","107001554",1234,"BW","Body Weight","257","g","257",257,"g",NA,NA,NA,NA,NA,NA,15,"2007-06-28T07:56:55",15
"GLP003","BW","107001554",1235,"BW","Body Weight","263","g","263",263,"g",NA,NA,NA,NA,NA,NA,22,"2007-07-05T07:55:43",22
"GLP003","BW","107001554",1236,"BW","Body Weight","232","g","232",232,"g",NA,NA,NA,NA,NA,NA,29,"2007-07-12T09:39:14",29
"GLP003","BW","107001554",1237,"BW","Body Weight","267","g","267",267,"g",NA,NA,NA,NA,NA,NA,36,"2007-07-19T09:42:28",36
"GLP003","BW","107001555",1238,"BW","Body Weight","193","g","193",193,"g",NA,NA,NA,NA,NA,NA,-6,"2007-06-08T09:07:43",-6
"GLP003","BW","107001555",1239,"BW","Body Weight","202","g","202",202,"g",NA,NA,NA,NA,NA,NA,-3,"2007-06-11T07:48:28",-3
"GLP003","BW","107001555",1240,"BW","Body Weight","209","g","209",209,"g",NA,NA,"Y",NA,NA,NA,1,"2007-06-14T07:01:23",1
"GLP003","BW","107001555",1241,"BW","Body Weight","207","g","207",207,"g",NA,NA,NA,NA,NA,NA,8,"2007-06-21T08:20:00",8
"GLP003","BW","107001555",1242,"BW","Body Weight","223","g","223",223,"g",NA,NA,NA,NA,NA,NA,15,"2007-06-28T07:57:11",15
"GLP003","BW","107001555",1243,"BW","Body Weight","239","g","239",239,"g",NA,NA,NA,NA,NA,NA,22,"2007-07-05T07:56:09",22
"GLP003","BW","107001555",1244,"BW","Body Weight","246","g","246",246,"g",NA,NA,NA,NA,NA,NA,29,"2007-07-12T09:40:06",29
"GLP003","BW","107001555",1245,"BW","Body Weight","249","g","249",249,"g",NA,NA,NA,NA,NA,NA,36,"2007-07-19T09:43:01",36
"GLP003","BW","107001556",1246,"BW","Body Weight","199","g","199",199,"g",NA,NA,NA,NA,NA,NA,-6,"2007-06-08T09:07:49",-6
"GLP003","BW","107001556",1247,"BW","Body Weight","209","g","209",209,"g",NA,NA,NA,NA,NA,NA,-3,"2007-06-11T07:48:35",-3
"GLP003","BW","107001556",1248,"BW","Body Weight","206","g","206",206,"g",NA,NA,"Y",NA,NA,NA,1,"2007-06-14T06:49:08",1
"GLP003","BW","107001556",1249,"BW","Body Weight","215","g","215",215,"g",NA,NA,NA,NA,NA,NA,8,"2007-06-21T08:09:29",8
"GLP003","BW","107001556",1250,"BW","Body Weight","224","g","224",224,"g",NA,NA,NA,NA,NA,NA,15,"2007-06-28T07:45:01",15
"GLP003","BW","107001556",1251,"BW","Body Weight","233","g","233",233,"g",NA,NA,NA,NA,NA,NA,22,"2007-07-05T07:41:23",22
"GLP003","BW","107001556",1252,"BW","Body Weight","223","g","223",223,"g",NA,NA,NA,NA,NA,NA,29,"2007-07-12T09:27:55",29
"GLP003","BW","107001556",1253,"BW","Body Weight","236","g","236",236,"g",NA,NA,NA,NA,NA,NA,36,"2007-07-19T09:38:44",36
"GLP003","BW","107001557",1254,"BW","Body Weight","200","g","200",200,"g",NA,NA,NA,NA,NA,NA,-6,"2007-06-08T09:07:55",-6
"GLP003","BW","107001557",1255,"BW","Body Weight","215","g","215",215,"g",NA,NA,NA,NA,NA,NA,-3,"2007-06-11T07:48:42",-3
"GLP003","BW","107001557",1256,"BW","Body Weight","226","g","226",226,"g",NA,NA,"Y",NA,NA,NA,1,"2007-06-14T06:57:42",1
"GLP003","BW","107001557",1257,"BW","Body Weight","236","g","236",236,"g",NA,NA,NA,NA,NA,NA,8,"2007-06-21T08:16:45",8
"GLP003","BW","107001557",1258,"BW","Body Weight","258","g","258",258,"g",NA,NA,NA,NA,NA,NA,15,"2007-06-28T07:53:43",15
"GLP003","BW","107001557",1259,"BW","Body Weight","274","g","274",274,"g",NA,NA,NA,NA,NA,NA,22,"2007-07-05T07:51:45",22
"GLP003","BW","107001559",1260,"BW","Body Weight","206","g","206",206,"g",NA,NA,NA,NA,NA,NA,-6,"2007-06-08T09:08:26",-6
"GLP003","BW","107001559",1261,"BW","Body Weight","217","g","217",217,"g",NA,NA,NA,NA,NA,NA,-3,"2007-06-11T07:49:03",-3
"GLP003","BW","107001559",1262,"BW","Body Weight","224","g","224",224,"g",NA,NA,"Y",NA,NA,NA,1,"2007-06-14T06:49:23",1
"GLP003","BW","107001559",1263,"BW","Body Weight","233","g","233",233,"g",NA,NA,NA,NA,NA,NA,8,"2007-06-21T08:09:45",8
"GLP003","BW","107001559",1264,"BW","Body Weight","243","g","243",243,"g",NA,NA,NA,NA,NA,NA,15,"2007-06-28T07:45:12",15
"GLP003","BW","107001559",1265,"BW","Body Weight","258","g","258",258,"g",NA,NA,NA,NA,NA,NA,22,"2007-07-05T07:41:48",22
"GLP003","BW","107001559",1266,"BW","Body Weight","262","g","262",262,"g",NA,NA,NA,NA,NA,NA,29,"2007-07-12T09:28:37",29
"GLP003","BW","107001559",1267,"BW","Body Weight","266","g","266",266,"g",NA,NA,NA,NA,NA,NA,36,"2007-07-19T09:39:10",36
"GLP003","BW","107001561",1268,"BW","Body Weight","198","g","198",198,"g",NA,NA,NA,NA,NA,NA,-6,"2007-06-08T09:08:42",-6
"GLP003","BW","107001561",1269,"BW","Body Weight","216","g","216",216,"g",NA,NA,NA,NA,NA,NA,-3,"2007-06-11T07:49:28",-3
"GLP003","BW","107001561",1270,"BW","Body Weight","217","g","217",217,"g",NA,NA,"Y",NA,NA,NA,1,"2007-06-14T06:49:15",1
"GLP003","BW","107001561",1271,"BW","Body Weight","216","g","216",216,"g",NA,NA,NA,NA,NA,NA,8,"2007-06-21T08:09:38",8
"GLP003","BW","107001561",1272,"BW","Body Weight","226","g","226",226,"g",NA,NA,NA,NA,NA,NA,15,"2007-06-28T07:45:08",15
"GLP003","BW","107001561",1273,"BW","Body Weight","231","g","231",231,"g",NA,NA,NA,NA,NA,NA,22,"2007-07-05T07:41:38",22
"GLP003","BW","107001561",1274,"BW","Body Weight","222","g","222",222,"g",NA,NA,NA,NA,NA,NA,29,"2007-07-12T09:28:15",29
"GLP003","BW","107001561",1275,"BW","Body Weight","242","g","242",242,"g",NA,NA,NA,NA,NA,NA,36,"2007-07-19T09:38:57",36
"GLP003","BW","107001562",1276,"BW","Body Weight","198","g","198",198,"g",NA,NA,NA,NA,NA,NA,-6,"2007-06-08T09:08:47",-6
"GLP003","BW","107001562",1277,"BW","Body Weight","210","g","210",210,"g",NA,NA,NA,NA,NA,NA,-3,"2007-06-11T07:49:35",-3
"GLP003","BW","107001562",1278,"BW","Body Weight","212","g","212",212,"g",NA,NA,"Y",NA,NA,NA,1,"2007-06-14T06:52:18",1
"GLP003","BW","107001562",1279,"BW","Body Weight","222","g","222",222,"g",NA,NA,NA,NA,NA,NA,8,"2007-06-21T08:12:07",8
"GLP003","BW","107001562",1280,"BW","Body Weight","241","g","241",241,"g",NA,NA,NA,NA,NA,NA,15,"2007-06-28T07:47:14",15
"GLP003","BW","107001562",1281,"BW","Body Weight","255","g","255",255,"g",NA,NA,NA,NA,NA,NA,22,"2007-07-05T07:45:28",22
"GLP003","BW","107001562",1282,"BW","Body Weight","252","g","252",252,"g",NA,NA,NA,NA,NA,NA,29,"2007-07-12T09:29:42",29
"GLP003","BW","107001563",1283,"BW","Body Weight","207","g","207",207,"g",NA,NA,NA,NA,NA,NA,-6,"2007-06-08T09:08:55",-6
"GLP003","BW","107001563",1284,"BW","Body Weight","203","g","203",203,"g",NA,NA,NA,NA,NA,NA,-3,"2007-06-11T07:49:44",-3
"GLP003","BW","107001563",1285,"BW","Body Weight","212","g","212",212,"g",NA,NA,"Y",NA,NA,NA,1,"2007-06-14T06:49:39",1
"GLP003","BW","107001563",1286,"BW","Body Weight","226","g","226",226,"g",NA,NA,NA,NA,NA,NA,8,"2007-06-21T08:10:07",8
"GLP003","BW","107001563",1287,"BW","Body Weight","232","g","232",232,"g",NA,NA,NA,NA,NA,NA,15,"2007-06-28T07:45:24",15
"GLP003","BW","107001563",1288,"BW","Body Weight","233","g","233",233,"g",NA,NA,NA,NA,NA,NA,22,"2007-07-05T07:42:06",22
"GLP003","BW","107001563",1289,"BW","Body Weight","241","g","241",241,"g",NA,NA,NA,NA,NA,NA,29,"2007-07-12T09:29:11",29
"GLP003","BW","107001563",1290,"BW","Body Weight","241","g","241",241,"g",NA,NA,NA,NA,NA,NA,36,"2007-07-19T09:39:34",36
"GLP003","BW","107001564",1291,"BW","Body Weight","210","g","210",210,"g",NA,NA,NA,NA,NA,NA,-6,"2007-06-08T09:09:02",-6
"GLP003","BW","107001564",1292,"BW","Body Weight","219","g","219",219,"g",NA,NA,NA,NA,NA,NA,-3,"2007-06-11T07:49:52",-3
"GLP003","BW","107001564",1293,"BW","Body Weight","227","g","227",227,"g",NA,NA,"Y",NA,NA,NA,1,"2007-06-14T06:54:03",1
"GLP003","BW","107001564",1294,"BW","Body Weight","227","g","227",227,"g",NA,NA,NA,NA,NA,NA,8,"2007-06-21T08:13:51",8
"GLP003","BW","107001564",1295,"BW","Body Weight","246","g","246",246,"g",NA,NA,NA,NA,NA,NA,15,"2007-06-28T07:48:41",15
"GLP003","BW","107001564",1296,"BW","Body Weight","245","g","245",245,"g",NA,NA,NA,NA,NA,NA,22,"2007-07-05T07:47:28",22
"GLP003","BW","107001565",1297,"BW","Body Weight","193","g","193",193,"g",NA,NA,NA,NA,NA,NA,-6,"2007-06-08T09:09:12",-6
"GLP003","BW","107001565",1298,"BW","Body Weight","202","g","202",202,"g",NA,NA,NA,NA,NA,NA,-3,"2007-06-11T07:50:03",-3
"GLP003","BW","107001565",1299,"BW","Body Weight","208","g","208",208,"g",NA,NA,"Y",NA,NA,NA,1,"2007-06-14T06:56:14",1
"GLP003","BW","107001565",1300,"BW","Body Weight","213","g","213",213,"g",NA,NA,NA,NA,NA,NA,8,"2007-06-21T08:15:28",8
"GLP003","BW","107001565",1301,"BW","Body Weight","223","g","223",223,"g",NA,NA,NA,NA,NA,NA,15,"2007-06-28T07:52:24",15
"GLP003","BW","107001565",1302,"BW","Body Weight","224","g","224",224,"g",NA,NA,NA,NA,NA,NA,22,"2007-07-05T07:49:43",22
"GLP003","BW","107001565",1303,"BW","Body Weight","221","g","221",221,"g",NA,NA,NA,NA,NA,NA,29,"2007-07-12T09:33:17",29
"GLP003","BW","107001566",1304,"BW","Body Weight","200","g","200",200,"g",NA,NA,NA,NA,NA,NA,-6,"2007-06-08T09:09:17",-6
"GLP003","BW","107001566",1305,"BW","Body Weight","213","g","213",213,"g",NA,NA,NA,NA,NA,NA,-3,"2007-06-11T07:50:14",-3
"GLP003","BW","107001566",1306,"BW","Body Weight","219","g","219",219,"g",NA,NA,"Y",NA,NA,NA,1,"2007-06-14T06:57:02",1
"GLP003","BW","107001566",1307,"BW","Body Weight","217","g","217",217,"g",NA,NA,NA,NA,NA,NA,8,"2007-06-21T08:16:17",8
"GLP003","BW","107001566",1308,"BW","Body Weight","226","g","226",226,"g",NA,NA,NA,NA,NA,NA,15,"2007-06-28T07:53:09",15
"GLP003","BW","107001566",1309,"BW","Body Weight","232","g","232",232,"g",NA,NA,NA,NA,NA,NA,22,"2007-07-05T07:50:59",22
"GLP003","BW","107001566",1310,"BW","Body Weight","219","g","219",219,"g",NA,NA,NA,NA,NA,NA,29,"2007-07-12T09:35:24",29
"GLP003","BW","107001566",1311,"BW","Body Weight","236","g","236",236,"g",NA,NA,NA,NA,NA,NA,36,"2007-07-19T09:41:24",36
"GLP003","BW","107001569",1312,"BW","Body Weight","199","g","199",199,"g",NA,NA,NA,NA,NA,NA,-6,"2007-06-08T09:09:36",-6
"GLP003","BW","107001569",1313,"BW","Body Weight","216","g","216",216,"g",NA,NA,NA,NA,NA,NA,-3,"2007-06-11T07:50:37",-3
"GLP003","BW","107001569",1314,"BW","Body Weight","229","g","229",229,"g",NA,NA,"Y",NA,NA,NA,1,"2007-06-14T06:45:08",1
"GLP003","BW","107001569",1315,"BW","Body Weight","242","g","242",242,"g",NA,NA,NA,NA,NA,NA,8,"2007-06-21T08:04:14",8
"GLP003","BW","107001569",1316,"BW","Body Weight","246","g","246",246,"g",NA,NA,NA,NA,NA,NA,15,"2007-06-28T07:41:43",15
"GLP003","BW","107001569",1317,"BW","Body Weight","261","g","261",261,"g",NA,NA,NA,NA,NA,NA,22,"2007-07-05T07:36:55",22
"GLP003","BW","107001569",1318,"BW","Body Weight","267","g","267",267,"g",NA,NA,NA,NA,NA,NA,29,"2007-07-12T09:24:15",29
"GLP003","BW","107001570",1319,"BW","Body Weight","205","g","205",205,"g",NA,NA,NA,NA,NA,NA,-6,"2007-06-08T09:09:44",-6
"GLP003","BW","107001570",1320,"BW","Body Weight","219","g","219",219,"g",NA,NA,NA,NA,NA,NA,-3,"2007-06-11T07:50:44",-3
"GLP003","BW","107001570",1321,"BW","Body Weight","227","g","227",227,"g",NA,NA,"Y",NA,NA,NA,1,"2007-06-14T06:51:36",1
"GLP003","BW","107001570",1322,"BW","Body Weight","242","g","242",242,"g",NA,NA,NA,NA,NA,NA,8,"2007-06-21T08:11:28",8
"GLP003","BW","107001570",1323,"BW","Body Weight","254","g","254",254,"g",NA,NA,NA,NA,NA,NA,15,"2007-06-28T07:46:43",15
"GLP003","BW","107001570",1324,"BW","Body Weight","265","g","265",265,"g",NA,NA,NA,NA,NA,NA,22,"2007-07-05T07:44:12",22
"GLP003","BW","107001571",1325,"BW","Body Weight","202","g","202",202,"g",NA,NA,NA,NA,NA,NA,-6,"2007-06-08T09:09:53",-6
"GLP003","BW","107001571",1326,"BW","Body Weight","216","g","216",216,"g",NA,NA,NA,NA,NA,NA,-3,"2007-06-11T07:50:52",-3
"GLP003","BW","107001571",1327,"BW","Body Weight","217","g","217",217,"g",NA,NA,"Y",NA,NA,NA,1,"2007-06-14T06:59:54",1
"GLP003","BW","107001571",1328,"BW","Body Weight","218","g","218",218,"g",NA,NA,NA,NA,NA,NA,8,"2007-06-21T08:18:39",8
"GLP003","BW","107001571",1329,"BW","Body Weight","229","g","229",229,"g",NA,NA,NA,NA,NA,NA,15,"2007-06-28T07:55:52",15
"GLP003","BW","107001571",1330,"BW","Body Weight","239","g","239",239,"g",NA,NA,NA,NA,NA,NA,22,"2007-07-05T07:54:13",22
"GLP003","BW","107001572",1331,"BW","Body Weight","208","g","208",208,"g",NA,NA,NA,NA,NA,NA,-6,"2007-06-08T09:09:59",-6
"GLP003","BW","107001572",1332,"BW","Body Weight","213","g","213",213,"g",NA,NA,NA,NA,NA,NA,-3,"2007-06-11T07:51:00",-3
"GLP003","BW","107001572",1333,"BW","Body Weight","219","g","219",219,"g",NA,NA,"Y",NA,NA,NA,1,"2007-06-14T06:57:51",1
"GLP003","BW","107001572",1334,"BW","Body Weight","231","g","231",231,"g",NA,NA,NA,NA,NA,NA,8,"2007-06-21T08:16:53",8
"GLP003","BW","107001572",1335,"BW","Body Weight","240","g","240",240,"g",NA,NA,NA,NA,NA,NA,15,"2007-06-28T07:53:53",15
"GLP003","BW","107001572",1336,"BW","Body Weight","245","g","245",245,"g",NA,NA,NA,NA,NA,NA,22,"2007-07-05T07:51:57",22
"GLP003","BW","107001573",1337,"BW","Body Weight","202","g","202",202,"g",NA,NA,NA,NA,NA,NA,-6,"2007-06-08T09:10:06",-6
"GLP003","BW","107001573",1338,"BW","Body Weight","214","g","214",214,"g",NA,NA,NA,NA,NA,NA,-3,"2007-06-11T07:51:08",-3
"GLP003","BW","107001573",1339,"BW","Body Weight","223","g","223",223,"g",NA,NA,"Y",NA,NA,NA,1,"2007-06-14T06:46:53",1
"GLP003","BW","107001573",1340,"BW","Body Weight","230","g","230",230,"g",NA,NA,NA,NA,NA,NA,8,"2007-06-21T08:05:36",8
"GLP003","BW","107001573",1341,"BW","Body Weight","230","g","230",230,"g",NA,NA,NA,NA,NA,NA,15,"2007-06-28T07:43:06",15
"GLP003","BW","107001573",1342,"BW","Body Weight","237","g","237",237,"g",NA,NA,NA,NA,NA,NA,22,"2007-07-05T07:38:45",22
"GLP003","BW","107001574",1343,"BW","Body Weight","198","g","198",198,"g",NA,NA,NA,NA,NA,NA,-6,"2007-06-08T09:10:11",-6
"GLP003","BW","107001574",1344,"BW","Body Weight","210","g","210",210,"g",NA,NA,NA,NA,NA,NA,-3,"2007-06-11T07:51:15",-3
"GLP003","BW","107001574",1345,"BW","Body Weight","220","g","220",220,"g",NA,NA,"Y",NA,NA,NA,1,"2007-06-14T06:53:20",1
"GLP003","BW","107001574",1346,"BW","Body Weight","236","g","236",236,"g",NA,NA,NA,NA,NA,NA,8,"2007-06-21T08:13:18",8
"GLP003","BW","107001574",1347,"BW","Body Weight","254","g","254",254,"g",NA,NA,NA,NA,NA,NA,15,"2007-06-28T07:48:07",15
"GLP003","BW","107001574",1348,"BW","Body Weight","259","g","259",259,"g",NA,NA,NA,NA,NA,NA,22,"2007-07-05T07:46:39",22
"GLP003","BW","107001574",1349,"BW","Body Weight","256","g","256",256,"g",NA,NA,NA,NA,NA,NA,29,"2007-07-12T09:31:53",29
"GLP003","BW","107001574",1350,"BW","Body Weight","265","g","265",265,"g",NA,NA,NA,NA,NA,NA,36,"2007-07-19T09:40:16",36
"GLP003","BW","107001575",1351,"BW","Body Weight","199","g","199",199,"g",NA,NA,NA,NA,NA,NA,-6,"2007-06-08T09:10:17",-6
"GLP003","BW","107001575",1352,"BW","Body Weight","217","g","217",217,"g",NA,NA,NA,NA,NA,NA,-3,"2007-06-11T07:51:21",-3
"GLP003","BW","107001575",1353,"BW","Body Weight","225","g","225",225,"g",NA,NA,"Y",NA,NA,NA,1,"2007-06-14T06:54:10",1
"GLP003","BW","107001575",1354,"BW","Body Weight","229","g","229",229,"g",NA,NA,NA,NA,NA,NA,8,"2007-06-21T08:13:59",8
"GLP003","BW","107001575",1355,"BW","Body Weight","237","g","237",237,"g",NA,NA,NA,NA,NA,NA,15,"2007-06-28T07:48:48",15
"GLP003","BW","107001575",1356,"BW","Body Weight","245","g","245",245,"g",NA,NA,NA,NA,NA,NA,22,"2007-07-05T07:47:39",22
"GLP003","BW","107001576",1357,"BW","Body Weight","197","g","197",197,"g",NA,NA,NA,NA,NA,NA,-6,"2007-06-08T09:10:23",-6
"GLP003","BW","107001576",1358,"BW","Body Weight","212","g","212",212,"g",NA,NA,NA,NA,NA,NA,-3,"2007-06-11T07:51:29",-3
"GLP003","BW","107001576",1359,"BW","Body Weight","223","g","223",223,"g",NA,NA,"Y",NA,NA,NA,1,"2007-06-14T06:23:18",1
"GLP003","BW","107001576",1360,"BW","Body Weight","232","g","232",232,"g",NA,NA,NA,NA,NA,NA,8,"2007-06-21T08:03:23",8
"GLP003","BW","107001576",1361,"BW","Body Weight","235","g","235",235,"g",NA,NA,NA,NA,NA,NA,15,"2007-06-28T07:41:05",15
"GLP003","BW","107001576",1362,"BW","Body Weight","249","g","249",249,"g",NA,NA,NA,NA,NA,NA,22,"2007-07-05T07:35:49",22
"GLP003","BW","107001577",1363,"BW","Body Weight","187","g","187",187,"g",NA,NA,NA,NA,NA,NA,-6,"2007-06-08T09:10:30",-6
"GLP003","BW","107001577",1364,"BW","Body Weight","199","g","199",199,"g",NA,NA,NA,NA,NA,NA,-3,"2007-06-11T07:51:37",-3
"GLP003","BW","107001577",1365,"BW","Body Weight","205","g","205",205,"g",NA,NA,"Y",NA,NA,NA,1,"2007-06-14T06:50:18",1
"GLP003","BW","107001577",1366,"BW","Body Weight","212","g","212",212,"g",NA,NA,NA,NA,NA,NA,8,"2007-06-21T08:10:31",8
"GLP003","BW","107001577",1367,"BW","Body Weight","236","g","236",236,"g",NA,NA,NA,NA,NA,NA,15,"2007-06-28T07:45:49",15
"GLP003","BW","107001577",1368,"BW","Body Weight","246","g","246",246,"g",NA,NA,NA,NA,NA,NA,22,"2007-07-05T07:42:43",22
"GLP003","BW","107001578",1369,"BW","Body Weight","198","g","198",198,"g",NA,NA,NA,NA,NA,NA,-6,"2007-06-08T09:10:37",-6
"GLP003","BW","107001578",1370,"BW","Body Weight","209","g","209",209,"g",NA,NA,NA,NA,NA,NA,-3,"2007-06-11T07:51:46",-3
"GLP003","BW","107001578",1371,"BW","Body Weight","218","g","218",218,"g",NA,NA,"Y",NA,NA,NA,1,"2007-06-14T06:59:45",1
"GLP003","BW","107001578",1372,"BW","Body Weight","230","g","230",230,"g",NA,NA,NA,NA,NA,NA,8,"2007-06-21T08:18:30",8
"GLP003","BW","107001578",1373,"BW","Body Weight","246","g","246",246,"g",NA,NA,NA,NA,NA,NA,15,"2007-06-28T07:55:44",15
"GLP003","BW","107001578",1374,"BW","Body Weight","257","g","257",257,"g",NA,NA,NA,NA,NA,NA,22,"2007-07-05T07:54:03",22
"GLP003","BW","107001579",1375,"BW","Body Weight","191","g","191",191,"g",NA,NA,NA,NA,NA,NA,-6,"2007-06-08T09:10:44",-6
"GLP003","BW","107001579",1376,"BW","Body Weight","204","g","204",204,"g",NA,NA,NA,NA,NA,NA,-3,"2007-06-11T07:51:54",-3
"GLP003","BW","107001579",1377,"BW","Body Weight","217","g","217",217,"g",NA,NA,"Y",NA,NA,NA,1,"2007-06-14T06:47:59",1
"GLP003","BW","107001579",1378,"BW","Body Weight","228","g","228",228,"g",NA,NA,NA,NA,NA,NA,8,"2007-06-21T08:07:21",8
"GLP003","BW","107001579",1379,"BW","Body Weight","246","g","246",246,"g",NA,NA,NA,NA,NA,NA,15,"2007-06-28T07:44:19",15
"GLP003","BW","107001579",1380,"BW","Body Weight","246","g","246",246,"g",NA,NA,NA,NA,NA,NA,22,"2007-07-05T07:40:04",22
"GLP003","BW","107001580",1381,"BW","Body Weight","206","g","206",206,"g",NA,NA,NA,NA,NA,NA,-6,"2007-06-08T09:10:49",-6
"GLP003","BW","107001580",1382,"BW","Body Weight","218","g","218",218,"g",NA,NA,NA,NA,NA,NA,-3,"2007-06-11T07:52:03",-3
"GLP003","BW","107001580",1383,"BW","Body Weight","221","g","221",221,"g",NA,NA,"Y",NA,NA,NA,1,"2007-06-14T06:46:37",1
"GLP003","BW","107001580",1384,"BW","Body Weight","225","g","225",225,"g",NA,NA,NA,NA,NA,NA,8,"2007-06-21T08:05:26",8
"GLP003","BW","107001580",1385,"BW","Body Weight","240","g","240",240,"g",NA,NA,NA,NA,NA,NA,15,"2007-06-28T07:42:54",15
"GLP003","BW","107001580",1386,"BW","Body Weight","250","g","250",250,"g",NA,NA,NA,NA,NA,NA,22,"2007-07-05T07:38:26",22
"GLP003","BW","107001581",1387,"BW","Body Weight","195","g","195",195,"g",NA,NA,NA,NA,NA,NA,-6,"2007-06-08T09:10:56",-6
"GLP003","BW","107001581",1388,"BW","Body Weight","201","g","201",201,"g",NA,NA,NA,NA,NA,NA,-3,"2007-06-11T07:52:10",-3
"GLP003","BW","107001581",1389,"BW","Body Weight","208","g","208",208,"g",NA,NA,"Y",NA,NA,NA,1,"2007-06-14T06:45:55",1
"GLP003","BW","107001581",1390,"BW","Body Weight","231","g","231",231,"g",NA,NA,NA,NA,NA,NA,8,"2007-06-21T08:04:59",8
"GLP003","BW","107001581",1391,"BW","Body Weight","247","g","247",247,"g",NA,NA,NA,NA,NA,NA,15,"2007-06-28T07:42:31",15
"GLP003","BW","107001581",1392,"BW","Body Weight","255","g","255",255,"g",NA,NA,NA,NA,NA,NA,22,"2007-07-05T07:37:56",22
"GLP003","BW","107001581",1393,"BW","Body Weight","264","g","264",264,"g",NA,NA,NA,NA,NA,NA,29,"2007-07-12T09:26:06",29
"GLP003","BW","107001581",1394,"BW","Body Weight","270","g","270",270,"g",NA,NA,NA,NA,NA,NA,36,"2007-07-19T09:38:17",36
"GLP003","BW","107001583",1395,"BW","Body Weight","207","g","207",207,"g",NA,NA,NA,NA,NA,NA,-6,"2007-06-08T09:11:10",-6
"GLP003","BW","107001583",1396,"BW","Body Weight","208","g","208",208,"g",NA,NA,NA,NA,NA,NA,-3,"2007-06-11T07:52:26",-3
"GLP003","BW","107001583",1397,"BW","Body Weight","222","g","222",222,"g",NA,NA,"Y",NA,NA,NA,1,"2007-06-14T06:55:31",1
"GLP003","BW","107001583",1398,"BW","Body Weight","234","g","234",234,"g",NA,NA,NA,NA,NA,NA,8,"2007-06-21T08:14:52",8
"GLP003","BW","107001583",1399,"BW","Body Weight","244","g","244",244,"g",NA,NA,NA,NA,NA,NA,15,"2007-06-28T07:49:59",15
"GLP003","BW","107001583",1400,"BW","Body Weight","251","g","251",251,"g",NA,NA,NA,NA,NA,NA,22,"2007-07-05T07:48:53",22
"GLP003","BW","107001584",1401,"BW","Body Weight","207","g","207",207,"g",NA,NA,NA,NA,NA,NA,-6,"2007-06-08T09:11:16",-6
"GLP003","BW","107001584",1402,"BW","Body Weight","216","g","216",216,"g",NA,NA,NA,NA,NA,NA,-3,"2007-06-11T07:52:35",-3
"GLP003","BW","107001584",1403,"BW","Body Weight","216","g","216",216,"g",NA,NA,"Y",NA,NA,NA,1,"2007-06-14T06:56:52",1
"GLP003","BW","107001584",1404,"BW","Body Weight","238","g","238",238,"g",NA,NA,NA,NA,NA,NA,8,"2007-06-21T08:16:09",8
"GLP003","BW","107001584",1405,"BW","Body Weight","244","g","244",244,"g",NA,NA,NA,NA,NA,NA,15,"2007-06-28T07:52:54",15
"GLP003","BW","107001584",1406,"BW","Body Weight","250","g","250",250,"g",NA,NA,NA,NA,NA,NA,22,"2007-07-05T07:50:51",22
"GLP003","BW","107001584",1407,"BW","Body Weight","244","g","244",244,"g",NA,NA,NA,NA,NA,NA,29,"2007-07-12T09:35:01",29
"GLP003","BW","107001584",1408,"BW","Body Weight","256","g","256",256,"g",NA,NA,NA,NA,NA,NA,36,"2007-07-19T09:41:07",36
"GLP003","BW","107001586",1409,"BW","Body Weight","199","g","199",199,"g",NA,NA,NA,NA,NA,NA,-6,"2007-06-08T09:11:28",-6
"GLP003","BW","107001586",1410,"BW","Body Weight","218","g","218",218,"g",NA,NA,NA,NA,NA,NA,-3,"2007-06-11T07:52:50",-3
"GLP003","BW","107001586",1411,"BW","Body Weight","226","g","226",226,"g",NA,NA,"Y",NA,NA,NA,1,"2007-06-14T06:58:43",1
"GLP003","BW","107001586",1412,"BW","Body Weight","234","g","234",234,"g",NA,NA,NA,NA,NA,NA,8,"2007-06-21T08:17:34",8
"GLP003","BW","107001586",1413,"BW","Body Weight","238","g","238",238,"g",NA,NA,NA,NA,NA,NA,15,"2007-06-28T07:54:40",15
"GLP003","BW","107001586",1414,"BW","Body Weight","247","g","247",247,"g",NA,NA,NA,NA,NA,NA,22,"2007-07-05T07:52:53",22
"GLP003","BW","107001587",1415,"BW","Body Weight","193","g","193",193,"g",NA,NA,NA,NA,NA,NA,-6,"2007-06-08T09:11:35",-6
"GLP003","BW","107001587",1416,"BW","Body Weight","211","g","211",211,"g",NA,NA,NA,NA,NA,NA,-3,"2007-06-11T07:53:02",-3
"GLP003","BW","107001587",1417,"BW","Body Weight","223","g","223",223,"g",NA,NA,"Y",NA,NA,NA,1,"2007-06-14T06:57:21",1
"GLP003","BW","107001587",1418,"BW","Body Weight","232","g","232",232,"g",NA,NA,NA,NA,NA,NA,8,"2007-06-21T08:16:32",8
"GLP003","BW","107001587",1419,"BW","Body Weight","237","g","237",237,"g",NA,NA,NA,NA,NA,NA,15,"2007-06-28T07:53:22",15
"GLP003","BW","107001587",1420,"BW","Body Weight","250","g","250",250,"g",NA,NA,NA,NA,NA,NA,22,"2007-07-05T07:51:23",22
"GLP003","BW","107001587",1421,"BW","Body Weight","260","g","260",260,"g",NA,NA,NA,NA,NA,NA,29,"2007-07-12T09:36:05",29
"GLP003","BW","107001587",1422,"BW","Body Weight","265","g","265",265,"g",NA,NA,NA,NA,NA,NA,36,"2007-07-19T09:41:49",36
"GLP003","BW","107001588",1423,"BW","Body Weight","196","g","196",196,"g",NA,NA,NA,NA,NA,NA,-6,"2007-06-08T09:11:40",-6
"GLP003","BW","107001588",1424,"BW","Body Weight","208","g","208",208,"g",NA,NA,NA,NA,NA,NA,-3,"2007-06-11T07:53:08",-3
"GLP003","BW","107001588",1425,"BW","Body Weight","212","g","212",212,"g",NA,NA,"Y",NA,NA,NA,1,"2007-06-14T07:01:35",1
"GLP003","BW","107001588",1426,"BW","Body Weight","224","g","224",224,"g",NA,NA,NA,NA,NA,NA,8,"2007-06-21T08:20:05",8
"GLP003","BW","107001588",1427,"BW","Body Weight","228","g","228",228,"g",NA,NA,NA,NA,NA,NA,15,"2007-06-28T07:57:18",15
"GLP003","BW","107001588",1428,"BW","Body Weight","236","g","236",236,"g",NA,NA,NA,NA,NA,NA,22,"2007-07-05T07:56:19",22
"GLP003","BW","107001588",1429,"BW","Body Weight","241","g","241",241,"g",NA,NA,NA,NA,NA,NA,29,"2007-07-12T09:40:27",29
"GLP003","BW","107001588",1430,"BW","Body Weight","243","g","243",243,"g",NA,NA,NA,NA,NA,NA,36,"2007-07-19T09:43:13",36
"GLP003","BW","107001589",1431,"BW","Body Weight","187","g","187",187,"g",NA,NA,NA,NA,NA,NA,-6,"2007-06-08T09:12:05",-6
"GLP003","BW","107001589",1432,"BW","Body Weight","199","g","199",199,"g",NA,NA,NA,NA,NA,NA,-3,"2007-06-11T07:53:38",-3
"GLP003","BW","107001589",1433,"BW","Body Weight","209","g","209",209,"g",NA,NA,"Y",NA,NA,NA,1,"2007-06-14T06:53:37",1
"GLP003","BW","107001589",1434,"BW","Body Weight","226","g","226",226,"g",NA,NA,NA,NA,NA,NA,8,"2007-06-21T08:13:32",8
"GLP003","BW","107001589",1435,"BW","Body Weight","238","g","238",238,"g",NA,NA,NA,NA,NA,NA,15,"2007-06-28T07:48:18",15
"GLP003","BW","107001589",1436,"BW","Body Weight","248","g","248",248,"g",NA,NA,NA,NA,NA,NA,22,"2007-07-05T07:46:58",22
"GLP003","BW","107001589",1437,"BW","Body Weight","258","g","258",258,"g",NA,NA,NA,NA,NA,NA,29,"2007-07-12T09:32:37",29
"GLP003","BW","107001589",1438,"BW","Body Weight","259","g","259",259,"g",NA,NA,NA,NA,NA,NA,36,"2007-07-19T09:40:43",36
"GLP003","BW","107001590",1439,"BW","Body Weight","201","g","201",201,"g",NA,NA,NA,NA,NA,NA,-6,"2007-06-08T09:13:35",-6
"GLP003","BW","107001590",1440,"BW","Body Weight","212","g","212",212,"g",NA,NA,NA,NA,NA,NA,-3,"2007-06-11T07:53:45",-3
"GLP003","BW","107001590",1441,"BW","Body Weight","213","g","213",213,"g",NA,NA,"Y",NA,NA,NA,1,"2007-06-14T06:54:51",1
"GLP003","BW","107001590",1442,"BW","Body Weight","225","g","225",225,"g",NA,NA,NA,NA,NA,NA,8,"2007-06-21T08:14:37",8
"GLP003","BW","107001590",1443,"BW","Body Weight","240","g","240",240,"g",NA,NA,NA,NA,NA,NA,15,"2007-06-28T07:49:24",15
"GLP003","BW","107001590",1444,"BW","Body Weight","245","g","245",245,"g",NA,NA,NA,NA,NA,NA,22,"2007-07-05T07:48:26",22
"GLP003","BW","107001591",1445,"BW","Body Weight","198","g","198",198,"g",NA,NA,NA,NA,NA,NA,-6,"2007-06-08T09:13:58",-6
"GLP003","BW","107001591",1446,"BW","Body Weight","209","g","209",209,"g",NA,NA,NA,NA,NA,NA,-3,"2007-06-11T07:53:55",-3
"GLP003","BW","107001591",1447,"BW","Body Weight","217","g","217",217,"g",NA,NA,"Y",NA,NA,NA,1,"2007-06-14T07:03:16",1
"GLP003","BW","107001591",1448,"BW","Body Weight","228","g","228",228,"g",NA,NA,NA,NA,NA,NA,8,"2007-06-21T08:23:41",8
"GLP003","BW","107001591",1449,"BW","Body Weight","248","g","248",248,"g",NA,NA,NA,NA,NA,NA,15,"2007-06-28T07:58:30",15
"GLP003","BW","107001591",1450,"BW","Body Weight","256","g","256",256,"g",NA,NA,NA,NA,NA,NA,22,"2007-07-05T07:58:00",22
"GLP003","BW","107001592",1451,"BW","Body Weight","188","g","188",188,"g",NA,NA,NA,NA,NA,NA,-6,"2007-06-08T09:14:03",-6
"GLP003","BW","107001592",1452,"BW","Body Weight","204","g","204",204,"g",NA,NA,NA,NA,NA,NA,-3,"2007-06-11T07:54:01",-3
"GLP003","BW","107001592",1453,"BW","Body Weight","207","g","207",207,"g",NA,NA,"Y",NA,NA,NA,1,"2007-06-14T06:24:28",1
"GLP003","BW","107001592",1454,"BW","Body Weight","218","g","218",218,"g",NA,NA,NA,NA,NA,NA,8,"2007-06-21T08:04:06",8
"GLP003","BW","107001592",1455,"BW","Body Weight","231","g","231",231,"g",NA,NA,NA,NA,NA,NA,15,"2007-06-28T07:41:36",15
"GLP003","BW","107001592",1456,"BW","Body Weight","237","g","237",237,"g",NA,NA,NA,NA,NA,NA,22,"2007-07-05T07:36:41",22
"GLP003","BW","107001592",1457,"BW","Body Weight","232","g","232",232,"g",NA,NA,NA,NA,NA,NA,29,"2007-07-12T09:23:58",29
"GLP003","BW","107001593",1458,"BW","Body Weight","192","g","192",192,"g",NA,NA,NA,NA,NA,NA,-6,"2007-06-08T09:14:12",-6
"GLP003","BW","107001593",1459,"BW","Body Weight","199","g","199",199,"g",NA,NA,NA,NA,NA,NA,-3,"2007-06-11T07:54:09",-3
"GLP003","BW","107001593",1460,"BW","Body Weight","205","g","205",205,"g",NA,NA,"Y",NA,NA,NA,1,"2007-06-14T06:58:16",1
"GLP003","BW","107001593",1461,"BW","Body Weight","214","g","214",214,"g",NA,NA,NA,NA,NA,NA,8,"2007-06-21T08:17:17",8
"GLP003","BW","107001593",1462,"BW","Body Weight","222","g","222",222,"g",NA,NA,NA,NA,NA,NA,15,"2007-06-28T07:54:18",15
"GLP003","BW","107001593",1463,"BW","Body Weight","235","g","235",235,"g",NA,NA,NA,NA,NA,NA,22,"2007-07-05T07:52:30",22
"GLP003","BW","107001594",1464,"BW","Body Weight","206","g","206",206,"g",NA,NA,NA,NA,NA,NA,-6,"2007-06-08T09:14:19",-6
"GLP003","BW","107001594",1465,"BW","Body Weight","217","g","217",217,"g",NA,NA,NA,NA,NA,NA,-3,"2007-06-11T07:54:19",-3
"GLP003","BW","107001594",1466,"BW","Body Weight","227","g","227",227,"g",NA,NA,"Y",NA,NA,NA,1,"2007-06-14T06:45:26",1
"GLP003","BW","107001594",1467,"BW","Body Weight","233","g","233",233,"g",NA,NA,NA,NA,NA,NA,8,"2007-06-21T08:04:27",8
"GLP003","BW","107001594",1468,"BW","Body Weight","244","g","244",244,"g",NA,NA,NA,NA,NA,NA,15,"2007-06-28T07:41:59",15
"GLP003","BW","107001594",1469,"BW","Body Weight","259","g","259",259,"g",NA,NA,NA,NA,NA,NA,22,"2007-07-05T07:37:15",22
"GLP003","BW","107001594",1470,"BW","Body Weight","252","g","252",252,"g",NA,NA,NA,NA,NA,NA,29,"2007-07-12T09:24:53",29
"GLP003","BW","107001594",1471,"BW","Body Weight","265","g","265",265,"g",NA,NA,NA,NA,NA,NA,36,"2007-07-19T09:37:25",36
"GLP003","BW","107001596",1472,"BW","Body Weight","209","g","209",209,"g",NA,NA,NA,NA,NA,NA,-6,"2007-06-08T09:14:37",-6
"GLP003","BW","107001596",1473,"BW","Body Weight","218","g","218",218,"g",NA,NA,NA,NA,NA,NA,-3,"2007-06-11T07:54:58",-3
"GLP003","BW","107001596",1474,"BW","Body Weight","222","g","222",222,"g",NA,NA,"Y",NA,NA,NA,1,"2007-06-14T06:58:24",1
"GLP003","BW","107001596",1475,"BW","Body Weight","226","g","226",226,"g",NA,NA,NA,NA,NA,NA,8,"2007-06-21T08:17:24",8
"GLP003","BW","107001596",1476,"BW","Body Weight","243","g","243",243,"g",NA,NA,NA,NA,NA,NA,15,"2007-06-28T07:54:28",15
"GLP003","BW","107001596",1477,"BW","Body Weight","260","g","260",260,"g",NA,NA,NA,NA,NA,NA,22,"2007-07-05T07:52:40",22
"GLP003","BW","107001597",1478,"BW","Body Weight","204","g","204",204,"g",NA,NA,NA,NA,NA,NA,-6,"2007-06-08T09:14:46",-6
"GLP003","BW","107001597",1479,"BW","Body Weight","209","g","209",209,"g",NA,NA,NA,NA,NA,NA,-3,"2007-06-11T07:55:06",-3
"GLP003","BW","107001597",1480,"BW","Body Weight","224","g","224",224,"g",NA,NA,"Y",NA,NA,NA,1,"2007-06-14T06:47:10",1
"GLP003","BW","107001597",1481,"BW","Body Weight","233","g","233",233,"g",NA,NA,NA,NA,NA,NA,8,"2007-06-21T08:05:48",8
"GLP003","BW","107001597",1482,"BW","Body Weight","243","g","243",243,"g",NA,NA,NA,NA,NA,NA,15,"2007-06-28T07:43:16",15
"GLP003","BW","107001597",1483,"BW","Body Weight","253","g","253",253,"g",NA,NA,NA,NA,NA,NA,22,"2007-07-05T07:39:02",22
"GLP003","BW","107001598",1484,"BW","Body Weight","197","g","197",197,"g",NA,NA,NA,NA,NA,NA,-6,"2007-06-08T09:14:56",-6
"GLP003","BW","107001598",1485,"BW","Body Weight","207","g","207",207,"g",NA,NA,NA,NA,NA,NA,-3,"2007-06-11T07:55:13",-3
"GLP003","BW","107001598",1486,"BW","Body Weight","216","g","216",216,"g",NA,NA,"Y",NA,NA,NA,1,"2007-06-14T07:01:13",1
"GLP003","BW","107001598",1487,"BW","Body Weight","235","g","235",235,"g",NA,NA,NA,NA,NA,NA,8,"2007-06-21T08:19:47",8
"GLP003","BW","107001598",1488,"BW","Body Weight","256","g","256",256,"g",NA,NA,NA,NA,NA,NA,15,"2007-06-28T07:57:04",15
"GLP003","BW","107001598",1489,"BW","Body Weight","265","g","265",265,"g",NA,NA,NA,NA,NA,NA,22,"2007-07-05T07:55:56",22
"GLP003","BW","107001598",1490,"BW","Body Weight","250","g","250",250,"g",NA,NA,NA,NA,NA,NA,29,"2007-07-12T09:39:54",29
"GLP003","BW","107001598",1491,"BW","Body Weight","292","g","292",292,"g",NA,NA,NA,NA,NA,NA,36,"2007-07-19T09:42:46",36
"GLP003","BW","107001600",1492,"BW","Body Weight","191","g","191",191,"g",NA,NA,NA,NA,NA,NA,-6,"2007-06-08T09:15:30",-6
"GLP003","BW","107001600",1493,"BW","Body Weight","206","g","206",206,"g",NA,NA,NA,NA,NA,NA,-3,"2007-06-11T07:55:27",-3
"GLP003","BW","107001600",1494,"BW","Body Weight","216","g","216",216,"g",NA,NA,"Y",NA,NA,NA,1,"2007-06-14T06:51:06",1
"GLP003","BW","107001600",1495,"BW","Body Weight","227","g","227",227,"g",NA,NA,NA,NA,NA,NA,8,"2007-06-21T08:11:12",8
"GLP003","BW","107001600",1496,"BW","Body Weight","240","g","240",240,"g",NA,NA,NA,NA,NA,NA,15,"2007-06-28T07:46:25",15
"GLP003","BW","107001600",1497,"BW","Body Weight","252","g","252",252,"g",NA,NA,NA,NA,NA,NA,22,"2007-07-05T07:43:49",22
"GLP003","BW","107001601",1498,"BW","Body Weight","199","g","199",199,"g",NA,NA,NA,NA,NA,NA,-6,"2007-06-08T09:15:43",-6
"GLP003","BW","107001601",1499,"BW","Body Weight","206","g","206",206,"g",NA,NA,NA,NA,NA,NA,-3,"2007-06-11T07:55:35",-3
"GLP003","BW","107001601",1500,"BW","Body Weight","210","g","210",210,"g",NA,NA,"Y",NA,NA,NA,1,"2007-06-14T06:54:46",1
"GLP003","BW","107001601",1501,"BW","Body Weight","212","g","212",212,"g",NA,NA,NA,NA,NA,NA,8,"2007-06-21T08:14:33",8
"GLP003","BW","107001601",1502,"BW","Body Weight","229","g","229",229,"g",NA,NA,NA,NA,NA,NA,15,"2007-06-28T07:49:18",15
"GLP003","BW","107001601",1503,"BW","Body Weight","237","g","237",237,"g",NA,NA,NA,NA,NA,NA,22,"2007-07-05T07:48:18",22
"GLP003","BW","107001602",1504,"BW","Body Weight","203","g","203",203,"g",NA,NA,NA,NA,NA,NA,-6,"2007-06-08T09:15:49",-6
"GLP003","BW","107001602",1505,"BW","Body Weight","215","g","215",215,"g",NA,NA,NA,NA,NA,NA,-3,"2007-06-11T07:55:42",-3
"GLP003","BW","107001602",1506,"BW","Body Weight","219","g","219",219,"g",NA,NA,"Y",NA,NA,NA,1,"2007-06-14T06:48:52",1
"GLP003","BW","107001602",1507,"BW","Body Weight","234","g","234",234,"g",NA,NA,NA,NA,NA,NA,8,"2007-06-21T08:09:08",8
"GLP003","BW","107001602",1508,"BW","Body Weight","240","g","240",240,"g",NA,NA,NA,NA,NA,NA,15,"2007-06-28T07:44:48",15
"GLP003","BW","107001602",1509,"BW","Body Weight","238","g","238",238,"g",NA,NA,NA,NA,NA,NA,22,"2007-07-05T07:40:58",22
"GLP003","BW","107001602",1510,"BW","Body Weight","238","g","238",238,"g",NA,NA,NA,NA,NA,NA,29,"2007-07-12T09:27:13",29
"GLP003","BW","107001603",1511,"BW","Body Weight","191","g","191",191,"g",NA,NA,NA,NA,NA,NA,-6,"2007-06-08T09:15:59",-6
"GLP003","BW","107001603",1512,"BW","Body Weight","208","g","208",208,"g",NA,NA,NA,NA,NA,NA,-3,"2007-06-11T07:55:51",-3
"GLP003","BW","107001603",1513,"BW","Body Weight","216","g","216",216,"g",NA,NA,"Y",NA,NA,NA,1,"2007-06-14T06:50:32",1
"GLP003","BW","107001603",1514,"BW","Body Weight","224","g","224",224,"g",NA,NA,NA,NA,NA,NA,8,"2007-06-21T08:10:46",8
"GLP003","BW","107001603",1515,"BW","Body Weight","246","g","246",246,"g",NA,NA,NA,NA,NA,NA,15,"2007-06-28T07:46:01",15
"GLP003","BW","107001603",1516,"BW","Body Weight","266","g","266",266,"g",NA,NA,NA,NA,NA,NA,22,"2007-07-05T07:43:08",22
"GLP003","BW","107001605",1517,"BW","Body Weight","196","g","196",196,"g",NA,NA,NA,NA,NA,NA,-6,"2007-06-08T09:16:16",-6
"GLP003","BW","107001605",1518,"BW","Body Weight","203","g","203",203,"g",NA,NA,NA,NA,NA,NA,-3,"2007-06-11T07:56:05",-3
"GLP003","BW","107001605",1519,"BW","Body Weight","212","g","212",212,"g",NA,NA,"Y",NA,NA,NA,1,"2007-06-14T07:03:05",1
"GLP003","BW","107001605",1520,"BW","Body Weight","231","g","231",231,"g",NA,NA,NA,NA,NA,NA,8,"2007-06-21T08:23:34",8
"GLP003","BW","107001605",1521,"BW","Body Weight","251","g","251",251,"g",NA,NA,NA,NA,NA,NA,15,"2007-06-28T07:58:23",15
"GLP003","BW","107001605",1522,"BW","Body Weight","264","g","264",264,"g",NA,NA,NA,NA,NA,NA,22,"2007-07-05T07:57:52",22
"GLP003","BW","107001606",1523,"BW","Body Weight","202","g","202",202,"g",NA,NA,NA,NA,NA,NA,-6,"2007-06-08T09:16:23",-6
"GLP003","BW","107001606",1524,"BW","Body Weight","209","g","209",209,"g",NA,NA,NA,NA,NA,NA,-3,"2007-06-11T07:56:11",-3
"GLP003","BW","107001606",1525,"BW","Body Weight","222","g","222",222,"g",NA,NA,"Y",NA,NA,NA,1,"2007-06-14T06:50:57",1
"GLP003","BW","107001606",1526,"BW","Body Weight","241","g","241",241,"g",NA,NA,NA,NA,NA,NA,8,"2007-06-21T08:11:08",8
"GLP003","BW","107001606",1527,"BW","Body Weight","255","g","255",255,"g",NA,NA,NA,NA,NA,NA,15,"2007-06-28T07:46:19",15
"GLP003","BW","107001606",1528,"BW","Body Weight","264","g","264",264,"g",NA,NA,NA,NA,NA,NA,22,"2007-07-05T07:43:38",22
"GLP003","BW","107001607",1529,"BW","Body Weight","191","g","191",191,"g",NA,NA,NA,NA,NA,NA,-6,"2007-06-08T09:16:46",-6
"GLP003","BW","107001607",1530,"BW","Body Weight","200","g","200",200,"g",NA,NA,NA,NA,NA,NA,-3,"2007-06-11T07:56:19",-3
"GLP003","BW","107001607",1531,"BW","Body Weight","209","g","209",209,"g",NA,NA,"Y",NA,NA,NA,1,"2007-06-14T06:46:19",1
"GLP003","BW","107001607",1532,"BW","Body Weight","217","g","217",217,"g",NA,NA,NA,NA,NA,NA,8,"2007-06-21T08:05:13",8
"GLP003","BW","107001607",1533,"BW","Body Weight","233","g","233",233,"g",NA,NA,NA,NA,NA,NA,15,"2007-06-28T07:42:46",15
"GLP003","BW","107001607",1534,"BW","Body Weight","241","g","241",241,"g",NA,NA,NA,NA,NA,NA,22,"2007-07-05T07:38:15",22
"GLP003","BW","107001609",1535,"BW","Body Weight","208","g","208",208,"g",NA,NA,NA,NA,NA,NA,-6,"2007-06-08T09:17:06",-6
"GLP003","BW","107001609",1536,"BW","Body Weight","214","g","214",214,"g",NA,NA,NA,NA,NA,NA,-3,"2007-06-11T07:56:35",-3
"GLP003","BW","107001609",1537,"BW","Body Weight","225","g","225",225,"g",NA,NA,"Y",NA,NA,NA,1,"2007-06-14T06:49:33",1
"GLP003","BW","107001609",1538,"BW","Body Weight","231","g","231",231,"g",NA,NA,NA,NA,NA,NA,8,"2007-06-21T08:09:58",8
"GLP003","BW","107001609",1539,"BW","Body Weight","243","g","243",243,"g",NA,NA,NA,NA,NA,NA,15,"2007-06-28T07:45:18",15
"GLP003","BW","107001609",1540,"BW","Body Weight","260","g","260",260,"g",NA,NA,NA,NA,NA,NA,22,"2007-07-05T07:41:57",22
"GLP003","BW","107001609",1541,"BW","Body Weight","268","g","268",268,"g",NA,NA,NA,NA,NA,NA,29,"2007-07-12T09:28:54",29
"GLP003","BW","107001609",1542,"BW","Body Weight","266","g","266",266,"g",NA,NA,NA,NA,NA,NA,36,"2007-07-19T09:39:22",36
"GLP003","BW","107001610",1543,"BW","Body Weight","192","g","192",192,"g",NA,NA,NA,NA,NA,NA,-6,"2007-06-08T09:17:16",-6
"GLP003","BW","107001610",1544,"BW","Body Weight","200","g","200",200,"g",NA,NA,NA,NA,NA,NA,-3,"2007-06-11T07:56:43",-3
"GLP003","BW","107001610",1545,"BW","Body Weight","216","g","216",216,"g",NA,NA,"Y",NA,NA,NA,1,"2007-06-14T07:00:20",1
"GLP003","BW","107001610",1546,"BW","Body Weight","231","g","231",231,"g",NA,NA,NA,NA,NA,NA,8,"2007-06-21T08:19:01",8
"GLP003","BW","107001610",1547,"BW","Body Weight","251","g","251",251,"g",NA,NA,NA,NA,NA,NA,15,"2007-06-28T07:56:15",15
"GLP003","BW","107001610",1548,"BW","Body Weight","263","g","263",263,"g",NA,NA,NA,NA,NA,NA,22,"2007-07-05T07:54:52",22
"GLP003","BW","107001610",1549,"BW","Body Weight","270","g","270",270,"g",NA,NA,NA,NA,NA,NA,29,"2007-07-12T09:37:13",29
"GLP003","BW","107001611",1550,"BW","Body Weight","205","g","205",205,"g",NA,NA,NA,NA,NA,NA,-6,"2007-06-08T09:17:26",-6
"GLP003","BW","107001611",1551,"BW","Body Weight","220","g","220",220,"g",NA,NA,NA,NA,NA,NA,-3,"2007-06-11T07:56:58",-3
"GLP003","BW","107001611",1552,"BW","Body Weight","225","g","225",225,"g",NA,NA,"Y",NA,NA,NA,1,"2007-06-14T07:02:13",1
"GLP003","BW","107001611",1553,"BW","Body Weight","229","g","229",229,"g",NA,NA,NA,NA,NA,NA,8,"2007-06-21T08:20:27",8
"GLP003","BW","107001611",1554,"BW","Body Weight","251","g","251",251,"g",NA,NA,NA,NA,NA,NA,15,"2007-06-28T07:57:39",15
"GLP003","BW","107001611",1555,"BW","Body Weight","257","g","257",257,"g",NA,NA,NA,NA,NA,NA,22,"2007-07-05T07:56:50",22
"GLP003","BW","107001612",1556,"BW","Body Weight","196","g","196",196,"g",NA,NA,NA,NA,NA,NA,-6,"2007-06-08T09:17:35",-6
"GLP003","BW","107001612",1557,"BW","Body Weight","214","g","214",214,"g",NA,NA,NA,NA,NA,NA,-3,"2007-06-11T07:57:06",-3
"GLP003","BW","107001612",1558,"BW","Body Weight","226","g","226",226,"g",NA,NA,"Y",NA,NA,NA,1,"2007-06-14T06:53:08",1
"GLP003","BW","107001612",1559,"BW","Body Weight","236","g","236",236,"g",NA,NA,NA,NA,NA,NA,8,"2007-06-21T08:13:10",8
"GLP003","BW","107001612",1560,"BW","Body Weight","245","g","245",245,"g",NA,NA,NA,NA,NA,NA,15,"2007-06-28T07:47:59",15
"GLP003","BW","107001612",1561,"BW","Body Weight","262","g","262",262,"g",NA,NA,NA,NA,NA,NA,22,"2007-07-05T07:46:29",22
"GLP003","BW","107001612",1562,"BW","Body Weight","252","g","252",252,"g",NA,NA,NA,NA,NA,NA,29,"2007-07-12T09:31:34",29
"GLP003","BW","107001612",1563,"BW","Body Weight","267","g","267",267,"g",NA,NA,NA,NA,NA,NA,36,"2007-07-19T09:40:02",36
"GLP003","BW","107001613",1564,"BW","Body Weight","194","g","194",194,"g",NA,NA,NA,NA,NA,NA,-6,"2007-06-08T09:17:47",-6
"GLP003","BW","107001613",1565,"BW","Body Weight","212","g","212",212,"g",NA,NA,NA,NA,NA,NA,-3,"2007-06-11T07:57:15",-3
"GLP003","BW","107001613",1566,"BW","Body Weight","213","g","213",213,"g",NA,NA,"Y",NA,NA,NA,1,"2007-06-14T06:47:15",1
"GLP003","BW","107001613",1567,"BW","Body Weight","248","g","248",248,"g",NA,NA,NA,NA,NA,NA,8,"2007-06-21T08:06:13",8
"GLP003","BW","107001613",1568,"BW","Body Weight","264","g","264",264,"g",NA,NA,NA,NA,NA,NA,15,"2007-06-28T07:43:24",15
"GLP003","BW","107001613",1569,"BW","Body Weight","274","g","274",274,"g",NA,NA,NA,NA,NA,NA,22,"2007-07-05T07:39:25",22
"GLP003","BW","107001614",1570,"BW","Body Weight","199","g","199",199,"g",NA,NA,NA,NA,NA,NA,-6,"2007-06-08T09:17:56",-6
"GLP003","BW","107001614",1571,"BW","Body Weight","203","g","203",203,"g",NA,NA,NA,NA,NA,NA,-3,"2007-06-11T07:57:24",-3
"GLP003","BW","107001614",1572,"BW","Body Weight","210","g","210",210,"g",NA,NA,"Y",NA,NA,NA,1,"2007-06-14T06:46:28",1
"GLP003","BW","107001616",1573,"BW","Body Weight","196","g","196",196,"g",NA,NA,NA,NA,NA,NA,-6,"2007-06-08T09:18:27",-6
"GLP003","BW","107001616",1574,"BW","Body Weight","208","g","208",208,"g",NA,NA,NA,NA,NA,NA,-3,"2007-06-11T07:57:41",-3
"GLP003","BW","107001616",1575,"BW","Body Weight","220","g","220",220,"g",NA,NA,"Y",NA,NA,NA,1,"2007-06-14T06:23:32",1
"GLP003","BW","107001616",1576,"BW","Body Weight","232","g","232",232,"g",NA,NA,NA,NA,NA,NA,8,"2007-06-21T08:03:32",8
"GLP003","BW","107001616",1577,"BW","Body Weight","244","g","244",244,"g",NA,NA,NA,NA,NA,NA,15,"2007-06-28T07:41:09",15
"GLP003","BW","107001616",1578,"BW","Body Weight","245","g","245",245,"g",NA,NA,NA,NA,NA,NA,22,"2007-07-05T07:35:56",22
"GLP003","BW","107001617",1579,"BW","Body Weight","196","g","196",196,"g",NA,NA,NA,NA,NA,NA,-6,"2007-06-08T09:18:37",-6
"GLP003","BW","107001617",1580,"BW","Body Weight","205","g","205",205,"g",NA,NA,NA,NA,NA,NA,-3,"2007-06-11T07:57:50",-3
"GLP003","BW","107001617",1581,"BW","Body Weight","213","g","213",213,"g",NA,NA,"Y",NA,NA,NA,1,"2007-06-14T06:59:33",1
"GLP003","BW","107001617",1582,"BW","Body Weight","220","g","220",220,"g",NA,NA,NA,NA,NA,NA,8,"2007-06-21T08:18:22",8
"GLP003","BW","107001617",1583,"BW","Body Weight","229","g","229",229,"g",NA,NA,NA,NA,NA,NA,15,"2007-06-28T07:55:34",15
"GLP003","BW","107001617",1584,"BW","Body Weight","242","g","242",242,"g",NA,NA,NA,NA,NA,NA,22,"2007-07-05T07:53:51",22
"GLP003","BW","107001618",1585,"BW","Body Weight","189","g","189",189,"g",NA,NA,NA,NA,NA,NA,-6,"2007-06-08T09:18:46",-6
"GLP003","BW","107001618",1586,"BW","Body Weight","200","g","200",200,"g",NA,NA,NA,NA,NA,NA,-3,"2007-06-11T07:57:56",-3
"GLP003","BW","107001618",1587,"BW","Body Weight","210","g","210",210,"g",NA,NA,"Y",NA,NA,NA,1,"2007-06-14T06:51:43",1
"GLP003","BW","107001618",1588,"BW","Body Weight","222","g","222",222,"g",NA,NA,NA,NA,NA,NA,8,"2007-06-21T08:11:33",8
"GLP003","BW","107001618",1589,"BW","Body Weight","228","g","228",228,"g",NA,NA,NA,NA,NA,NA,15,"2007-06-28T07:46:48",15
"GLP003","BW","107001618",1590,"BW","Body Weight","238","g","238",238,"g",NA,NA,NA,NA,NA,NA,22,"2007-07-05T07:44:20",22
"GLP003","BW","107001619",1591,"BW","Body Weight","185","g","185",185,"g",NA,NA,NA,NA,NA,NA,-6,"2007-06-08T09:19:22",-6
"GLP003","BW","107001619",1592,"BW","Body Weight","201","g","201",201,"g",NA,NA,NA,NA,NA,NA,-3,"2007-06-11T07:58:37",-3
"GLP003","BW","107001619",1593,"BW","Body Weight","211","g","211",211,"g",NA,NA,"Y",NA,NA,NA,1,"2007-06-14T06:45:33",1
"GLP003","BW","107001619",1594,"BW","Body Weight","216","g","216",216,"g",NA,NA,NA,NA,NA,NA,8,"2007-06-21T08:04:34",8
"GLP003","BW","107001619",1595,"BW","Body Weight","223","g","223",223,"g",NA,NA,NA,NA,NA,NA,15,"2007-06-28T07:42:07",15
"GLP003","BW","107001619",1596,"BW","Body Weight","237","g","237",237,"g",NA,NA,NA,NA,NA,NA,22,"2007-07-05T07:37:24",22
"GLP003","BW","107001619",1597,"BW","Body Weight","236","g","236",236,"g",NA,NA,NA,NA,NA,NA,29,"2007-07-12T09:25:14",29
"GLP003","BW","107001619",1598,"BW","Body Weight","249","g","249",249,"g",NA,NA,NA,NA,NA,NA,36,"2007-07-19T09:37:37",36
"GLP003","BW","107001620",1599,"BW","Body Weight","209","g","209",209,"g",NA,NA,NA,NA,NA,NA,-6,"2007-06-08T09:19:29",-6
"GLP003","BW","107001620",1600,"BW","Body Weight","219","g","219",219,"g",NA,NA,NA,NA,NA,NA,-3,"2007-06-11T07:58:46",-3
"GLP003","BW","107001620",1601,"BW","Body Weight","218","g","218",218,"g",NA,NA,"Y",NA,NA,NA,1,"2007-06-14T06:48:36",1
"GLP003","BW","107001620",1602,"BW","Body Weight","213","g","213",213,"g",NA,NA,NA,NA,NA,NA,8,"2007-06-21T08:08:37",8
"GLP003","BW","107001620",1603,"BW","Body Weight","216","g","216",216,"g",NA,NA,NA,NA,NA,NA,15,"2007-06-28T07:44:37",15
"GLP003","BW","107001620",1604,"BW","Body Weight","230","g","230",230,"g",NA,NA,NA,NA,NA,NA,22,"2007-07-05T07:40:34",22
"GLP003","BW","107001620",1605,"BW","Body Weight","227","g","227",227,"g",NA,NA,NA,NA,NA,NA,29,"2007-07-12T09:26:43",29
"GLP003","BW","107001623",1606,"BW","Body Weight","191","g","191",191,"g",NA,NA,NA,NA,NA,NA,-6,"2007-06-08T09:19:57",-6
"GLP003","BW","107001623",1607,"BW","Body Weight","198","g","198",198,"g",NA,NA,NA,NA,NA,NA,-3,"2007-06-11T07:59:16",-3
"GLP003","BW","107001623",1608,"BW","Body Weight","206","g","206",206,"g",NA,NA,"Y",NA,NA,NA,1,"2007-06-14T07:10:34",1
"GLP003","BW","107001623",1609,"BW","Body Weight","218","g","218",218,"g",NA,NA,NA,NA,NA,NA,8,"2007-06-21T08:17:48",8
"GLP003","BW","107001623",1610,"BW","Body Weight","231","g","231",231,"g",NA,NA,NA,NA,NA,NA,15,"2007-06-28T07:54:54",15
"GLP003","BW","107001623",1611,"BW","Body Weight","247","g","247",247,"g",NA,NA,NA,NA,NA,NA,22,"2007-07-05T07:53:20",22
"GLP003","BW","107001626",1612,"BW","Body Weight","188","g","188",188,"g",NA,NA,NA,NA,NA,NA,-6,"2007-06-08T09:20:25",-6
"GLP003","BW","107001626",1613,"BW","Body Weight","201","g","201",201,"g",NA,NA,NA,NA,NA,NA,-3,"2007-06-11T07:59:48",-3
"GLP003","BW","107001626",1614,"BW","Body Weight","215","g","215",215,"g",NA,NA,"Y",NA,NA,NA,1,"2007-06-14T06:50:45",1
"GLP003","BW","107001626",1615,"BW","Body Weight","220","g","220",220,"g",NA,NA,NA,NA,NA,NA,8,"2007-06-21T08:10:58",8
"GLP003","BW","107001626",1616,"BW","Body Weight","230","g","230",230,"g",NA,NA,NA,NA,NA,NA,15,"2007-06-28T07:46:14",15
"GLP003","BW","107001626",1617,"BW","Body Weight","242","g","242",242,"g",NA,NA,NA,NA,NA,NA,22,"2007-07-05T07:43:29",22
"GLP003","BW","107001627",1618,"BW","Body Weight","205","g","205",205,"g",NA,NA,NA,NA,NA,NA,-6,"2007-06-08T09:20:35",-6
"GLP003","BW","107001627",1619,"BW","Body Weight","214","g","214",214,"g",NA,NA,NA,NA,NA,NA,-3,"2007-06-11T08:00:00",-3
"GLP003","BW","107001627",1620,"BW","Body Weight","225","g","225",225,"g",NA,NA,"Y",NA,NA,NA,1,"2007-06-14T06:56:06",1
"GLP003","BW","107001627",1621,"BW","Body Weight","232","g","232",232,"g",NA,NA,NA,NA,NA,NA,8,"2007-06-21T08:15:21",8
"GLP003","BW","107001627",1622,"BW","Body Weight","245","g","245",245,"g",NA,NA,NA,NA,NA,NA,15,"2007-06-28T07:52:13",15
"GLP003","BW","107001627",1623,"BW","Body Weight","253","g","253",253,"g",NA,NA,NA,NA,NA,NA,22,"2007-07-05T07:49:32",22
"GLP003","BW","107001628",1624,"BW","Body Weight","204","g","204",204,"g",NA,NA,NA,NA,NA,NA,-6,"2007-06-08T09:20:44",-6
"GLP003","BW","107001628",1625,"BW","Body Weight","210","g","210",210,"g",NA,NA,NA,NA,NA,NA,-3,"2007-06-11T08:00:04",-3
"GLP003","BW","107001628",1626,"BW","Body Weight","213","g","213",213,"g",NA,NA,"Y",NA,NA,NA,1,"2007-06-14T07:00:54",1
"GLP003","BW","107001628",1627,"BW","Body Weight","214","g","214",214,"g",NA,NA,NA,NA,NA,NA,8,"2007-06-21T08:19:32",8
"GLP003","BW","107001628",1628,"BW","Body Weight","226","g","226",226,"g",NA,NA,NA,NA,NA,NA,15,"2007-06-28T07:56:47",15
"GLP003","BW","107001628",1629,"BW","Body Weight","230","g","230",230,"g",NA,NA,NA,NA,NA,NA,22,"2007-07-05T07:55:36",22
"GLP003","BW","107001628",1630,"BW","Body Weight","222","g","222",222,"g",NA,NA,NA,NA,NA,NA,29,"2007-07-12T09:38:34",29
"GLP003","BW","107001628",1631,"BW","Body Weight","230","g","230",230,"g",NA,NA,NA,NA,NA,NA,36,"2007-07-19T09:42:16",36
"GLP003","BW","107001629",1632,"BW","Body Weight","191","g","191",191,"g",NA,NA,NA,NA,NA,NA,-6,"2007-06-08T09:20:53",-6
"GLP003","BW","107001629",1633,"BW","Body Weight","207","g","207",207,"g",NA,NA,NA,NA,NA,NA,-3,"2007-06-11T08:00:12",-3
"GLP003","BW","107001629",1634,"BW","Body Weight","213","g","213",213,"g",NA,NA,"Y",NA,NA,NA,1,"2007-06-14T06:48:18",1
"GLP003","BW","107001629",1635,"BW","Body Weight","209","g","209",209,"g",NA,NA,NA,NA,NA,NA,8,"2007-06-21T08:08:05",8
"GLP003","BW","107001631",1636,"BW","Body Weight","198","g","198",198,"g",NA,NA,NA,NA,NA,NA,-6,"2007-06-08T09:21:10",-6
"GLP003","BW","107001631",1637,"BW","Body Weight","205","g","205",205,"g",NA,NA,NA,NA,NA,NA,-3,"2007-06-11T08:00:28",-3
"GLP003","BW","107001631",1638,"BW","Body Weight","209","g","209",209,"g",NA,NA,"Y",NA,NA,NA,1,"2007-06-14T06:52:29",1
"GLP003","BW","107001631",1639,"BW","Body Weight","216","g","216",216,"g",NA,NA,NA,NA,NA,NA,8,"2007-06-21T08:12:16",8
"GLP003","BW","107001631",1640,"BW","Body Weight","237","g","237",237,"g",NA,NA,NA,NA,NA,NA,15,"2007-06-28T07:47:23",15
"GLP003","BW","107001631",1641,"BW","Body Weight","251","g","251",251,"g",NA,NA,NA,NA,NA,NA,22,"2007-07-05T07:45:39",22
"GLP003","BW","107001631",1642,"BW","Body Weight","256","g","256",256,"g",NA,NA,NA,NA,NA,NA,29,"2007-07-12T09:29:59",29
