"STUDYID","DOMAIN","USUBJID","POOLID","CLSEQ","CLGRPID","CLSPID","CLTESTCD","CLTEST","CLCAT","CLSCAT","CLBODSYS","CLORRES","CLSTRESC","CLRESCAT","CLSTAT","CLREASND","CLLOC","CLEVAL","CLSEV","CLEXCLFL","CLREASEX","VISITDY","CLDTC","CLDY","CLTPT","CLTPTNUM","CLELTM","CLTPTREF","CLRFTDTC"
"GLP003","CL","107001493",NA,1,NA,NA,"CO","Clinical Observation","CLINICAL SIGNS",NA,NA,"NORMAL","NORMAL",NA,NA,NA,NA,NA,NA,NA,NA,1,"2007-06-12T12:31:13",1,NA,NA,NA,NA,NA
"GLP003","CL","107001493",NA,2,NA,NA,"CO","Clinical Observation","CLINICAL SIGNS",NA,NA,"NORMAL","NORMAL",NA,NA,NA,NA,NA,NA,NA,NA,2,"2007-06-13T14:46:30",2,NA,NA,NA,NA,NA
"GLP003","CL","107001493",NA,3,NA,NA,"CO","Clinical Observation","CLINICAL SIGNS",NA,NA,"NORMAL","NORMAL",NA,NA,NA,NA,NA,NA,NA,NA,3,"2007-06-14T15:22:14",3,NA,NA,NA,NA,NA
"GLP003","CL","107001493",NA,4,NA,NA,"CO","Clinical Observation","CLINICAL SIGNS",NA,NA,"NORMAL","NORMAL",NA,NA,NA,NA,NA,NA,NA,NA,4,"2007-06-15T11:07:41",4,NA,NA,NA,NA,NA
"GLP003","CL","107001493",NA,5,NA,NA,"CO","Clinical Observation","CLINICAL SIGNS",NA,NA,"NORMAL","NORMAL",NA,NA,NA,NA,NA,NA,NA,NA,5,"2007-06-16T15:18:33",5,NA,NA,NA,NA,NA
"GLP003","CL","107001493",NA,6,NA,NA,"CO","Clinical Observation","CLINICAL SIGNS",NA,NA,"NORMAL","NORMAL",NA,NA,NA,NA,NA,NA,NA,NA,6,"2007-06-17T10:32:49",6,NA,NA,NA,NA,NA
"GLP003","CL","107001493",NA,7,NA,NA,"CO","Clinical Observation","CLINICAL SIGNS",NA,NA,"NORMAL","NORMAL",NA,NA,NA,NA,NA,NA,NA,NA,7,"2007-06-18T09:53:40",7,NA,NA,NA,NA,NA
"GLP003","CL","107001493",NA,8,NA,NA,"CO","Clinical Observation","CLINICAL SIGNS",NA,NA,"NORMAL","NORMAL",NA,NA,NA,NA,NA,NA,NA,NA,8,"2007-06-19T15:04:19",8,NA,NA,NA,NA,NA
"GLP003","CL","107001493",NA,9,NA,NA,"CO","Clinical Observation","CLINICAL SIGNS",NA,NA,"NORMAL","NORMAL",NA,NA,NA,NA,NA,NA,NA,NA,9,"2007-06-20T11:10:06",9,NA,NA,NA,NA,NA
"GLP003","CL","107001493",NA,10,NA,NA,"CO","Clinical Observation","CLINICAL SIGNS",NA,NA,"NORMAL","NORMAL",NA,NA,NA,NA,NA,NA,NA,NA,10,"2007-06-21T10:33:32",10,NA,NA,NA,NA,NA
"GLP003","CL","107001493",NA,11,NA,NA,"CO","Clinical Observation","CLINICAL SIGNS",NA,NA,"NORMAL","NORMAL",NA,NA,NA,NA,NA,NA,NA,NA,11,"2007-06-22T11:08:05",11,NA,NA,NA,NA,NA
"GLP003","CL","107001493",NA,12,NA,NA,"CO","Clinical Observation","CLINICAL SIGNS",NA,NA,"NORMAL","NORMAL",NA,NA,NA,NA,NA,NA,NA,NA,12,"2007-06-23T14:59:51",12,NA,NA,NA,NA,NA
"GLP003","CL","107001493",NA,13,NA,NA,"CO","Clinical Observation","CLINICAL SIGNS",NA,NA,"NORMAL","NORMAL",NA,NA,NA,NA,NA,NA,NA,NA,13,"2007-06-24T14:12:46",13,NA,NA,NA,NA,NA
"GLP003","CL","107001493",NA,14,NA,NA,"CO","Clinical Observation","CLINICAL SIGNS",NA,NA,"NORMAL","NORMAL",NA,NA,NA,NA,NA,NA,NA,NA,14,"2007-06-25T14:36:15",14,NA,NA,NA,NA,NA
"GLP003","CL","107001493",NA,15,NA,NA,"CO","Clinical Observation","CLINICAL SIGNS",NA,NA,"NORMAL","NORMAL",NA,NA,NA,NA,NA,NA,NA,NA,15,"2007-06-26T13:03:58",15,NA,NA,NA,NA,NA
"GLP003","CL","107001493",NA,16,NA,NA,"CO","Clinical Observation","CLINICAL SIGNS",NA,NA,"NORMAL","NORMAL",NA,NA,NA,NA,NA,NA,NA,NA,16,"2007-06-27T11:22:45",16,NA,NA,NA,NA,NA
"GLP003","CL","107001493",NA,17,NA,NA,"CO","Clinical Observation","CLINICAL SIGNS",NA,NA,"NORMAL","NORMAL",NA,NA,NA,NA,NA,NA,NA,NA,17,"2007-06-28T13:48:10",17,NA,NA,NA,NA,NA
"GLP003","CL","107001493",NA,18,NA,NA,"CO","Clinical Observation","CLINICAL SIGNS",NA,NA,"NORMAL","NORMAL",NA,NA,NA,NA,NA,NA,NA,NA,18,"2007-06-29T13:13:07",18,NA,NA,NA,NA,NA
"GLP003","CL","107001493",NA,19,NA,NA,"CO","Clinical Observation","CLINICAL SIGNS",NA,NA,"NORMAL","NORMAL",NA,NA,NA,NA,NA,NA,NA,NA,19,"2007-06-30T13:30:40",19,NA,NA,NA,NA,NA
"GLP003","CL","107001493",NA,20,NA,NA,"CO","Clinical Observation","CLINICAL SIGNS",NA,NA,"NORMAL","NORMAL",NA,NA,NA,NA,NA,NA,NA,NA,20,"2007-07-01T11:24:16",20,NA,NA,NA,NA,NA
"GLP003","CL","107001493",NA,21,NA,NA,"CO","Clinical Observation","CLINICAL SIGNS",NA,NA,"NORMAL","NORMAL",NA,NA,NA,NA,NA,NA,NA,NA,21,"2007-07-02T12:30:49",21,NA,NA,NA,NA,NA
"GLP003","CL","107001493",NA,22,NA,NA,"CO","Clinical Observation","CLINICAL SIGNS",NA,NA,"NORMAL","NORMAL",NA,NA,NA,NA,NA,NA,NA,NA,22,"2007-07-03T07:58:11",22,NA,NA,NA,NA,NA
"GLP003","CL","107001493",NA,23,NA,NA,"CO","Clinical Observation","CLINICAL SIGNS",NA,NA,"NORMAL","NORMAL",NA,NA,NA,NA,NA,NA,NA,NA,23,"2007-07-04T12:50:04",23,NA,NA,NA,NA,NA
"GLP003","CL","107001493",NA,24,NA,NA,"CO","Clinical Observation","CLINICAL SIGNS",NA,NA,"NORMAL","NORMAL",NA,NA,NA,NA,NA,NA,NA,NA,24,"2007-07-05T14:24:14",24,NA,NA,NA,NA,NA
"GLP003","CL","107001493",NA,25,NA,NA,"CO","Clinical Observation","CLINICAL SIGNS",NA,NA,"NORMAL","NORMAL",NA,NA,NA,NA,NA,NA,NA,NA,25,"2007-07-06T11:26:37",25,NA,NA,NA,NA,NA
"GLP003","CL","107001493",NA,26,NA,NA,"CO","Clinical Observation","CLINICAL SIGNS",NA,NA,"NORMAL","NORMAL",NA,NA,NA,NA,NA,NA,NA,NA,26,"2007-07-07T12:21:24",26,NA,NA,NA,NA,NA
"GLP003","CL","107001493",NA,27,NA,NA,"CO","Clinical Observation","CLINICAL SIGNS",NA,NA,"NORMAL","NORMAL",NA,NA,NA,NA,NA,NA,NA,NA,27,"2007-07-08T12:52:42",27,NA,NA,NA,NA,NA
"GLP003","CL","107001493",NA,28,NA,NA,"CO","Clinical Observation","CLINICAL SIGNS",NA,NA,"NORMAL","NORMAL",NA,NA,NA,NA,NA,NA,NA,NA,28,"2007-07-09T12:02:10",28,NA,NA,NA,NA,NA
"GLP003","CL","107001493",NA,29,NA,NA,"CO","Clinical Observation","CLINICAL SIGNS",NA,NA,"Feces, unformed","Feces, unformed",NA,NA,NA,NA,NA,NA,NA,NA,2,"2007-06-13T07:05:00",2,NA,NA,NA,NA,NA
"GLP003","CL","107001493",NA,30,NA,NA,"CO","Clinical Observation","CLINICAL SIGNS",NA,NA,"Feces, unformed","Feces, unformed",NA,NA,NA,NA,NA,NA,NA,NA,22,"2007-07-03T07:09:00",22,NA,NA,NA,NA,NA
"GLP003","CL","107001493",NA,31,NA,NA,"CO","Clinical Observation","CLINICAL SIGNS",NA,NA,"Feces, unformed","Feces, unformed",NA,NA,NA,NA,NA,NA,NA,NA,23,"2007-07-04T06:58:00",23,NA,NA,NA,NA,NA
"GLP003","CL","107001493",NA,32,NA,NA,"CO","Clinical Observation","CLINICAL SIGNS",NA,NA,"Feces, unformed","Feces, unformed",NA,NA,NA,NA,NA,NA,NA,NA,24,"2007-07-05T06:59:00",24,NA,NA,NA,NA,NA
"GLP003","CL","107001493",NA,33,NA,NA,"CO","Clinical Observation","CLINICAL SIGNS",NA,NA,"Feces, unformed","Feces, unformed",NA,NA,NA,NA,NA,NA,NA,NA,28,"2007-07-09T05:58:00",28,NA,NA,NA,NA,NA
"GLP003","CL","107001493",NA,34,NA,NA,"CO","Clinical Observation","CLINICAL SIGNS",NA,NA,"End-of-Dose Necropsy","End-of-Dose Necropsy",NA,NA,NA,NA,NA,NA,NA,NA,29,"2007-07-10T11:32:14",29,NA,NA,NA,NA,NA
"GLP003","CL","107001493",NA,35,NA,NA,"EOBS","Ophthalmologic Examinations","OPHTHALMOLOGY",NA,NA,"NORMAL","NORMAL",NA,NA,NA,NA,NA,NA,NA,NA,-5,"2007-06-07T15:34:11",-5,NA,NA,NA,NA,NA
"GLP003","CL","107001493",NA,36,NA,NA,"EOBS","Ophthalmologic Examinations","OPHTHALMOLOGY",NA,NA,"NORMAL","NORMAL",NA,NA,NA,NA,NA,NA,NA,NA,22,"2007-07-03T09:37:59",22,NA,NA,NA,NA,NA
"GLP003","CL","107001493",NA,37,NA,NA,"VOBS","Veterinary Examinations","PHYSICAL EXAM",NA,NA,"NORMAL","NORMAL",NA,NA,NA,NA,NA,NA,NA,NA,-5,"2007-06-07T08:15:15",-5,NA,NA,NA,NA,NA
"GLP003","CL","107001493",NA,38,NA,NA,"VOBS","Veterinary Examinations","PHYSICAL EXAM",NA,NA,"NORMAL","NORMAL",NA,NA,NA,NA,NA,NA,NA,NA,22,"2007-07-03T10:33:23",22,NA,NA,NA,NA,NA
"GLP003","CL","107001427",NA,39,NA,NA,"CO","Clinical Observation","CLINICAL SIGNS",NA,NA,"NORMAL","NORMAL",NA,NA,NA,NA,NA,NA,NA,NA,1,"2007-06-12T12:31:14",1,NA,NA,NA,NA,NA
"GLP003","CL","107001427",NA,40,NA,NA,"CO","Clinical Observation","CLINICAL SIGNS",NA,NA,"NORMAL","NORMAL",NA,NA,NA,NA,NA,NA,NA,NA,3,"2007-06-14T15:22:22",3,NA,NA,NA,NA,NA
"GLP003","CL","107001427",NA,41,NA,NA,"CO","Clinical Observation","CLINICAL SIGNS",NA,NA,"NORMAL","NORMAL",NA,NA,NA,NA,NA,NA,NA,NA,4,"2007-06-15T11:07:43",4,NA,NA,NA,NA,NA
"GLP003","CL","107001427",NA,42,NA,NA,"CO","Clinical Observation","CLINICAL SIGNS",NA,NA,"NORMAL","NORMAL",NA,NA,NA,NA,NA,NA,NA,NA,5,"2007-06-16T15:18:34",5,NA,NA,NA,NA,NA
"GLP003","CL","107001427",NA,43,NA,NA,"CO","Clinical Observation","CLINICAL SIGNS",NA,NA,"NORMAL","NORMAL",NA,NA,NA,NA,NA,NA,NA,NA,6,"2007-06-17T10:32:50",6,NA,NA,NA,NA,NA
"GLP003","CL","107001427",NA,44,NA,NA,"CO","Clinical Observation","CLINICAL SIGNS",NA,NA,"NORMAL","NORMAL",NA,NA,NA,NA,NA,NA,NA,NA,7,"2007-06-18T09:53:42",7,NA,NA,NA,NA,NA
"GLP003","CL","107001427",NA,45,NA,NA,"CO","Clinical Observation","CLINICAL SIGNS",NA,NA,"NORMAL","NORMAL",NA,NA,NA,NA,NA,NA,NA,NA,8,"2007-06-19T15:05:01",8,NA,NA,NA,NA,NA
"GLP003","CL","107001427",NA,46,NA,NA,"CO","Clinical Observation","CLINICAL SIGNS",NA,NA,"NORMAL","NORMAL",NA,NA,NA,NA,NA,NA,NA,NA,9,"2007-06-20T11:10:10",9,NA,NA,NA,NA,NA
"GLP003","CL","107001427",NA,47,NA,NA,"CO","Clinical Observation","CLINICAL SIGNS",NA,NA,"NORMAL","NORMAL",NA,NA,NA,NA,NA,NA,NA,NA,10,"2007-06-21T10:33:34",10,NA,NA,NA,NA,NA
"GLP003","CL","107001427",NA,48,NA,NA,"CO","Clinical Observation","CLINICAL SIGNS",NA,NA,"NORMAL","NORMAL",NA,NA,NA,NA,NA,NA,NA,NA,11,"2007-06-22T11:08:18",11,NA,NA,NA,NA,NA
"GLP003","CL","107001427",NA,49,NA,NA,"CO","Clinical Observation","CLINICAL SIGNS",NA,NA,"NORMAL","NORMAL",NA,NA,NA,NA,NA,NA,NA,NA,12,"2007-06-23T15:00:19",12,NA,NA,NA,NA,NA
"GLP003","CL","107001427",NA,50,NA,NA,"CO","Clinical Observation","CLINICAL SIGNS",NA,NA,"NORMAL","NORMAL",NA,NA,NA,NA,NA,NA,NA,NA,13,"2007-06-24T14:12:47",13,NA,NA,NA,NA,NA
"GLP003","CL","107001427",NA,51,NA,NA,"CO","Clinical Observation","CLINICAL SIGNS",NA,NA,"NORMAL","NORMAL",NA,NA,NA,NA,NA,NA,NA,NA,14,"2007-06-25T14:36:22",14,NA,NA,NA,NA,NA
"GLP003","CL","107001427",NA,52,NA,NA,"CO","Clinical Observation","CLINICAL SIGNS",NA,NA,"NORMAL","NORMAL",NA,NA,NA,NA,NA,NA,NA,NA,15,"2007-06-26T13:04:00",15,NA,NA,NA,NA,NA
"GLP003","CL","107001427",NA,53,NA,NA,"CO","Clinical Observation","CLINICAL SIGNS",NA,NA,"NORMAL","NORMAL",NA,NA,NA,NA,NA,NA,NA,NA,16,"2007-06-27T11:22:48",16,NA,NA,NA,NA,NA
"GLP003","CL","107001427",NA,54,NA,NA,"CO","Clinical Observation","CLINICAL SIGNS",NA,NA,"NORMAL","NORMAL",NA,NA,NA,NA,NA,NA,NA,NA,17,"2007-06-28T13:48:12",17,NA,NA,NA,NA,NA
"GLP003","CL","107001427",NA,55,NA,NA,"CO","Clinical Observation","CLINICAL SIGNS",NA,NA,"NORMAL","NORMAL",NA,NA,NA,NA,NA,NA,NA,NA,18,"2007-06-29T13:13:09",18,NA,NA,NA,NA,NA
"GLP003","CL","107001427",NA,56,NA,NA,"CO","Clinical Observation","CLINICAL SIGNS",NA,NA,"NORMAL","NORMAL",NA,NA,NA,NA,NA,NA,NA,NA,19,"2007-06-30T13:30:41",19,NA,NA,NA,NA,NA
"GLP003","CL","107001427",NA,57,NA,NA,"CO","Clinical Observation","CLINICAL SIGNS",NA,NA,"NORMAL","NORMAL",NA,NA,NA,NA,NA,NA,NA,NA,20,"2007-07-01T11:24:17",20,NA,NA,NA,NA,NA
"GLP003","CL","107001427",NA,58,NA,NA,"CO","Clinical Observation","CLINICAL SIGNS",NA,NA,"NORMAL","NORMAL",NA,NA,NA,NA,NA,NA,NA,NA,21,"2007-07-02T12:30:50",21,NA,NA,NA,NA,NA
"GLP003","CL","107001427",NA,59,NA,NA,"CO","Clinical Observation","CLINICAL SIGNS",NA,NA,"NORMAL","NORMAL",NA,NA,NA,NA,NA,NA,NA,NA,22,"2007-07-03T07:59:11",22,NA,NA,NA,NA,NA
"GLP003","CL","107001427",NA,60,NA,NA,"CO","Clinical Observation","CLINICAL SIGNS",NA,NA,"NORMAL","NORMAL",NA,NA,NA,NA,NA,NA,NA,NA,23,"2007-07-04T12:50:24",23,NA,NA,NA,NA,NA
"GLP003","CL","107001427",NA,61,NA,NA,"CO","Clinical Observation","CLINICAL SIGNS",NA,NA,"NORMAL","NORMAL",NA,NA,NA,NA,NA,NA,NA,NA,24,"2007-07-05T14:24:15",24,NA,NA,NA,NA,NA
"GLP003","CL","107001427",NA,62,NA,NA,"CO","Clinical Observation","CLINICAL SIGNS",NA,NA,"NORMAL","NORMAL",NA,NA,NA,NA,NA,NA,NA,NA,25,"2007-07-06T11:26:38",25,NA,NA,NA,NA,NA
"GLP003","CL","107001427",NA,63,NA,NA,"CO","Clinical Observation","CLINICAL SIGNS",NA,NA,"NORMAL","NORMAL",NA,NA,NA,NA,NA,NA,NA,NA,26,"2007-07-07T12:21:26",26,NA,NA,NA,NA,NA
"GLP003","CL","107001427",NA,64,NA,NA,"CO","Clinical Observation","CLINICAL SIGNS",NA,NA,"NORMAL","NORMAL",NA,NA,NA,NA,NA,NA,NA,NA,27,"2007-07-08T12:52:44",27,NA,NA,NA,NA,NA
"GLP003","CL","107001427",NA,65,NA,NA,"CO","Clinical Observation","CLINICAL SIGNS",NA,NA,"NORMAL","NORMAL",NA,NA,NA,NA,NA,NA,NA,NA,28,"2007-07-09T12:02:12",28,NA,NA,NA,NA,NA
"GLP003","CL","107001427",NA,66,NA,NA,"CO","Clinical Observation","CLINICAL SIGNS",NA,NA,"Feces, unformed","Feces, unformed",NA,NA,NA,NA,NA,NA,NA,NA,2,"2007-06-13T07:05:00",2,NA,NA,NA,NA,NA
"GLP003","CL","107001427",NA,67,NA,NA,"CO","Clinical Observation","CLINICAL SIGNS",NA,NA,"Chromorhinorrhea","Chromorhinorrhea",NA,NA,NA,NA,NA,NA,NA,NA,2,"2007-06-13T14:46:45",2,NA,NA,NA,NA,NA
"GLP003","CL","107001427",NA,68,NA,NA,"CO","Clinical Observation","CLINICAL SIGNS",NA,NA,"Feces, unformed","Feces, unformed",NA,NA,NA,NA,NA,NA,NA,NA,4,"2007-06-15T07:09:00",4,NA,NA,NA,NA,NA
"GLP003","CL","107001427",NA,69,NA,NA,"CO","Clinical Observation","CLINICAL SIGNS",NA,NA,"Feces, unformed","Feces, unformed",NA,NA,NA,NA,NA,NA,NA,NA,8,"2007-06-19T07:28:00",8,NA,NA,NA,NA,NA
"GLP003","CL","107001427",NA,70,NA,NA,"CO","Clinical Observation","CLINICAL SIGNS",NA,NA,"Feces, unformed","Feces, unformed",NA,NA,NA,NA,NA,NA,NA,NA,10,"2007-06-21T07:30:00",10,NA,NA,NA,NA,NA
"GLP003","CL","107001427",NA,71,NA,NA,"CO","Clinical Observation","CLINICAL SIGNS",NA,NA,"Feces, unformed","Feces, unformed",NA,NA,NA,NA,NA,NA,NA,NA,14,"2007-06-25T07:04:00",14,NA,NA,NA,NA,NA
"GLP003","CL","107001427",NA,72,NA,NA,"CO","Clinical Observation","CLINICAL SIGNS",NA,NA,"Feces, unformed","Feces, unformed",NA,NA,NA,NA,NA,NA,NA,NA,24,"2007-07-05T06:59:00",24,NA,NA,NA,NA,NA
"GLP003","CL","107001427",NA,73,NA,NA,"CO","Clinical Observation","CLINICAL SIGNS",NA,NA,"End-of-Dose Necropsy","End-of-Dose Necropsy",NA,NA,NA,NA,NA,NA,NA,NA,29,"2007-07-10T11:32:21",29,NA,NA,NA,NA,NA
"GLP003","CL","107001427",NA,74,NA,NA,"EOBS","Ophthalmologic Examinations","OPHTHALMOLOGY",NA,NA,"NORMAL","NORMAL",NA,NA,NA,NA,NA,NA,NA,NA,-5,"2007-06-07T15:34:11",-5,NA,NA,NA,NA,NA
"GLP003","CL","107001427",NA,75,NA,NA,"EOBS","Ophthalmologic Examinations","OPHTHALMOLOGY",NA,NA,"NORMAL","NORMAL",NA,NA,NA,NA,NA,NA,NA,NA,22,"2007-07-03T09:37:59",22,NA,NA,NA,NA,NA
"GLP003","CL","107001427",NA,76,NA,NA,"VOBS","Veterinary Examinations","PHYSICAL EXAM",NA,NA,"NORMAL","NORMAL",NA,NA,NA,NA,NA,NA,NA,NA,-5,"2007-06-07T08:15:15",-5,NA,NA,NA,NA,NA
"GLP003","CL","107001427",NA,77,NA,NA,"VOBS","Veterinary Examinations","PHYSICAL EXAM",NA,NA,"NORMAL","NORMAL",NA,NA,NA,NA,NA,NA,NA,NA,22,"2007-07-03T10:33:23",22,NA,NA,NA,NA,NA
"GLP003","CL","107001458",NA,78,NA,NA,"CO","Clinical Observation","CLINICAL SIGNS",NA,NA,"NORMAL","NORMAL",NA,NA,NA,NA,NA,NA,NA,NA,1,"2007-06-12T12:31:16",1,NA,NA,NA,NA,NA
"GLP003","CL","107001458",NA,79,NA,NA,"CO","Clinical Observation","CLINICAL SIGNS",NA,NA,"NORMAL","NORMAL",NA,NA,NA,NA,NA,NA,NA,NA,2,"2007-06-13T14:46:50",2,NA,NA,NA,NA,NA
"GLP003","CL","107001458",NA,80,NA,NA,"CO","Clinical Observation","CLINICAL SIGNS",NA,NA,"NORMAL","NORMAL",NA,NA,NA,NA,NA,NA,NA,NA,3,"2007-06-14T15:22:30",3,NA,NA,NA,NA,NA
"GLP003","CL","107001458",NA,81,NA,NA,"CO","Clinical Observation","CLINICAL SIGNS",NA,NA,"NORMAL","NORMAL",NA,NA,NA,NA,NA,NA,NA,NA,4,"2007-06-15T11:07:44",4,NA,NA,NA,NA,NA
"GLP003","CL","107001458",NA,82,NA,NA,"CO","Clinical Observation","CLINICAL SIGNS",NA,NA,"NORMAL","NORMAL",NA,NA,NA,NA,NA,NA,NA,NA,5,"2007-06-16T15:18:35",5,NA,NA,NA,NA,NA
"GLP003","CL","107001458",NA,83,NA,NA,"CO","Clinical Observation","CLINICAL SIGNS",NA,NA,"NORMAL","NORMAL",NA,NA,NA,NA,NA,NA,NA,NA,6,"2007-06-17T10:32:51",6,NA,NA,NA,NA,NA
"GLP003","CL","107001458",NA,84,NA,NA,"CO","Clinical Observation","CLINICAL SIGNS",NA,NA,"NORMAL","NORMAL",NA,NA,NA,NA,NA,NA,NA,NA,7,"2007-06-18T09:53:44",7,NA,NA,NA,NA,NA
"GLP003","CL","107001458",NA,85,NA,NA,"CO","Clinical Observation","CLINICAL SIGNS",NA,NA,"NORMAL","NORMAL",NA,NA,NA,NA,NA,NA,NA,NA,8,"2007-06-19T15:05:06",8,NA,NA,NA,NA,NA
"GLP003","CL","107001458",NA,86,NA,NA,"CO","Clinical Observation","CLINICAL SIGNS",NA,NA,"NORMAL","NORMAL",NA,NA,NA,NA,NA,NA,NA,NA,9,"2007-06-20T11:10:12",9,NA,NA,NA,NA,NA
"GLP003","CL","107001458",NA,87,NA,NA,"CO","Clinical Observation","CLINICAL SIGNS",NA,NA,"NORMAL","NORMAL",NA,NA,NA,NA,NA,NA,NA,NA,10,"2007-06-21T10:33:35",10,NA,NA,NA,NA,NA
"GLP003","CL","107001458",NA,88,NA,NA,"CO","Clinical Observation","CLINICAL SIGNS",NA,NA,"NORMAL","NORMAL",NA,NA,NA,NA,NA,NA,NA,NA,11,"2007-06-22T11:08:31",11,NA,NA,NA,NA,NA
"GLP003","CL","107001458",NA,89,NA,NA,"CO","Clinical Observation","CLINICAL SIGNS",NA,NA,"NORMAL","NORMAL",NA,NA,NA,NA,NA,NA,NA,NA,12,"2007-06-23T15:00:23",12,NA,NA,NA,NA,NA
"GLP003","CL","107001458",NA,90,NA,NA,"CO","Clinical Observation","CLINICAL SIGNS",NA,NA,"NORMAL","NORMAL",NA,NA,NA,NA,NA,NA,NA,NA,13,"2007-06-24T14:12:49",13,NA,NA,NA,NA,NA
"GLP003","CL","107001458",NA,91,NA,NA,"CO","Clinical Observation","CLINICAL SIGNS",NA,NA,"NORMAL","NORMAL",NA,NA,NA,NA,NA,NA,NA,NA,14,"2007-06-25T14:36:24",14,NA,NA,NA,NA,NA
"GLP003","CL","107001458",NA,92,NA,NA,"CO","Clinical Observation","CLINICAL SIGNS",NA,NA,"NORMAL","NORMAL",NA,NA,NA,NA,NA,NA,NA,NA,15,"2007-06-26T13:04:02",15,NA,NA,NA,NA,NA
"GLP003","CL","107001458",NA,93,NA,NA,"CO","Clinical Observation","CLINICAL SIGNS",NA,NA,"NORMAL","NORMAL",NA,NA,NA,NA,NA,NA,NA,NA,16,"2007-06-27T11:22:50",16,NA,NA,NA,NA,NA
"GLP003","CL","107001458",NA,94,NA,NA,"CO","Clinical Observation","CLINICAL SIGNS",NA,NA,"NORMAL","NORMAL",NA,NA,NA,NA,NA,NA,NA,NA,17,"2007-06-28T13:48:13",17,NA,NA,NA,NA,NA
"GLP003","CL","107001458",NA,95,NA,NA,"CO","Clinical Observation","CLINICAL SIGNS",NA,NA,"NORMAL","NORMAL",NA,NA,NA,NA,NA,NA,NA,NA,18,"2007-06-29T13:13:10",18,NA,NA,NA,NA,NA
"GLP003","CL","107001458",NA,96,NA,NA,"CO","Clinical Observation","CLINICAL SIGNS",NA,NA,"NORMAL","NORMAL",NA,NA,NA,NA,NA,NA,NA,NA,19,"2007-06-30T13:30:43",19,NA,NA,NA,NA,NA
"GLP003","CL","107001458",NA,97,NA,NA,"CO","Clinical Observation","CLINICAL SIGNS",NA,NA,"NORMAL","NORMAL",NA,NA,NA,NA,NA,NA,NA,NA,20,"2007-07-01T11:24:18",20,NA,NA,NA,NA,NA
"GLP003","CL","107001458",NA,98,NA,NA,"CO","Clinical Observation","CLINICAL SIGNS",NA,NA,"NORMAL","NORMAL",NA,NA,NA,NA,NA,NA,NA,NA,21,"2007-07-02T12:30:52",21,NA,NA,NA,NA,NA
"GLP003","CL","107001458",NA,99,NA,NA,"CO","Clinical Observation","CLINICAL SIGNS",NA,NA,"NORMAL","NORMAL",NA,NA,NA,NA,NA,NA,NA,NA,22,"2007-07-03T07:59:12",22,NA,NA,NA,NA,NA
"GLP003","CL","107001458",NA,100,NA,NA,"CO","Clinical Observation","CLINICAL SIGNS",NA,NA,"NORMAL","NORMAL",NA,NA,NA,NA,NA,NA,NA,NA,23,"2007-07-04T12:50:25",23,NA,NA,NA,NA,NA
"GLP003","CL","107001458",NA,101,NA,NA,"CO","Clinical Observation","CLINICAL SIGNS",NA,NA,"NORMAL","NORMAL",NA,NA,NA,NA,NA,NA,NA,NA,24,"2007-07-05T14:24:17",24,NA,NA,NA,NA,NA
"GLP003","CL","107001458",NA,102,NA,NA,"CO","Clinical Observation","CLINICAL SIGNS",NA,NA,"NORMAL","NORMAL",NA,NA,NA,NA,NA,NA,NA,NA,25,"2007-07-06T11:26:40",25,NA,NA,NA,NA,NA
"GLP003","CL","107001458",NA,103,NA,NA,"CO","Clinical Observation","CLINICAL SIGNS",NA,NA,"NORMAL","NORMAL",NA,NA,NA,NA,NA,NA,NA,NA,26,"2007-07-07T12:21:27",26,NA,NA,NA,NA,NA
"GLP003","CL","107001458",NA,104,NA,NA,"CO","Clinical Observation","CLINICAL SIGNS",NA,NA,"NORMAL","NORMAL",NA,NA,NA,NA,NA,NA,NA,NA,27,"2007-07-08T12:52:45",27,NA,NA,NA,NA,NA
"GLP003","CL","107001458",NA,105,NA,NA,"CO","Clinical Observation","CLINICAL SIGNS",NA,NA,"NORMAL","NORMAL",NA,NA,NA,NA,NA,NA,NA,NA,28,"2007-07-09T12:02:15",28,NA,NA,NA,NA,NA
"GLP003","CL","107001458",NA,106,NA,NA,"CO","Clinical Observation","CLINICAL SIGNS",NA,NA,"Feces, unformed","Feces, unformed",NA,NA,NA,NA,NA,NA,NA,NA,3,"2007-06-14T06:09:00",3,NA,NA,NA,NA,NA
"GLP003","CL","107001458",NA,107,NA,NA,"CO","Clinical Observation","CLINICAL SIGNS",NA,NA,"Feces, unformed","Feces, unformed",NA,NA,NA,NA,NA,NA,NA,NA,16,"2007-06-27T06:55:00",16,NA,NA,NA,NA,NA
"GLP003","CL","107001458",NA,108,NA,NA,"CO","Clinical Observation","CLINICAL SIGNS",NA,NA,"Feces, unformed","Feces, unformed",NA,NA,NA,NA,NA,NA,NA,NA,17,"2007-06-28T07:05:00",17,NA,NA,NA,NA,NA
"GLP003","CL","107001458",NA,109,NA,NA,"CO","Clinical Observation","CLINICAL SIGNS",NA,NA,"Feces, unformed","Feces, unformed",NA,NA,NA,NA,NA,NA,NA,NA,23,"2007-07-04T06:58:00",23,NA,NA,NA,NA,NA
"GLP003","CL","107001458",NA,110,NA,NA,"CO","Clinical Observation","CLINICAL SIGNS",NA,NA,"End-of-Dose Necropsy","End-of-Dose Necropsy",NA,NA,NA,NA,NA,NA,NA,NA,29,"2007-07-10T11:32:28",29,NA,NA,NA,NA,NA
"GLP003","CL","107001458",NA,111,NA,NA,"EOBS","Ophthalmologic Examinations","OPHTHALMOLOGY",NA,NA,"NORMAL","NORMAL",NA,NA,NA,NA,NA,NA,NA,NA,-5,"2007-06-07T15:34:11",-5,NA,NA,NA,NA,NA
"GLP003","CL","107001458",NA,112,NA,NA,"EOBS","Ophthalmologic Examinations","OPHTHALMOLOGY",NA,NA,"NORMAL","NORMAL",NA,NA,NA,NA,NA,NA,NA,NA,22,"2007-07-03T09:37:59",22,NA,NA,NA,NA,NA
"GLP003","CL","107001458",NA,113,NA,NA,"VOBS","Veterinary Examinations","PHYSICAL EXAM",NA,NA,"NORMAL","NORMAL",NA,NA,NA,NA,NA,NA,NA,NA,-5,"2007-06-07T08:15:15",-5,NA,NA,NA,NA,NA
"GLP003","CL","107001458",NA,114,NA,NA,"VOBS","Veterinary Examinations","PHYSICAL EXAM",NA,NA,"NORMAL","NORMAL",NA,NA,NA,NA,NA,NA,NA,NA,22,"2007-07-03T10:33:23",22,NA,NA,NA,NA,NA
"GLP003","CL","107001389",NA,115,NA,NA,"CO","Clinical Observation","CLINICAL SIGNS",NA,NA,"NORMAL","NORMAL",NA,NA,NA,NA,NA,NA,NA,NA,1,"2007-06-12T12:31:18",1,NA,NA,NA,NA,NA
"GLP003","CL","107001389",NA,116,NA,NA,"CO","Clinical Observation","CLINICAL SIGNS",NA,NA,"NORMAL","NORMAL",NA,NA,NA,NA,NA,NA,NA,NA,2,"2007-06-13T14:46:58",2,NA,NA,NA,NA,NA
"GLP003","CL","107001389",NA,117,NA,NA,"CO","Clinical Observation","CLINICAL SIGNS",NA,NA,"NORMAL","NORMAL",NA,NA,NA,NA,NA,NA,NA,NA,3,"2007-06-14T15:22:32",3,NA,NA,NA,NA,NA
"GLP003","CL","107001389",NA,118,NA,NA,"CO","Clinical Observation","CLINICAL SIGNS",NA,NA,"NORMAL","NORMAL",NA,NA,NA,NA,NA,NA,NA,NA,4,"2007-06-15T11:07:46",4,NA,NA,NA,NA,NA
"GLP003","CL","107001389",NA,119,NA,NA,"VOBS","Veterinary Examinations","PHYSICAL EXAM",NA,NA,"Alopecia, Forefeet/hands, both","Alopecia",NA,NA,NA,"Forefeet/hands, both",NA,NA,NA,NA,22,"2007-07-03T09:51:10",22,NA,NA,NA,NA,NA
"GLP003","CL","107001389",NA,120,NA,NA,"CO","Clinical Observation","CLINICAL SIGNS",NA,NA,"Feces, unformed","Feces, unformed",NA,NA,NA,NA,NA,NA,NA,NA,2,"2007-06-13T07:05:00",2,NA,NA,NA,NA,NA
"GLP003","CL","107001389",NA,121,NA,NA,"CO","Clinical Observation","CLINICAL SIGNS",NA,NA,"Feces, mucous","Feces, mucous",NA,NA,NA,NA,NA,NA,NA,NA,4,"2007-06-15T07:09:00",4,NA,NA,NA,NA,NA
"GLP003","CL","107001389",NA,122,NA,NA,"CO","Clinical Observation","CLINICAL SIGNS",NA,NA,"Feces, unformed","Feces, unformed",NA,NA,NA,NA,NA,NA,NA,NA,4,"2007-06-15T07:09:00",4,NA,NA,NA,NA,NA
"GLP003","CL","107001389",NA,123,NA,NA,"CO","Clinical Observation","CLINICAL SIGNS",NA,NA,"Alopecia, Forelimb, right","Alopecia",NA,NA,NA,"Forelimb, right",NA,NA,NA,NA,5,"2007-06-16T15:18:54",5,NA,NA,NA,NA,NA
"GLP003","CL","107001389",NA,124,NA,NA,"CO","Clinical Observation","CLINICAL SIGNS",NA,NA,"Alopecia, Forelimbs, both","Alopecia",NA,NA,NA,"Forelimbs, both",NA,NA,NA,NA,6,"2007-06-17T10:33:37",6,NA,NA,NA,NA,NA
"GLP003","CL","107001389",NA,125,NA,NA,"CO","Clinical Observation","CLINICAL SIGNS",NA,NA,"Scab, focal, Forelimb, right","Scab, focal",NA,NA,NA,"Forelimb, right",NA,NA,NA,NA,7,"2007-06-18T09:54:19",7,NA,NA,NA,NA,NA
"GLP003","CL","107001389",NA,126,NA,NA,"CO","Clinical Observation","CLINICAL SIGNS",NA,NA,"Alopecia, Forelimbs, both","Alopecia",NA,NA,NA,"Forelimbs, both",NA,NA,NA,NA,7,"2007-06-18T09:54:19",7,NA,NA,NA,NA,NA
"GLP003","CL","107001389",NA,127,NA,NA,"CO","Clinical Observation","CLINICAL SIGNS",NA,NA,"Alopecia, Forelimbs, both","Alopecia",NA,NA,NA,"Forelimbs, both",NA,NA,NA,NA,8,"2007-06-19T15:05:14",8,NA,NA,NA,NA,NA
"GLP003","CL","107001389",NA,128,NA,NA,"CO","Clinical Observation","CLINICAL SIGNS",NA,NA,"Scab, focal, Forelimb, right","Scab, focal",NA,NA,NA,"Forelimb, right",NA,NA,NA,NA,8,"2007-06-19T15:05:14",8,NA,NA,NA,NA,NA
"GLP003","CL","107001389",NA,129,NA,NA,"CO","Clinical Observation","CLINICAL SIGNS",NA,NA,"Alopecia, Forelimbs, both","Alopecia",NA,NA,NA,"Forelimbs, both",NA,NA,NA,NA,9,"2007-06-20T11:10:17",9,NA,NA,NA,NA,NA
"GLP003","CL","107001389",NA,130,NA,NA,"CO","Clinical Observation","CLINICAL SIGNS",NA,NA,"Scab, focal, Forelimb, right","Scab, focal",NA,NA,NA,"Forelimb, right",NA,NA,NA,NA,9,"2007-06-20T11:10:17",9,NA,NA,NA,NA,NA
"GLP003","CL","107001389",NA,131,NA,NA,"CO","Clinical Observation","CLINICAL SIGNS",NA,NA,"Feces, unformed","Feces, unformed",NA,NA,NA,NA,NA,NA,NA,NA,10,"2007-06-21T07:30:00",10,NA,NA,NA,NA,NA
"GLP003","CL","107001389",NA,132,NA,NA,"CO","Clinical Observation","CLINICAL SIGNS",NA,NA,"Alopecia, Forelimbs, both","Alopecia",NA,NA,NA,"Forelimbs, both",NA,NA,NA,NA,10,"2007-06-21T10:33:42",10,NA,NA,NA,NA,NA
"GLP003","CL","107001389",NA,133,NA,NA,"CO","Clinical Observation","CLINICAL SIGNS",NA,NA,"Scab, focal, Forelimb, right","Scab, focal",NA,NA,NA,"Forelimb, right",NA,NA,NA,NA,10,"2007-06-21T10:33:42",10,NA,NA,NA,NA,NA
"GLP003","CL","107001389",NA,134,NA,NA,"CO","Clinical Observation","CLINICAL SIGNS",NA,NA,"Scab, focal, Forelimb, right","Scab, focal",NA,NA,NA,"Forelimb, right",NA,NA,NA,NA,11,"2007-06-22T11:08:53",11,NA,NA,NA,NA,NA
"GLP003","CL","107001389",NA,135,NA,NA,"CO","Clinical Observation","CLINICAL SIGNS",NA,NA,"Alopecia, Forelimbs, both","Alopecia",NA,NA,NA,"Forelimbs, both",NA,NA,NA,NA,11,"2007-06-22T11:08:53",11,NA,NA,NA,NA,NA
"GLP003","CL","107001389",NA,136,NA,NA,"CO","Clinical Observation","CLINICAL SIGNS",NA,NA,"Scab, focal, Forelimb, right","Scab, focal",NA,NA,NA,"Forelimb, right",NA,NA,NA,NA,12,"2007-06-23T15:00:52",12,NA,NA,NA,NA,NA
"GLP003","CL","107001389",NA,137,NA,NA,"CO","Clinical Observation","CLINICAL SIGNS",NA,NA,"Alopecia, Forelimbs, both","Alopecia",NA,NA,NA,"Forelimbs, both",NA,NA,NA,NA,12,"2007-06-23T15:00:52",12,NA,NA,NA,NA,NA
"GLP003","CL","107001389",NA,138,NA,NA,"CO","Clinical Observation","CLINICAL SIGNS",NA,NA,"Scab, focal, Forelimb, right","Scab, focal",NA,NA,NA,"Forelimb, right",NA,NA,NA,NA,13,"2007-06-24T14:13:07",13,NA,NA,NA,NA,NA
"GLP003","CL","107001389",NA,139,NA,NA,"CO","Clinical Observation","CLINICAL SIGNS",NA,NA,"Alopecia, Forelimbs, both","Alopecia",NA,NA,NA,"Forelimbs, both",NA,NA,NA,NA,13,"2007-06-24T14:13:07",13,NA,NA,NA,NA,NA
"GLP003","CL","107001389",NA,140,NA,NA,"CO","Clinical Observation","CLINICAL SIGNS",NA,NA,"Alopecia, Forelimbs, both","Alopecia",NA,NA,NA,"Forelimbs, both",NA,NA,NA,NA,14,"2007-06-25T14:36:33",14,NA,NA,NA,NA,NA
"GLP003","CL","107001389",NA,141,NA,NA,"CO","Clinical Observation","CLINICAL SIGNS",NA,NA,"Alopecia, Forelimbs, both","Alopecia",NA,NA,NA,"Forelimbs, both",NA,NA,NA,NA,15,"2007-06-26T13:04:06",15,NA,NA,NA,NA,NA
"GLP003","CL","107001389",NA,142,NA,NA,"CO","Clinical Observation","CLINICAL SIGNS",NA,NA,"Alopecia, Forelimbs, both","Alopecia",NA,NA,NA,"Forelimbs, both",NA,NA,NA,NA,16,"2007-06-27T11:22:55",16,NA,NA,NA,NA,NA
"GLP003","CL","107001389",NA,143,NA,NA,"CO","Clinical Observation","CLINICAL SIGNS",NA,NA,"Feces, unformed","Feces, unformed",NA,NA,NA,NA,NA,NA,NA,NA,17,"2007-06-28T07:05:00",17,NA,NA,NA,NA,NA
"GLP003","CL","107001389",NA,144,NA,NA,"CO","Clinical Observation","CLINICAL SIGNS",NA,NA,"Alopecia, Forelimbs, both","Alopecia",NA,NA,NA,"Forelimbs, both",NA,NA,NA,NA,17,"2007-06-28T13:48:18",17,NA,NA,NA,NA,NA
"GLP003","CL","107001389",NA,145,NA,NA,"CO","Clinical Observation","CLINICAL SIGNS",NA,NA,"Feces, unformed","Feces, unformed",NA,NA,NA,NA,NA,NA,NA,NA,18,"2007-06-29T06:54:00",18,NA,NA,NA,NA,NA
"GLP003","CL","107001389",NA,146,NA,NA,"CO","Clinical Observation","CLINICAL SIGNS",NA,NA,"Alopecia, Forelimbs, both","Alopecia",NA,NA,NA,"Forelimbs, both",NA,NA,NA,NA,18,"2007-06-29T13:13:14",18,NA,NA,NA,NA,NA
"GLP003","CL","107001389",NA,147,NA,NA,"CO","Clinical Observation","CLINICAL SIGNS",NA,NA,"Alopecia, Forelimbs, both","Alopecia",NA,NA,NA,"Forelimbs, both",NA,NA,NA,NA,19,"2007-06-30T13:31:14",19,NA,NA,NA,NA,NA
"GLP003","CL","107001389",NA,148,NA,NA,"CO","Clinical Observation","CLINICAL SIGNS",NA,NA,"Alopecia, Forelimbs, both","Alopecia",NA,NA,NA,"Forelimbs, both",NA,NA,NA,NA,20,"2007-07-01T11:24:45",20,NA,NA,NA,NA,NA
"GLP003","CL","107001389",NA,149,NA,NA,"CO","Clinical Observation","CLINICAL SIGNS",NA,NA,"Feces, unformed","Feces, unformed",NA,NA,NA,NA,NA,NA,NA,NA,21,"2007-07-02T07:04:00",21,NA,NA,NA,NA,NA
"GLP003","CL","107001389",NA,150,NA,NA,"CO","Clinical Observation","CLINICAL SIGNS",NA,NA,"Alopecia, Forelimbs, both","Alopecia",NA,NA,NA,"Forelimbs, both",NA,NA,NA,NA,21,"2007-07-02T12:30:56",21,NA,NA,NA,NA,NA
"GLP003","CL","107001389",NA,151,NA,NA,"CO","Clinical Observation","CLINICAL SIGNS",NA,NA,"Alopecia, Forelimbs, both","Alopecia",NA,NA,NA,"Forelimbs, both",NA,NA,NA,NA,22,"2007-07-03T07:59:17",22,NA,NA,NA,NA,NA
"GLP003","CL","107001389",NA,152,NA,NA,"CO","Clinical Observation","CLINICAL SIGNS",NA,NA,"Alopecia, Forelimbs, both","Alopecia",NA,NA,NA,"Forelimbs, both",NA,NA,NA,NA,23,"2007-07-04T12:50:44",23,NA,NA,NA,NA,NA
"GLP003","CL","107001389",NA,153,NA,NA,"CO","Clinical Observation","CLINICAL SIGNS",NA,NA,"Alopecia, Forelimbs, both","Alopecia",NA,NA,NA,"Forelimbs, both",NA,NA,NA,NA,24,"2007-07-05T14:24:22",24,NA,NA,NA,NA,NA
"GLP003","CL","107001389",NA,154,NA,NA,"CO","Clinical Observation","CLINICAL SIGNS",NA,NA,"Alopecia, Forelimbs, both","Alopecia",NA,NA,NA,"Forelimbs, both",NA,NA,NA,NA,25,"2007-07-06T11:27:45",25,NA,NA,NA,NA,NA
"GLP003","CL","107001389",NA,155,NA,NA,"CO","Clinical Observation","CLINICAL SIGNS",NA,NA,"Chromorhinorrhea","Chromorhinorrhea",NA,NA,NA,NA,NA,NA,NA,NA,25,"2007-07-06T11:27:45",25,NA,NA,NA,NA,NA
"GLP003","CL","107001389",NA,156,NA,NA,"CO","Clinical Observation","CLINICAL SIGNS",NA,NA,"Alopecia, Forelimbs, both","Alopecia",NA,NA,NA,"Forelimbs, both",NA,NA,NA,NA,26,"2007-07-07T12:22:00",26,NA,NA,NA,NA,NA
"GLP003","CL","107001389",NA,157,NA,NA,"CO","Clinical Observation","CLINICAL SIGNS",NA,NA,"Alopecia, Forelimbs, both","Alopecia",NA,NA,NA,"Forelimbs, both",NA,NA,NA,NA,27,"2007-07-08T12:53:16",27,NA,NA,NA,NA,NA
"GLP003","CL","107001389",NA,158,NA,NA,"CO","Clinical Observation","CLINICAL SIGNS",NA,NA,"Alopecia, Forelimbs, both","Alopecia",NA,NA,NA,"Forelimbs, both",NA,NA,NA,NA,28,"2007-07-09T12:02:21",28,NA,NA,NA,NA,NA
"GLP003","CL","107001389",NA,159,NA,NA,"CO","Clinical Observation","CLINICAL SIGNS",NA,NA,"End-of-Dose Necropsy","End-of-Dose Necropsy",NA,NA,NA,NA,NA,NA,NA,NA,29,"2007-07-10T11:32:39",29,NA,NA,NA,NA,NA
"GLP003","CL","107001389",NA,160,NA,NA,"EOBS","Ophthalmologic Examinations","OPHTHALMOLOGY",NA,NA,"NORMAL","NORMAL",NA,NA,NA,NA,NA,NA,NA,NA,-5,"2007-06-07T15:34:11",-5,NA,NA,NA,NA,NA
"GLP003","CL","107001389",NA,161,NA,NA,"EOBS","Ophthalmologic Examinations","OPHTHALMOLOGY",NA,NA,"NORMAL","NORMAL",NA,NA,NA,NA,NA,NA,NA,NA,22,"2007-07-03T09:37:59",22,NA,NA,NA,NA,NA
"GLP003","CL","107001389",NA,162,NA,NA,"VOBS","Veterinary Examinations","PHYSICAL EXAM",NA,NA,"NORMAL","NORMAL",NA,NA,NA,NA,NA,NA,NA,NA,-5,"2007-06-07T08:15:15",-5,NA,NA,NA,NA,NA
"GLP003","CL","107001377",NA,163,NA,NA,"CO","Clinical Observation","CLINICAL SIGNS",NA,NA,"NORMAL","NORMAL",NA,NA,NA,NA,NA,NA,NA,NA,1,"2007-06-12T12:31:20",1,NA,NA,NA,NA,NA
"GLP003","CL","107001377",NA,164,NA,NA,"CO","Clinical Observation","CLINICAL SIGNS",NA,NA,"NORMAL","NORMAL",NA,NA,NA,NA,NA,NA,NA,NA,2,"2007-06-13T14:47:01",2,NA,NA,NA,NA,NA
"GLP003","CL","107001377",NA,165,NA,NA,"CO","Clinical Observation","CLINICAL SIGNS",NA,NA,"NORMAL","NORMAL",NA,NA,NA,NA,NA,NA,NA,NA,3,"2007-06-14T15:22:40",3,NA,NA,NA,NA,NA
"GLP003","CL","107001377",NA,166,NA,NA,"CO","Clinical Observation","CLINICAL SIGNS",NA,NA,"NORMAL","NORMAL",NA,NA,NA,NA,NA,NA,NA,NA,4,"2007-06-15T11:07:47",4,NA,NA,NA,NA,NA
"GLP003","CL","107001377",NA,167,NA,NA,"CO","Clinical Observation","CLINICAL SIGNS",NA,NA,"NORMAL","NORMAL",NA,NA,NA,NA,NA,NA,NA,NA,5,"2007-06-16T15:19:09",5,NA,NA,NA,NA,NA
"GLP003","CL","107001377",NA,168,NA,NA,"CO","Clinical Observation","CLINICAL SIGNS",NA,NA,"NORMAL","NORMAL",NA,NA,NA,NA,NA,NA,NA,NA,6,"2007-06-17T10:33:56",6,NA,NA,NA,NA,NA
"GLP003","CL","107001377",NA,169,NA,NA,"CO","Clinical Observation","CLINICAL SIGNS",NA,NA,"NORMAL","NORMAL",NA,NA,NA,NA,NA,NA,NA,NA,7,"2007-06-18T09:56:18",7,NA,NA,NA,NA,NA
"GLP003","CL","107001377",NA,170,NA,NA,"CO","Clinical Observation","CLINICAL SIGNS",NA,NA,"NORMAL","NORMAL",NA,NA,NA,NA,NA,NA,NA,NA,8,"2007-06-19T15:05:18",8,NA,NA,NA,NA,NA
"GLP003","CL","107001377",NA,171,NA,NA,"CO","Clinical Observation","CLINICAL SIGNS",NA,NA,"NORMAL","NORMAL",NA,NA,NA,NA,NA,NA,NA,NA,9,"2007-06-20T11:13:02",9,NA,NA,NA,NA,NA
"GLP003","CL","107001377",NA,172,NA,NA,"CO","Clinical Observation","CLINICAL SIGNS",NA,NA,"NORMAL","NORMAL",NA,NA,NA,NA,NA,NA,NA,NA,10,"2007-06-21T10:35:40",10,NA,NA,NA,NA,NA
"GLP003","CL","107001377",NA,173,NA,NA,"CO","Clinical Observation","CLINICAL SIGNS",NA,NA,"NORMAL","NORMAL",NA,NA,NA,NA,NA,NA,NA,NA,11,"2007-06-22T11:09:21",11,NA,NA,NA,NA,NA
"GLP003","CL","107001377",NA,174,NA,NA,"CO","Clinical Observation","CLINICAL SIGNS",NA,NA,"NORMAL","NORMAL",NA,NA,NA,NA,NA,NA,NA,NA,12,"2007-06-23T15:03:06",12,NA,NA,NA,NA,NA
"GLP003","CL","107001377",NA,175,NA,NA,"CO","Clinical Observation","CLINICAL SIGNS",NA,NA,"NORMAL","NORMAL",NA,NA,NA,NA,NA,NA,NA,NA,13,"2007-06-24T14:13:09",13,NA,NA,NA,NA,NA
"GLP003","CL","107001377",NA,176,NA,NA,"CO","Clinical Observation","CLINICAL SIGNS",NA,NA,"NORMAL","NORMAL",NA,NA,NA,NA,NA,NA,NA,NA,14,"2007-06-25T14:36:36",14,NA,NA,NA,NA,NA
"GLP003","CL","107001377",NA,177,NA,NA,"VOBS","Veterinary Examinations","PHYSICAL EXAM",NA,NA,"Alopecia, Forefoot/hand, right","Alopecia",NA,NA,NA,"Forefoot/hand, right",NA,NA,NA,NA,22,"2007-07-03T09:50:49",22,NA,NA,NA,NA,NA
"GLP003","CL","107001377",NA,178,NA,NA,"CO","Clinical Observation","CLINICAL SIGNS",NA,NA,"Feces, unformed","Feces, unformed",NA,NA,NA,NA,NA,NA,NA,NA,3,"2007-06-14T06:09:00",3,NA,NA,NA,NA,NA
"GLP003","CL","107001377",NA,179,NA,NA,"CO","Clinical Observation","CLINICAL SIGNS",NA,NA,"Alopecia, Forelimb, right","Alopecia",NA,NA,NA,"Forelimb, right",NA,NA,NA,NA,15,"2007-06-26T13:04:38",15,NA,NA,NA,NA,NA
"GLP003","CL","107001377",NA,180,NA,NA,"CO","Clinical Observation","CLINICAL SIGNS",NA,NA,"Alopecia, Forelimb, right","Alopecia",NA,NA,NA,"Forelimb, right",NA,NA,NA,NA,16,"2007-06-27T11:23:00",16,NA,NA,NA,NA,NA
"GLP003","CL","107001377",NA,181,NA,NA,"CO","Clinical Observation","CLINICAL SIGNS",NA,NA,"Alopecia, Forelimb, right","Alopecia",NA,NA,NA,"Forelimb, right",NA,NA,NA,NA,17,"2007-06-28T13:50:07",17,NA,NA,NA,NA,NA
"GLP003","CL","107001377",NA,182,NA,NA,"CO","Clinical Observation","CLINICAL SIGNS",NA,NA,"Chromorhinorrhea","Chromorhinorrhea",NA,NA,NA,NA,NA,NA,NA,NA,18,"2007-06-29T13:13:59",18,NA,NA,NA,NA,NA
"GLP003","CL","107001377",NA,183,NA,NA,"CO","Clinical Observation","CLINICAL SIGNS",NA,NA,"Alopecia, Forelimb, right","Alopecia",NA,NA,NA,"Forelimb, right",NA,NA,NA,NA,18,"2007-06-29T13:13:59",18,NA,NA,NA,NA,NA
"GLP003","CL","107001377",NA,184,NA,NA,"CO","Clinical Observation","CLINICAL SIGNS",NA,NA,"Alopecia, Forelimb, right","Alopecia",NA,NA,NA,"Forelimb, right",NA,NA,NA,NA,19,"2007-06-30T13:31:45",19,NA,NA,NA,NA,NA
"GLP003","CL","107001377",NA,185,NA,NA,"CO","Clinical Observation","CLINICAL SIGNS",NA,NA,"Alopecia, Forelimb, right","Alopecia",NA,NA,NA,"Forelimb, right",NA,NA,NA,NA,20,"2007-07-01T11:24:50",20,NA,NA,NA,NA,NA
"GLP003","CL","107001377",NA,186,NA,NA,"CO","Clinical Observation","CLINICAL SIGNS",NA,NA,"Alopecia, Forelimb, right","Alopecia",NA,NA,NA,"Forelimb, right",NA,NA,NA,NA,21,"2007-07-02T12:31:25",21,NA,NA,NA,NA,NA
"GLP003","CL","107001377",NA,187,NA,NA,"CO","Clinical Observation","CLINICAL SIGNS",NA,NA,"Chromorhinorrhea","Chromorhinorrhea",NA,NA,NA,NA,NA,NA,NA,NA,21,"2007-07-02T12:31:25",21,NA,NA,NA,NA,NA
"GLP003","CL","107001377",NA,188,NA,NA,"CO","Clinical Observation","CLINICAL SIGNS",NA,NA,"Alopecia, Forelimb, right","Alopecia",NA,NA,NA,"Forelimb, right",NA,NA,NA,NA,22,"2007-07-03T07:59:28",22,NA,NA,NA,NA,NA
"GLP003","CL","107001377",NA,189,NA,NA,"CO","Clinical Observation","CLINICAL SIGNS",NA,NA,"Feces, unformed","Feces, unformed",NA,NA,NA,NA,NA,NA,NA,NA,23,"2007-07-04T06:58:00",23,NA,NA,NA,NA,NA
"GLP003","CL","107001377",NA,190,NA,NA,"CO","Clinical Observation","CLINICAL SIGNS",NA,NA,"Alopecia, Forelimb, right","Alopecia",NA,NA,NA,"Forelimb, right",NA,NA,NA,NA,23,"2007-07-04T12:51:02",23,NA,NA,NA,NA,NA
"GLP003","CL","107001377",NA,191,NA,NA,"CO","Clinical Observation","CLINICAL SIGNS",NA,NA,"Alopecia, Forelimb, right","Alopecia",NA,NA,NA,"Forelimb, right",NA,NA,NA,NA,24,"2007-07-05T14:24:27",24,NA,NA,NA,NA,NA
"GLP003","CL","107001377",NA,192,NA,NA,"CO","Clinical Observation","CLINICAL SIGNS",NA,NA,"Alopecia, Forelimb, right","Alopecia",NA,NA,NA,"Forelimb, right",NA,NA,NA,NA,25,"2007-07-06T11:27:49",25,NA,NA,NA,NA,NA
"GLP003","CL","107001377",NA,193,NA,NA,"CO","Clinical Observation","CLINICAL SIGNS",NA,NA,"Alopecia, Forelimb, right","Alopecia",NA,NA,NA,"Forelimb, right",NA,NA,NA,NA,26,"2007-07-07T12:22:26",26,NA,NA,NA,NA,NA
"GLP003","CL","107001377",NA,194,NA,NA,"CO","Clinical Observation","CLINICAL SIGNS",NA,NA,"Alopecia, Forelimb, right","Alopecia",NA,NA,NA,"Forelimb, right",NA,NA,NA,NA,27,"2007-07-08T12:53:19",27,NA,NA,NA,NA,NA
"GLP003","CL","107001377",NA,195,NA,NA,"CO","Clinical Observation","CLINICAL SIGNS",NA,NA,"Alopecia, Forelimb, right","Alopecia",NA,NA,NA,"Forelimb, right",NA,NA,NA,NA,28,"2007-07-09T12:02:28",28,NA,NA,NA,NA,NA
"GLP003","CL","107001377",NA,196,NA,NA,"CO","Clinical Observation","CLINICAL SIGNS",NA,NA,"End-of-Dose Necropsy","End-of-Dose Necropsy",NA,NA,NA,NA,NA,NA,NA,NA,29,"2007-07-10T11:32:54",29,NA,NA,NA,NA,NA
"GLP003","CL","107001377",NA,197,NA,NA,"EOBS","Ophthalmologic Examinations","OPHTHALMOLOGY",NA,NA,"NORMAL","NORMAL",NA,NA,NA,NA,NA,NA,NA,NA,-5,"2007-06-07T15:34:11",-5,NA,NA,NA,NA,NA
"GLP003","CL","107001377",NA,198,NA,NA,"EOBS","Ophthalmologic Examinations","OPHTHALMOLOGY",NA,NA,"NORMAL","NORMAL",NA,NA,NA,NA,NA,NA,NA,NA,22,"2007-07-03T09:37:59",22,NA,NA,NA,NA,NA
"GLP003","CL","107001377",NA,199,NA,NA,"VOBS","Veterinary Examinations","PHYSICAL EXAM",NA,NA,"NORMAL","NORMAL",NA,NA,NA,NA,NA,NA,NA,NA,-5,"2007-06-07T08:15:15",-5,NA,NA,NA,NA,NA
"GLP003","CL","107001472",NA,200,NA,NA,"CO","Clinical Observation","CLINICAL SIGNS",NA,NA,"NORMAL","NORMAL",NA,NA,NA,NA,NA,NA,NA,NA,1,"2007-06-12T12:31:21",1,NA,NA,NA,NA,NA
"GLP003","CL","107001472",NA,201,NA,NA,"CO","Clinical Observation","CLINICAL SIGNS",NA,NA,"NORMAL","NORMAL",NA,NA,NA,NA,NA,NA,NA,NA,2,"2007-06-13T14:47:09",2,NA,NA,NA,NA,NA
"GLP003","CL","107001472",NA,202,NA,NA,"CO","Clinical Observation","CLINICAL SIGNS",NA,NA,"NORMAL","NORMAL",NA,NA,NA,NA,NA,NA,NA,NA,3,"2007-06-14T15:22:47",3,NA,NA,NA,NA,NA
"GLP003","CL","107001472",NA,203,NA,NA,"CO","Clinical Observation","CLINICAL SIGNS",NA,NA,"NORMAL","NORMAL",NA,NA,NA,NA,NA,NA,NA,NA,4,"2007-06-15T11:07:49",4,NA,NA,NA,NA,NA
"GLP003","CL","107001472",NA,204,NA,NA,"CO","Clinical Observation","CLINICAL SIGNS",NA,NA,"NORMAL","NORMAL",NA,NA,NA,NA,NA,NA,NA,NA,5,"2007-06-16T15:19:11",5,NA,NA,NA,NA,NA
"GLP003","CL","107001472",NA,205,NA,NA,"CO","Clinical Observation","CLINICAL SIGNS",NA,NA,"NORMAL","NORMAL",NA,NA,NA,NA,NA,NA,NA,NA,6,"2007-06-17T10:33:57",6,NA,NA,NA,NA,NA
"GLP003","CL","107001472",NA,206,NA,NA,"CO","Clinical Observation","CLINICAL SIGNS",NA,NA,"NORMAL","NORMAL",NA,NA,NA,NA,NA,NA,NA,NA,7,"2007-06-18T09:56:19",7,NA,NA,NA,NA,NA
"GLP003","CL","107001472",NA,207,NA,NA,"CO","Clinical Observation","CLINICAL SIGNS",NA,NA,"NORMAL","NORMAL",NA,NA,NA,NA,NA,NA,NA,NA,8,"2007-06-19T15:05:20",8,NA,NA,NA,NA,NA
"GLP003","CL","107001472",NA,208,NA,NA,"CO","Clinical Observation","CLINICAL SIGNS",NA,NA,"NORMAL","NORMAL",NA,NA,NA,NA,NA,NA,NA,NA,9,"2007-06-20T11:13:06",9,NA,NA,NA,NA,NA
"GLP003","CL","107001472",NA,209,NA,NA,"CO","Clinical Observation","CLINICAL SIGNS",NA,NA,"NORMAL","NORMAL",NA,NA,NA,NA,NA,NA,NA,NA,10,"2007-06-21T10:35:42",10,NA,NA,NA,NA,NA
"GLP003","CL","107001472",NA,210,NA,NA,"CO","Clinical Observation","CLINICAL SIGNS",NA,NA,"NORMAL","NORMAL",NA,NA,NA,NA,NA,NA,NA,NA,11,"2007-06-22T11:09:23",11,NA,NA,NA,NA,NA
"GLP003","CL","107001472",NA,211,NA,NA,"CO","Clinical Observation","CLINICAL SIGNS",NA,NA,"NORMAL","NORMAL",NA,NA,NA,NA,NA,NA,NA,NA,12,"2007-06-23T15:03:07",12,NA,NA,NA,NA,NA
"GLP003","CL","107001472",NA,212,NA,NA,"CO","Clinical Observation","CLINICAL SIGNS",NA,NA,"NORMAL","NORMAL",NA,NA,NA,NA,NA,NA,NA,NA,13,"2007-06-24T14:13:10",13,NA,NA,NA,NA,NA
"GLP003","CL","107001472",NA,213,NA,NA,"CO","Clinical Observation","CLINICAL SIGNS",NA,NA,"NORMAL","NORMAL",NA,NA,NA,NA,NA,NA,NA,NA,14,"2007-06-25T14:36:37",14,NA,NA,NA,NA,NA
"GLP003","CL","107001472",NA,214,NA,NA,"CO","Clinical Observation","CLINICAL SIGNS",NA,NA,"NORMAL","NORMAL",NA,NA,NA,NA,NA,NA,NA,NA,15,"2007-06-26T13:06:22",15,NA,NA,NA,NA,NA
"GLP003","CL","107001472",NA,215,NA,NA,"CO","Clinical Observation","CLINICAL SIGNS",NA,NA,"NORMAL","NORMAL",NA,NA,NA,NA,NA,NA,NA,NA,16,"2007-06-27T11:23:03",16,NA,NA,NA,NA,NA
"GLP003","CL","107001472",NA,216,NA,NA,"CO","Clinical Observation","CLINICAL SIGNS",NA,NA,"NORMAL","NORMAL",NA,NA,NA,NA,NA,NA,NA,NA,17,"2007-06-28T13:50:09",17,NA,NA,NA,NA,NA
"GLP003","CL","107001472",NA,217,NA,NA,"CO","Clinical Observation","CLINICAL SIGNS",NA,NA,"NORMAL","NORMAL",NA,NA,NA,NA,NA,NA,NA,NA,18,"2007-06-29T13:14:02",18,NA,NA,NA,NA,NA
"GLP003","CL","107001472",NA,218,NA,NA,"CO","Clinical Observation","CLINICAL SIGNS",NA,NA,"NORMAL","NORMAL",NA,NA,NA,NA,NA,NA,NA,NA,19,"2007-06-30T13:31:47",19,NA,NA,NA,NA,NA
"GLP003","CL","107001472",NA,219,NA,NA,"CO","Clinical Observation","CLINICAL SIGNS",NA,NA,"NORMAL","NORMAL",NA,NA,NA,NA,NA,NA,NA,NA,20,"2007-07-01T11:24:51",20,NA,NA,NA,NA,NA
"GLP003","CL","107001472",NA,220,NA,NA,"CO","Clinical Observation","CLINICAL SIGNS",NA,NA,"NORMAL","NORMAL",NA,NA,NA,NA,NA,NA,NA,NA,21,"2007-07-02T12:31:50",21,NA,NA,NA,NA,NA
"GLP003","CL","107001472",NA,221,NA,NA,"CO","Clinical Observation","CLINICAL SIGNS",NA,NA,"NORMAL","NORMAL",NA,NA,NA,NA,NA,NA,NA,NA,22,"2007-07-03T08:00:46",22,NA,NA,NA,NA,NA
"GLP003","CL","107001472",NA,222,NA,NA,"CO","Clinical Observation","CLINICAL SIGNS",NA,NA,"NORMAL","NORMAL",NA,NA,NA,NA,NA,NA,NA,NA,23,"2007-07-04T12:51:25",23,NA,NA,NA,NA,NA
"GLP003","CL","107001472",NA,223,NA,NA,"CO","Clinical Observation","CLINICAL SIGNS",NA,NA,"NORMAL","NORMAL",NA,NA,NA,NA,NA,NA,NA,NA,24,"2007-07-05T14:24:29",24,NA,NA,NA,NA,NA
"GLP003","CL","107001472",NA,224,NA,NA,"CO","Clinical Observation","CLINICAL SIGNS",NA,NA,"NORMAL","NORMAL",NA,NA,NA,NA,NA,NA,NA,NA,25,"2007-07-06T11:27:51",25,NA,NA,NA,NA,NA
"GLP003","CL","107001472",NA,225,NA,NA,"CO","Clinical Observation","CLINICAL SIGNS",NA,NA,"NORMAL","NORMAL",NA,NA,NA,NA,NA,NA,NA,NA,26,"2007-07-07T12:22:51",26,NA,NA,NA,NA,NA
"GLP003","CL","107001472",NA,226,NA,NA,"CO","Clinical Observation","CLINICAL SIGNS",NA,NA,"NORMAL","NORMAL",NA,NA,NA,NA,NA,NA,NA,NA,27,"2007-07-08T12:53:25",27,NA,NA,NA,NA,NA
"GLP003","CL","107001472",NA,227,NA,NA,"CO","Clinical Observation","CLINICAL SIGNS",NA,NA,"NORMAL","NORMAL",NA,NA,NA,NA,NA,NA,NA,NA,28,"2007-07-09T12:04:22",28,NA,NA,NA,NA,NA
"GLP003","CL","107001472",NA,228,NA,NA,"CO","Clinical Observation","CLINICAL SIGNS",NA,NA,"NORMAL","NORMAL",NA,NA,NA,NA,NA,NA,NA,NA,29,"2007-07-10T11:56:56",29,NA,NA,NA,NA,NA
"GLP003","CL","107001472",NA,229,NA,NA,"CO","Clinical Observation","CLINICAL SIGNS",NA,NA,"Feces, unformed","Feces, unformed",NA,NA,NA,NA,NA,NA,NA,NA,2,"2007-06-13T07:05:00",2,NA,NA,NA,NA,NA
"GLP003","CL","107001472",NA,230,NA,NA,"CO","Clinical Observation","CLINICAL SIGNS",NA,NA,"Feces, unformed","Feces, unformed",NA,NA,NA,NA,NA,NA,NA,NA,3,"2007-06-14T06:09:00",3,NA,NA,NA,NA,NA
"GLP003","CL","107001472",NA,231,NA,NA,"CO","Clinical Observation","CLINICAL SIGNS",NA,NA,"End-of-Dose Necropsy","End-of-Dose Necropsy",NA,NA,NA,NA,NA,NA,NA,NA,30,"2007-07-11T09:38:28",30,NA,NA,NA,NA,NA
"GLP003","CL","107001472",NA,232,NA,NA,"EOBS","Ophthalmologic Examinations","OPHTHALMOLOGY",NA,NA,"NORMAL","NORMAL",NA,NA,NA,NA,NA,NA,NA,NA,-5,"2007-06-07T15:34:11",-5,NA,NA,NA,NA,NA
"GLP003","CL","107001472",NA,233,NA,NA,"EOBS","Ophthalmologic Examinations","OPHTHALMOLOGY",NA,NA,"NORMAL","NORMAL",NA,NA,NA,NA,NA,NA,NA,NA,22,"2007-07-03T09:37:59",22,NA,NA,NA,NA,NA
"GLP003","CL","107001472",NA,234,NA,NA,"VOBS","Veterinary Examinations","PHYSICAL EXAM",NA,NA,"NORMAL","NORMAL",NA,NA,NA,NA,NA,NA,NA,NA,-5,"2007-06-07T08:15:15",-5,NA,NA,NA,NA,NA
"GLP003","CL","107001472",NA,235,NA,NA,"VOBS","Veterinary Examinations","PHYSICAL EXAM",NA,NA,"NORMAL","NORMAL",NA,NA,NA,NA,NA,NA,NA,NA,22,"2007-07-03T10:33:23",22,NA,NA,NA,NA,NA
"GLP003","CL","107001401",NA,236,NA,NA,"CO","Clinical Observation","CLINICAL SIGNS",NA,NA,"NORMAL","NORMAL",NA,NA,NA,NA,NA,NA,NA,NA,1,"2007-06-12T12:31:23",1,NA,NA,NA,NA,NA
"GLP003","CL","107001401",NA,237,NA,NA,"CO","Clinical Observation","CLINICAL SIGNS",NA,NA,"NORMAL","NORMAL",NA,NA,NA,NA,NA,NA,NA,NA,2,"2007-06-13T14:47:13",2,NA,NA,NA,NA,NA
"GLP003","CL","107001401",NA,238,NA,NA,"CO","Clinical Observation","CLINICAL SIGNS",NA,NA,"NORMAL","NORMAL",NA,NA,NA,NA,NA,NA,NA,NA,3,"2007-06-14T15:24:29",3,NA,NA,NA,NA,NA
"GLP003","CL","107001401",NA,239,NA,NA,"CO","Clinical Observation","CLINICAL SIGNS",NA,NA,"NORMAL","NORMAL",NA,NA,NA,NA,NA,NA,NA,NA,4,"2007-06-15T11:07:50",4,NA,NA,NA,NA,NA
"GLP003","CL","107001401",NA,240,NA,NA,"CO","Clinical Observation","CLINICAL SIGNS",NA,NA,"NORMAL","NORMAL",NA,NA,NA,NA,NA,NA,NA,NA,5,"2007-06-16T15:19:28",5,NA,NA,NA,NA,NA
"GLP003","CL","107001401",NA,241,NA,NA,"CO","Clinical Observation","CLINICAL SIGNS",NA,NA,"NORMAL","NORMAL",NA,NA,NA,NA,NA,NA,NA,NA,6,"2007-06-17T10:34:17",6,NA,NA,NA,NA,NA
"GLP003","CL","107001401",NA,242,NA,NA,"CO","Clinical Observation","CLINICAL SIGNS",NA,NA,"NORMAL","NORMAL",NA,NA,NA,NA,NA,NA,NA,NA,7,"2007-06-18T09:56:21",7,NA,NA,NA,NA,NA
"GLP003","CL","107001401",NA,243,NA,NA,"CO","Clinical Observation","CLINICAL SIGNS",NA,NA,"NORMAL","NORMAL",NA,NA,NA,NA,NA,NA,NA,NA,8,"2007-06-19T15:05:25",8,NA,NA,NA,NA,NA
"GLP003","CL","107001401",NA,244,NA,NA,"CO","Clinical Observation","CLINICAL SIGNS",NA,NA,"NORMAL","NORMAL",NA,NA,NA,NA,NA,NA,NA,NA,9,"2007-06-20T11:13:08",9,NA,NA,NA,NA,NA
"GLP003","CL","107001401",NA,245,NA,NA,"CO","Clinical Observation","CLINICAL SIGNS",NA,NA,"NORMAL","NORMAL",NA,NA,NA,NA,NA,NA,NA,NA,10,"2007-06-21T10:35:43",10,NA,NA,NA,NA,NA
"GLP003","CL","107001401",NA,246,NA,NA,"CO","Clinical Observation","CLINICAL SIGNS",NA,NA,"NORMAL","NORMAL",NA,NA,NA,NA,NA,NA,NA,NA,11,"2007-06-22T11:09:34",11,NA,NA,NA,NA,NA
"GLP003","CL","107001401",NA,247,NA,NA,"CO","Clinical Observation","CLINICAL SIGNS",NA,NA,"NORMAL","NORMAL",NA,NA,NA,NA,NA,NA,NA,NA,12,"2007-06-23T15:03:09",12,NA,NA,NA,NA,NA
"GLP003","CL","107001401",NA,248,NA,NA,"CO","Clinical Observation","CLINICAL SIGNS",NA,NA,"NORMAL","NORMAL",NA,NA,NA,NA,NA,NA,NA,NA,13,"2007-06-24T14:13:21",13,NA,NA,NA,NA,NA
"GLP003","CL","107001401",NA,249,NA,NA,"CO","Clinical Observation","CLINICAL SIGNS",NA,NA,"NORMAL","NORMAL",NA,NA,NA,NA,NA,NA,NA,NA,14,"2007-06-25T14:38:12",14,NA,NA,NA,NA,NA
"GLP003","CL","107001401",NA,250,NA,NA,"CO","Clinical Observation","CLINICAL SIGNS",NA,NA,"NORMAL","NORMAL",NA,NA,NA,NA,NA,NA,NA,NA,15,"2007-06-26T13:06:24",15,NA,NA,NA,NA,NA
"GLP003","CL","107001401",NA,251,NA,NA,"CO","Clinical Observation","CLINICAL SIGNS",NA,NA,"NORMAL","NORMAL",NA,NA,NA,NA,NA,NA,NA,NA,16,"2007-06-27T11:24:57",16,NA,NA,NA,NA,NA
"GLP003","CL","107001401",NA,252,NA,NA,"CO","Clinical Observation","CLINICAL SIGNS",NA,NA,"NORMAL","NORMAL",NA,NA,NA,NA,NA,NA,NA,NA,17,"2007-06-28T13:50:10",17,NA,NA,NA,NA,NA
"GLP003","CL","107001401",NA,253,NA,NA,"CO","Clinical Observation","CLINICAL SIGNS",NA,NA,"NORMAL","NORMAL",NA,NA,NA,NA,NA,NA,NA,NA,18,"2007-06-29T13:15:37",18,NA,NA,NA,NA,NA
"GLP003","CL","107001401",NA,254,NA,NA,"CO","Clinical Observation","CLINICAL SIGNS",NA,NA,"NORMAL","NORMAL",NA,NA,NA,NA,NA,NA,NA,NA,19,"2007-06-30T13:32:13",19,NA,NA,NA,NA,NA
"GLP003","CL","107001401",NA,255,NA,NA,"CO","Clinical Observation","CLINICAL SIGNS",NA,NA,"NORMAL","NORMAL",NA,NA,NA,NA,NA,NA,NA,NA,20,"2007-07-01T11:25:14",20,NA,NA,NA,NA,NA
"GLP003","CL","107001401",NA,256,NA,NA,"CO","Clinical Observation","CLINICAL SIGNS",NA,NA,"NORMAL","NORMAL",NA,NA,NA,NA,NA,NA,NA,NA,21,"2007-07-02T12:33:10",21,NA,NA,NA,NA,NA
"GLP003","CL","107001401",NA,257,NA,NA,"CO","Clinical Observation","CLINICAL SIGNS",NA,NA,"NORMAL","NORMAL",NA,NA,NA,NA,NA,NA,NA,NA,22,"2007-07-03T08:00:47",22,NA,NA,NA,NA,NA
"GLP003","CL","107001401",NA,258,NA,NA,"CO","Clinical Observation","CLINICAL SIGNS",NA,NA,"NORMAL","NORMAL",NA,NA,NA,NA,NA,NA,NA,NA,23,"2007-07-04T12:51:27",23,NA,NA,NA,NA,NA
"GLP003","CL","107001401",NA,259,NA,NA,"CO","Clinical Observation","CLINICAL SIGNS",NA,NA,"NORMAL","NORMAL",NA,NA,NA,NA,NA,NA,NA,NA,24,"2007-07-05T14:25:43",24,NA,NA,NA,NA,NA
"GLP003","CL","107001401",NA,260,NA,NA,"CO","Clinical Observation","CLINICAL SIGNS",NA,NA,"NORMAL","NORMAL",NA,NA,NA,NA,NA,NA,NA,NA,25,"2007-07-06T11:28:36",25,NA,NA,NA,NA,NA
"GLP003","CL","107001401",NA,261,NA,NA,"CO","Clinical Observation","CLINICAL SIGNS",NA,NA,"NORMAL","NORMAL",NA,NA,NA,NA,NA,NA,NA,NA,26,"2007-07-07T12:23:07",26,NA,NA,NA,NA,NA
"GLP003","CL","107001401",NA,262,NA,NA,"CO","Clinical Observation","CLINICAL SIGNS",NA,NA,"NORMAL","NORMAL",NA,NA,NA,NA,NA,NA,NA,NA,27,"2007-07-08T12:54:00",27,NA,NA,NA,NA,NA
"GLP003","CL","107001401",NA,263,NA,NA,"CO","Clinical Observation","CLINICAL SIGNS",NA,NA,"NORMAL","NORMAL",NA,NA,NA,NA,NA,NA,NA,NA,28,"2007-07-09T12:04:24",28,NA,NA,NA,NA,NA
"GLP003","CL","107001401",NA,264,NA,NA,"CO","Clinical Observation","CLINICAL SIGNS",NA,NA,"NORMAL","NORMAL",NA,NA,NA,NA,NA,NA,NA,NA,29,"2007-07-10T11:56:58",29,NA,NA,NA,NA,NA
"GLP003","CL","107001401",NA,265,NA,NA,"CO","Clinical Observation","CLINICAL SIGNS",NA,NA,"Feces, unformed","Feces, unformed",NA,NA,NA,NA,NA,NA,NA,NA,4,"2007-06-15T07:09:00",4,NA,NA,NA,NA,NA
"GLP003","CL","107001401",NA,266,NA,NA,"CO","Clinical Observation","CLINICAL SIGNS",NA,NA,"Feces, unformed","Feces, unformed",NA,NA,NA,NA,NA,NA,NA,NA,16,"2007-06-27T06:55:00",16,NA,NA,NA,NA,NA
"GLP003","CL","107001401",NA,267,NA,NA,"CO","Clinical Observation","CLINICAL SIGNS",NA,NA,"Feces, mucous","Feces, mucous",NA,NA,NA,NA,NA,NA,NA,NA,16,"2007-06-27T06:55:00",16,NA,NA,NA,NA,NA
"GLP003","CL","107001401",NA,268,NA,NA,"CO","Clinical Observation","CLINICAL SIGNS",NA,NA,"Feces, unformed","Feces, unformed",NA,NA,NA,NA,NA,NA,NA,NA,23,"2007-07-04T06:58:00",23,NA,NA,NA,NA,NA
"GLP003","CL","107001401",NA,269,NA,NA,"CO","Clinical Observation","CLINICAL SIGNS",NA,NA,"Feces, unformed","Feces, unformed",NA,NA,NA,NA,NA,NA,NA,NA,28,"2007-07-09T05:58:00",28,NA,NA,NA,NA,NA
"GLP003","CL","107001401",NA,270,NA,NA,"CO","Clinical Observation","CLINICAL SIGNS",NA,NA,"Feces, unformed","Feces, unformed",NA,NA,NA,NA,NA,NA,NA,NA,29,"2007-07-10T06:05:00",29,NA,NA,NA,NA,NA
"GLP003","CL","107001401",NA,271,NA,NA,"CO","Clinical Observation","CLINICAL SIGNS",NA,NA,"Feces, unformed","Feces, unformed",NA,NA,NA,NA,NA,NA,NA,NA,30,"2007-07-11T06:01:00",30,NA,NA,NA,NA,NA
"GLP003","CL","107001401",NA,272,NA,NA,"CO","Clinical Observation","CLINICAL SIGNS",NA,NA,"End-of-Dose Necropsy","End-of-Dose Necropsy",NA,NA,NA,NA,NA,NA,NA,NA,30,"2007-07-11T09:38:38",30,NA,NA,NA,NA,NA
"GLP003","CL","107001401",NA,273,NA,NA,"EOBS","Ophthalmologic Examinations","OPHTHALMOLOGY",NA,NA,"NORMAL","NORMAL",NA,NA,NA,NA,NA,NA,NA,NA,-5,"2007-06-07T15:34:11",-5,NA,NA,NA,NA,NA
"GLP003","CL","107001401",NA,274,NA,NA,"EOBS","Ophthalmologic Examinations","OPHTHALMOLOGY",NA,NA,"NORMAL","NORMAL",NA,NA,NA,NA,NA,NA,NA,NA,22,"2007-07-03T09:37:59",22,NA,NA,NA,NA,NA
"GLP003","CL","107001401",NA,275,NA,NA,"VOBS","Veterinary Examinations","PHYSICAL EXAM",NA,NA,"NORMAL","NORMAL",NA,NA,NA,NA,NA,NA,NA,NA,-5,"2007-06-07T08:15:15",-5,NA,NA,NA,NA,NA
"GLP003","CL","107001401",NA,276,NA,NA,"VOBS","Veterinary Examinations","PHYSICAL EXAM",NA,NA,"NORMAL","NORMAL",NA,NA,NA,NA,NA,NA,NA,NA,22,"2007-07-03T10:33:23",22,NA,NA,NA,NA,NA
"GLP003","CL","107001466",NA,277,NA,NA,"CO","Clinical Observation","CLINICAL SIGNS",NA,NA,"NORMAL","NORMAL",NA,NA,NA,NA,NA,NA,NA,NA,1,"2007-06-12T12:31:25",1,NA,NA,NA,NA,NA
"GLP003","CL","107001466",NA,278,NA,NA,"CO","Clinical Observation","CLINICAL SIGNS",NA,NA,"NORMAL","NORMAL",NA,NA,NA,NA,NA,NA,NA,NA,3,"2007-06-14T15:24:38",3,NA,NA,NA,NA,NA
"GLP003","CL","107001466",NA,279,NA,NA,"CO","Clinical Observation","CLINICAL SIGNS",NA,NA,"NORMAL","NORMAL",NA,NA,NA,NA,NA,NA,NA,NA,4,"2007-06-15T11:07:52",4,NA,NA,NA,NA,NA
"GLP003","CL","107001466",NA,280,NA,NA,"CO","Clinical Observation","CLINICAL SIGNS",NA,NA,"NORMAL","NORMAL",NA,NA,NA,NA,NA,NA,NA,NA,5,"2007-06-16T15:19:29",5,NA,NA,NA,NA,NA
"GLP003","CL","107001466",NA,281,NA,NA,"CO","Clinical Observation","CLINICAL SIGNS",NA,NA,"NORMAL","NORMAL",NA,NA,NA,NA,NA,NA,NA,NA,6,"2007-06-17T10:34:18",6,NA,NA,NA,NA,NA
"GLP003","CL","107001466",NA,282,NA,NA,"CO","Clinical Observation","CLINICAL SIGNS",NA,NA,"NORMAL","NORMAL",NA,NA,NA,NA,NA,NA,NA,NA,7,"2007-06-18T09:56:22",7,NA,NA,NA,NA,NA
"GLP003","CL","107001466",NA,283,NA,NA,"CO","Clinical Observation","CLINICAL SIGNS",NA,NA,"NORMAL","NORMAL",NA,NA,NA,NA,NA,NA,NA,NA,8,"2007-06-19T15:05:28",8,NA,NA,NA,NA,NA
"GLP003","CL","107001466",NA,284,NA,NA,"CO","Clinical Observation","CLINICAL SIGNS",NA,NA,"NORMAL","NORMAL",NA,NA,NA,NA,NA,NA,NA,NA,9,"2007-06-20T11:18:35",9,NA,NA,NA,NA,NA
"GLP003","CL","107001466",NA,285,NA,NA,"CO","Clinical Observation","CLINICAL SIGNS",NA,NA,"NORMAL","NORMAL",NA,NA,NA,NA,NA,NA,NA,NA,10,"2007-06-21T10:35:44",10,NA,NA,NA,NA,NA
"GLP003","CL","107001466",NA,286,NA,NA,"CO","Clinical Observation","CLINICAL SIGNS",NA,NA,"NORMAL","NORMAL",NA,NA,NA,NA,NA,NA,NA,NA,11,"2007-06-22T11:09:45",11,NA,NA,NA,NA,NA
"GLP003","CL","107001466",NA,287,NA,NA,"CO","Clinical Observation","CLINICAL SIGNS",NA,NA,"NORMAL","NORMAL",NA,NA,NA,NA,NA,NA,NA,NA,12,"2007-06-23T15:03:13",12,NA,NA,NA,NA,NA
"GLP003","CL","107001466",NA,288,NA,NA,"CO","Clinical Observation","CLINICAL SIGNS",NA,NA,"NORMAL","NORMAL",NA,NA,NA,NA,NA,NA,NA,NA,14,"2007-06-25T14:38:18",14,NA,NA,NA,NA,NA
"GLP003","CL","107001466",NA,289,NA,NA,"CO","Clinical Observation","CLINICAL SIGNS",NA,NA,"NORMAL","NORMAL",NA,NA,NA,NA,NA,NA,NA,NA,15,"2007-06-26T13:06:25",15,NA,NA,NA,NA,NA
"GLP003","CL","107001466",NA,290,NA,NA,"CO","Clinical Observation","CLINICAL SIGNS",NA,NA,"NORMAL","NORMAL",NA,NA,NA,NA,NA,NA,NA,NA,16,"2007-06-27T11:24:58",16,NA,NA,NA,NA,NA
"GLP003","CL","107001466",NA,291,NA,NA,"CO","Clinical Observation","CLINICAL SIGNS",NA,NA,"NORMAL","NORMAL",NA,NA,NA,NA,NA,NA,NA,NA,17,"2007-06-28T13:50:12",17,NA,NA,NA,NA,NA
"GLP003","CL","107001466",NA,292,NA,NA,"CO","Clinical Observation","CLINICAL SIGNS",NA,NA,"NORMAL","NORMAL",NA,NA,NA,NA,NA,NA,NA,NA,18,"2007-06-29T13:15:39",18,NA,NA,NA,NA,NA
"GLP003","CL","107001466",NA,293,NA,NA,"CO","Clinical Observation","CLINICAL SIGNS",NA,NA,"NORMAL","NORMAL",NA,NA,NA,NA,NA,NA,NA,NA,19,"2007-06-30T13:32:14",19,NA,NA,NA,NA,NA
"GLP003","CL","107001466",NA,294,NA,NA,"CO","Clinical Observation","CLINICAL SIGNS",NA,NA,"NORMAL","NORMAL",NA,NA,NA,NA,NA,NA,NA,NA,20,"2007-07-01T11:25:15",20,NA,NA,NA,NA,NA
"GLP003","CL","107001466",NA,295,NA,NA,"CO","Clinical Observation","CLINICAL SIGNS",NA,NA,"NORMAL","NORMAL",NA,NA,NA,NA,NA,NA,NA,NA,21,"2007-07-02T12:33:11",21,NA,NA,NA,NA,NA
"GLP003","CL","107001466",NA,296,NA,NA,"CO","Clinical Observation","CLINICAL SIGNS",NA,NA,"NORMAL","NORMAL",NA,NA,NA,NA,NA,NA,NA,NA,22,"2007-07-03T08:00:49",22,NA,NA,NA,NA,NA
"GLP003","CL","107001466",NA,297,NA,NA,"CO","Clinical Observation","CLINICAL SIGNS",NA,NA,"NORMAL","NORMAL",NA,NA,NA,NA,NA,NA,NA,NA,23,"2007-07-04T12:51:28",23,NA,NA,NA,NA,NA
"GLP003","CL","107001466",NA,298,NA,NA,"CO","Clinical Observation","CLINICAL SIGNS",NA,NA,"NORMAL","NORMAL",NA,NA,NA,NA,NA,NA,NA,NA,24,"2007-07-05T14:25:45",24,NA,NA,NA,NA,NA
"GLP003","CL","107001466",NA,299,NA,NA,"CO","Clinical Observation","CLINICAL SIGNS",NA,NA,"NORMAL","NORMAL",NA,NA,NA,NA,NA,NA,NA,NA,25,"2007-07-06T11:28:37",25,NA,NA,NA,NA,NA
"GLP003","CL","107001466",NA,300,NA,NA,"CO","Clinical Observation","CLINICAL SIGNS",NA,NA,"NORMAL","NORMAL",NA,NA,NA,NA,NA,NA,NA,NA,26,"2007-07-07T12:23:26",26,NA,NA,NA,NA,NA
"GLP003","CL","107001466",NA,301,NA,NA,"CO","Clinical Observation","CLINICAL SIGNS",NA,NA,"NORMAL","NORMAL",NA,NA,NA,NA,NA,NA,NA,NA,27,"2007-07-08T12:54:02",27,NA,NA,NA,NA,NA
"GLP003","CL","107001466",NA,302,NA,NA,"CO","Clinical Observation","CLINICAL SIGNS",NA,NA,"NORMAL","NORMAL",NA,NA,NA,NA,NA,NA,NA,NA,28,"2007-07-09T12:04:27",28,NA,NA,NA,NA,NA
"GLP003","CL","107001466",NA,303,NA,NA,"CO","Clinical Observation","CLINICAL SIGNS",NA,NA,"Feces, unformed","Feces, unformed",NA,NA,NA,NA,NA,NA,NA,NA,2,"2007-06-13T07:05:00",2,NA,NA,NA,NA,NA
"GLP003","CL","107001466",NA,304,NA,NA,"CO","Clinical Observation","CLINICAL SIGNS",NA,NA,"Chromorhinorrhea","Chromorhinorrhea",NA,NA,NA,NA,NA,NA,NA,NA,2,"2007-06-13T14:47:22",2,NA,NA,NA,NA,NA
"GLP003","CL","107001466",NA,305,NA,NA,"CO","Clinical Observation","CLINICAL SIGNS",NA,NA,"Feces, unformed","Feces, unformed",NA,NA,NA,NA,NA,NA,NA,NA,3,"2007-06-14T06:09:00",3,NA,NA,NA,NA,NA
"GLP003","CL","107001466",NA,306,NA,NA,"CO","Clinical Observation","CLINICAL SIGNS",NA,NA,"Chromorhinorrhea","Chromorhinorrhea",NA,NA,NA,NA,NA,NA,NA,NA,13,"2007-06-24T14:13:27",13,NA,NA,NA,NA,NA
"GLP003","CL","107001466",NA,307,NA,NA,"CO","Clinical Observation","CLINICAL SIGNS",NA,NA,"Feces, unformed","Feces, unformed",NA,NA,NA,NA,NA,NA,NA,NA,14,"2007-06-25T07:04:00",14,NA,NA,NA,NA,NA
"GLP003","CL","107001466",NA,308,NA,NA,"CO","Clinical Observation","CLINICAL SIGNS",NA,NA,"Chromorhinorrhea","Chromorhinorrhea",NA,NA,NA,NA,NA,NA,NA,NA,29,"2007-07-10T11:57:09",29,NA,NA,NA,NA,NA
"GLP003","CL","107001466",NA,309,NA,NA,"CO","Clinical Observation","CLINICAL SIGNS",NA,NA,"End-of-Dose Necropsy","End-of-Dose Necropsy",NA,NA,NA,NA,NA,NA,NA,NA,30,"2007-07-11T09:39:18",30,NA,NA,NA,NA,NA
"GLP003","CL","107001466",NA,310,NA,NA,"EOBS","Ophthalmologic Examinations","OPHTHALMOLOGY",NA,NA,"NORMAL","NORMAL",NA,NA,NA,NA,NA,NA,NA,NA,-5,"2007-06-07T15:34:11",-5,NA,NA,NA,NA,NA
"GLP003","CL","107001466",NA,311,NA,NA,"EOBS","Ophthalmologic Examinations","OPHTHALMOLOGY",NA,NA,"NORMAL","NORMAL",NA,NA,NA,NA,NA,NA,NA,NA,22,"2007-07-03T09:37:59",22,NA,NA,NA,NA,NA
"GLP003","CL","107001466",NA,312,NA,NA,"VOBS","Veterinary Examinations","PHYSICAL EXAM",NA,NA,"NORMAL","NORMAL",NA,NA,NA,NA,NA,NA,NA,NA,-5,"2007-06-07T08:15:15",-5,NA,NA,NA,NA,NA
"GLP003","CL","107001466",NA,313,NA,NA,"VOBS","Veterinary Examinations","PHYSICAL EXAM",NA,NA,"NORMAL","NORMAL",NA,NA,NA,NA,NA,NA,NA,NA,22,"2007-07-03T10:33:23",22,NA,NA,NA,NA,NA
"GLP003","CL","107001428",NA,314,NA,NA,"CO","Clinical Observation","CLINICAL SIGNS",NA,NA,"NORMAL","NORMAL",NA,NA,NA,NA,NA,NA,NA,NA,1,"2007-06-12T12:31:26",1,NA,NA,NA,NA,NA
"GLP003","CL","107001428",NA,315,NA,NA,"CO","Clinical Observation","CLINICAL SIGNS",NA,NA,"NORMAL","NORMAL",NA,NA,NA,NA,NA,NA,NA,NA,2,"2007-06-13T14:48:06",2,NA,NA,NA,NA,NA
"GLP003","CL","107001428",NA,316,NA,NA,"CO","Clinical Observation","CLINICAL SIGNS",NA,NA,"NORMAL","NORMAL",NA,NA,NA,NA,NA,NA,NA,NA,3,"2007-06-14T15:24:40",3,NA,NA,NA,NA,NA
"GLP003","CL","107001428",NA,317,NA,NA,"CO","Clinical Observation","CLINICAL SIGNS",NA,NA,"NORMAL","NORMAL",NA,NA,NA,NA,NA,NA,NA,NA,4,"2007-06-15T11:07:53",4,NA,NA,NA,NA,NA
"GLP003","CL","107001428",NA,318,NA,NA,"CO","Clinical Observation","CLINICAL SIGNS",NA,NA,"NORMAL","NORMAL",NA,NA,NA,NA,NA,NA,NA,NA,5,"2007-06-16T15:19:30",5,NA,NA,NA,NA,NA
"GLP003","CL","107001428",NA,319,NA,NA,"CO","Clinical Observation","CLINICAL SIGNS",NA,NA,"NORMAL","NORMAL",NA,NA,NA,NA,NA,NA,NA,NA,6,"2007-06-17T10:34:19",6,NA,NA,NA,NA,NA
"GLP003","CL","107001428",NA,320,NA,NA,"CO","Clinical Observation","CLINICAL SIGNS",NA,NA,"NORMAL","NORMAL",NA,NA,NA,NA,NA,NA,NA,NA,7,"2007-06-18T09:56:24",7,NA,NA,NA,NA,NA
"GLP003","CL","107001428",NA,321,NA,NA,"CO","Clinical Observation","CLINICAL SIGNS",NA,NA,"NORMAL","NORMAL",NA,NA,NA,NA,NA,NA,NA,NA,8,"2007-06-19T15:05:32",8,NA,NA,NA,NA,NA
"GLP003","CL","107001428",NA,322,NA,NA,"CO","Clinical Observation","CLINICAL SIGNS",NA,NA,"NORMAL","NORMAL",NA,NA,NA,NA,NA,NA,NA,NA,9,"2007-06-20T11:18:37",9,NA,NA,NA,NA,NA
"GLP003","CL","107001428",NA,323,NA,NA,"CO","Clinical Observation","CLINICAL SIGNS",NA,NA,"NORMAL","NORMAL",NA,NA,NA,NA,NA,NA,NA,NA,10,"2007-06-21T10:35:45",10,NA,NA,NA,NA,NA
"GLP003","CL","107001428",NA,324,NA,NA,"CO","Clinical Observation","CLINICAL SIGNS",NA,NA,"NORMAL","NORMAL",NA,NA,NA,NA,NA,NA,NA,NA,11,"2007-06-22T11:09:57",11,NA,NA,NA,NA,NA
"GLP003","CL","107001428",NA,325,NA,NA,"CO","Clinical Observation","CLINICAL SIGNS",NA,NA,"NORMAL","NORMAL",NA,NA,NA,NA,NA,NA,NA,NA,12,"2007-06-23T15:03:15",12,NA,NA,NA,NA,NA
"GLP003","CL","107001428",NA,326,NA,NA,"CO","Clinical Observation","CLINICAL SIGNS",NA,NA,"NORMAL","NORMAL",NA,NA,NA,NA,NA,NA,NA,NA,13,"2007-06-24T14:13:40",13,NA,NA,NA,NA,NA
"GLP003","CL","107001428",NA,327,NA,NA,"CO","Clinical Observation","CLINICAL SIGNS",NA,NA,"NORMAL","NORMAL",NA,NA,NA,NA,NA,NA,NA,NA,14,"2007-06-25T14:38:20",14,NA,NA,NA,NA,NA
"GLP003","CL","107001428",NA,328,NA,NA,"CO","Clinical Observation","CLINICAL SIGNS",NA,NA,"NORMAL","NORMAL",NA,NA,NA,NA,NA,NA,NA,NA,15,"2007-06-26T13:06:27",15,NA,NA,NA,NA,NA
"GLP003","CL","107001428",NA,329,NA,NA,"CO","Clinical Observation","CLINICAL SIGNS",NA,NA,"NORMAL","NORMAL",NA,NA,NA,NA,NA,NA,NA,NA,16,"2007-06-27T11:25:00",16,NA,NA,NA,NA,NA
"GLP003","CL","107001428",NA,330,NA,NA,"CO","Clinical Observation","CLINICAL SIGNS",NA,NA,"NORMAL","NORMAL",NA,NA,NA,NA,NA,NA,NA,NA,17,"2007-06-28T13:50:13",17,NA,NA,NA,NA,NA
"GLP003","CL","107001428",NA,331,NA,NA,"CO","Clinical Observation","CLINICAL SIGNS",NA,NA,"NORMAL","NORMAL",NA,NA,NA,NA,NA,NA,NA,NA,18,"2007-06-29T13:15:40",18,NA,NA,NA,NA,NA
"GLP003","CL","107001428",NA,332,NA,NA,"CO","Clinical Observation","CLINICAL SIGNS",NA,NA,"NORMAL","NORMAL",NA,NA,NA,NA,NA,NA,NA,NA,19,"2007-06-30T13:32:15",19,NA,NA,NA,NA,NA
"GLP003","CL","107001428",NA,333,NA,NA,"CO","Clinical Observation","CLINICAL SIGNS",NA,NA,"NORMAL","NORMAL",NA,NA,NA,NA,NA,NA,NA,NA,20,"2007-07-01T11:25:16",20,NA,NA,NA,NA,NA
"GLP003","CL","107001428",NA,334,NA,NA,"CO","Clinical Observation","CLINICAL SIGNS",NA,NA,"NORMAL","NORMAL",NA,NA,NA,NA,NA,NA,NA,NA,21,"2007-07-02T12:33:13",21,NA,NA,NA,NA,NA
"GLP003","CL","107001428",NA,335,NA,NA,"CO","Clinical Observation","CLINICAL SIGNS",NA,NA,"NORMAL","NORMAL",NA,NA,NA,NA,NA,NA,NA,NA,22,"2007-07-03T08:00:50",22,NA,NA,NA,NA,NA
"GLP003","CL","107001428",NA,336,NA,NA,"CO","Clinical Observation","CLINICAL SIGNS",NA,NA,"NORMAL","NORMAL",NA,NA,NA,NA,NA,NA,NA,NA,23,"2007-07-04T12:51:30",23,NA,NA,NA,NA,NA
"GLP003","CL","107001428",NA,337,NA,NA,"CO","Clinical Observation","CLINICAL SIGNS",NA,NA,"NORMAL","NORMAL",NA,NA,NA,NA,NA,NA,NA,NA,24,"2007-07-05T14:25:46",24,NA,NA,NA,NA,NA
"GLP003","CL","107001428",NA,338,NA,NA,"CO","Clinical Observation","CLINICAL SIGNS",NA,NA,"NORMAL","NORMAL",NA,NA,NA,NA,NA,NA,NA,NA,25,"2007-07-06T11:28:39",25,NA,NA,NA,NA,NA
"GLP003","CL","107001428",NA,339,NA,NA,"CO","Clinical Observation","CLINICAL SIGNS",NA,NA,"NORMAL","NORMAL",NA,NA,NA,NA,NA,NA,NA,NA,26,"2007-07-07T12:23:52",26,NA,NA,NA,NA,NA
"GLP003","CL","107001428",NA,340,NA,NA,"CO","Clinical Observation","CLINICAL SIGNS",NA,NA,"NORMAL","NORMAL",NA,NA,NA,NA,NA,NA,NA,NA,27,"2007-07-08T12:54:03",27,NA,NA,NA,NA,NA
"GLP003","CL","107001428",NA,341,NA,NA,"CO","Clinical Observation","CLINICAL SIGNS",NA,NA,"NORMAL","NORMAL",NA,NA,NA,NA,NA,NA,NA,NA,28,"2007-07-09T12:04:28",28,NA,NA,NA,NA,NA
"GLP003","CL","107001428",NA,342,NA,NA,"CO","Clinical Observation","CLINICAL SIGNS",NA,NA,"NORMAL","NORMAL",NA,NA,NA,NA,NA,NA,NA,NA,29,"2007-07-10T11:58:01",29,NA,NA,NA,NA,NA
"GLP003","CL","107001428",NA,343,NA,NA,"CO","Clinical Observation","CLINICAL SIGNS",NA,NA,"Feces, unformed","Feces, unformed",NA,NA,NA,NA,NA,NA,NA,NA,6,"2007-06-17T07:22:00",6,NA,NA,NA,NA,NA
"GLP003","CL","107001428",NA,344,NA,NA,"CO","Clinical Observation","CLINICAL SIGNS",NA,NA,"Feces, mucous","Feces, mucous",NA,NA,NA,NA,NA,NA,NA,NA,30,"2007-07-11T06:01:00",30,NA,NA,NA,NA,NA
"GLP003","CL","107001428",NA,345,NA,NA,"CO","Clinical Observation","CLINICAL SIGNS",NA,NA,"Feces, liquid","Feces, liquid",NA,NA,NA,NA,NA,NA,NA,NA,30,"2007-07-11T06:01:00",30,NA,NA,NA,NA,NA
"GLP003","CL","107001428",NA,346,NA,NA,"CO","Clinical Observation","CLINICAL SIGNS",NA,NA,"End-of-Dose Necropsy","End-of-Dose Necropsy",NA,NA,NA,NA,NA,NA,NA,NA,30,"2007-07-11T09:39:36",30,NA,NA,NA,NA,NA
"GLP003","CL","107001428",NA,347,NA,NA,"EOBS","Ophthalmologic Examinations","OPHTHALMOLOGY",NA,NA,"NORMAL","NORMAL",NA,NA,NA,NA,NA,NA,NA,NA,-5,"2007-06-07T15:34:11",-5,NA,NA,NA,NA,NA
"GLP003","CL","107001428",NA,348,NA,NA,"EOBS","Ophthalmologic Examinations","OPHTHALMOLOGY",NA,NA,"NORMAL","NORMAL",NA,NA,NA,NA,NA,NA,NA,NA,22,"2007-07-03T09:37:59",22,NA,NA,NA,NA,NA
"GLP003","CL","107001428",NA,349,NA,NA,"VOBS","Veterinary Examinations","PHYSICAL EXAM",NA,NA,"NORMAL","NORMAL",NA,NA,NA,NA,NA,NA,NA,NA,-5,"2007-06-07T08:15:15",-5,NA,NA,NA,NA,NA
"GLP003","CL","107001428",NA,350,NA,NA,"VOBS","Veterinary Examinations","PHYSICAL EXAM",NA,NA,"NORMAL","NORMAL",NA,NA,NA,NA,NA,NA,NA,NA,22,"2007-07-03T10:33:23",22,NA,NA,NA,NA,NA
"GLP003","CL","107001483",NA,351,NA,NA,"CO","Clinical Observation","CLINICAL SIGNS",NA,NA,"NORMAL","NORMAL",NA,NA,NA,NA,NA,NA,NA,NA,1,"2007-06-12T12:31:28",1,NA,NA,NA,NA,NA
"GLP003","CL","107001483",NA,352,NA,NA,"CO","Clinical Observation","CLINICAL SIGNS",NA,NA,"NORMAL","NORMAL",NA,NA,NA,NA,NA,NA,NA,NA,2,"2007-06-13T14:48:08",2,NA,NA,NA,NA,NA
"GLP003","CL","107001483",NA,353,NA,NA,"CO","Clinical Observation","CLINICAL SIGNS",NA,NA,"NORMAL","NORMAL",NA,NA,NA,NA,NA,NA,NA,NA,3,"2007-06-14T15:24:47",3,NA,NA,NA,NA,NA
"GLP003","CL","107001483",NA,354,NA,NA,"CO","Clinical Observation","CLINICAL SIGNS",NA,NA,"NORMAL","NORMAL",NA,NA,NA,NA,NA,NA,NA,NA,4,"2007-06-15T11:07:55",4,NA,NA,NA,NA,NA
"GLP003","CL","107001483",NA,355,NA,NA,"CO","Clinical Observation","CLINICAL SIGNS",NA,NA,"NORMAL","NORMAL",NA,NA,NA,NA,NA,NA,NA,NA,5,"2007-06-16T15:19:48",5,NA,NA,NA,NA,NA
"GLP003","CL","107001483",NA,356,NA,NA,"CO","Clinical Observation","CLINICAL SIGNS",NA,NA,"NORMAL","NORMAL",NA,NA,NA,NA,NA,NA,NA,NA,6,"2007-06-17T10:34:42",6,NA,NA,NA,NA,NA
"GLP003","CL","107001483",NA,357,NA,NA,"CO","Clinical Observation","CLINICAL SIGNS",NA,NA,"NORMAL","NORMAL",NA,NA,NA,NA,NA,NA,NA,NA,7,"2007-06-18T09:56:25",7,NA,NA,NA,NA,NA
"GLP003","CL","107001483",NA,358,NA,NA,"CO","Clinical Observation","CLINICAL SIGNS",NA,NA,"NORMAL","NORMAL",NA,NA,NA,NA,NA,NA,NA,NA,8,"2007-06-19T15:05:37",8,NA,NA,NA,NA,NA
"GLP003","CL","107001483",NA,359,NA,NA,"CO","Clinical Observation","CLINICAL SIGNS",NA,NA,"NORMAL","NORMAL",NA,NA,NA,NA,NA,NA,NA,NA,9,"2007-06-20T11:19:14",9,NA,NA,NA,NA,NA
"GLP003","CL","107001483",NA,360,NA,NA,"CO","Clinical Observation","CLINICAL SIGNS",NA,NA,"NORMAL","NORMAL",NA,NA,NA,NA,NA,NA,NA,NA,10,"2007-06-21T10:35:46",10,NA,NA,NA,NA,NA
"GLP003","CL","107001483",NA,361,NA,NA,"CO","Clinical Observation","CLINICAL SIGNS",NA,NA,"NORMAL","NORMAL",NA,NA,NA,NA,NA,NA,NA,NA,11,"2007-06-22T11:10:09",11,NA,NA,NA,NA,NA
"GLP003","CL","107001483",NA,362,NA,NA,"CO","Clinical Observation","CLINICAL SIGNS",NA,NA,"NORMAL","NORMAL",NA,NA,NA,NA,NA,NA,NA,NA,12,"2007-06-23T15:03:18",12,NA,NA,NA,NA,NA
"GLP003","CL","107001483",NA,363,NA,NA,"CO","Clinical Observation","CLINICAL SIGNS",NA,NA,"NORMAL","NORMAL",NA,NA,NA,NA,NA,NA,NA,NA,13,"2007-06-24T14:13:41",13,NA,NA,NA,NA,NA
"GLP003","CL","107001483",NA,364,NA,NA,"CO","Clinical Observation","CLINICAL SIGNS",NA,NA,"NORMAL","NORMAL",NA,NA,NA,NA,NA,NA,NA,NA,14,"2007-06-25T14:38:21",14,NA,NA,NA,NA,NA
"GLP003","CL","107001483",NA,365,NA,NA,"CO","Clinical Observation","CLINICAL SIGNS",NA,NA,"NORMAL","NORMAL",NA,NA,NA,NA,NA,NA,NA,NA,15,"2007-06-26T13:06:28",15,NA,NA,NA,NA,NA
"GLP003","CL","107001483",NA,366,NA,NA,"CO","Clinical Observation","CLINICAL SIGNS",NA,NA,"NORMAL","NORMAL",NA,NA,NA,NA,NA,NA,NA,NA,16,"2007-06-27T11:25:01",16,NA,NA,NA,NA,NA
"GLP003","CL","107001483",NA,367,NA,NA,"CO","Clinical Observation","CLINICAL SIGNS",NA,NA,"NORMAL","NORMAL",NA,NA,NA,NA,NA,NA,NA,NA,17,"2007-06-28T13:50:15",17,NA,NA,NA,NA,NA
"GLP003","CL","107001483",NA,368,NA,NA,"CO","Clinical Observation","CLINICAL SIGNS",NA,NA,"NORMAL","NORMAL",NA,NA,NA,NA,NA,NA,NA,NA,18,"2007-06-29T13:15:41",18,NA,NA,NA,NA,NA
"GLP003","CL","107001483",NA,369,NA,NA,"CO","Clinical Observation","CLINICAL SIGNS",NA,NA,"NORMAL","NORMAL",NA,NA,NA,NA,NA,NA,NA,NA,19,"2007-06-30T13:32:43",19,NA,NA,NA,NA,NA
"GLP003","CL","107001483",NA,370,NA,NA,"CO","Clinical Observation","CLINICAL SIGNS",NA,NA,"NORMAL","NORMAL",NA,NA,NA,NA,NA,NA,NA,NA,20,"2007-07-01T11:25:39",20,NA,NA,NA,NA,NA
"GLP003","CL","107001483",NA,371,NA,NA,"CO","Clinical Observation","CLINICAL SIGNS",NA,NA,"NORMAL","NORMAL",NA,NA,NA,NA,NA,NA,NA,NA,21,"2007-07-02T12:33:14",21,NA,NA,NA,NA,NA
"GLP003","CL","107001483",NA,372,NA,NA,"CO","Clinical Observation","CLINICAL SIGNS",NA,NA,"NORMAL","NORMAL",NA,NA,NA,NA,NA,NA,NA,NA,22,"2007-07-03T08:00:51",22,NA,NA,NA,NA,NA
"GLP003","CL","107001483",NA,373,NA,NA,"CO","Clinical Observation","CLINICAL SIGNS",NA,NA,"NORMAL","NORMAL",NA,NA,NA,NA,NA,NA,NA,NA,23,"2007-07-04T12:51:31",23,NA,NA,NA,NA,NA
"GLP003","CL","107001483",NA,374,NA,NA,"CO","Clinical Observation","CLINICAL SIGNS",NA,NA,"NORMAL","NORMAL",NA,NA,NA,NA,NA,NA,NA,NA,24,"2007-07-05T14:25:49",24,NA,NA,NA,NA,NA
"GLP003","CL","107001483",NA,375,NA,NA,"CO","Clinical Observation","CLINICAL SIGNS",NA,NA,"NORMAL","NORMAL",NA,NA,NA,NA,NA,NA,NA,NA,25,"2007-07-06T11:30:11",25,NA,NA,NA,NA,NA
"GLP003","CL","107001483",NA,376,NA,NA,"CO","Clinical Observation","CLINICAL SIGNS",NA,NA,"Feces, unformed","Feces, unformed",NA,NA,NA,NA,NA,NA,NA,NA,3,"2007-06-14T06:09:00",3,NA,NA,NA,NA,NA
"GLP003","CL","107001483",NA,377,NA,NA,"CO","Clinical Observation","CLINICAL SIGNS",NA,NA,"Feces, unformed","Feces, unformed",NA,NA,NA,NA,NA,NA,NA,NA,23,"2007-07-04T06:58:00",23,NA,NA,NA,NA,NA
"GLP003","CL","107001483",NA,378,NA,NA,"CO","Clinical Observation","CLINICAL SIGNS",NA,NA,"Chromorhinorrhea","Chromorhinorrhea",NA,NA,NA,NA,NA,NA,NA,NA,26,"2007-07-07T12:24:19",26,NA,NA,NA,NA,NA
"GLP003","CL","107001483",NA,379,NA,NA,"CO","Clinical Observation","CLINICAL SIGNS",NA,NA,"Alopecia, Hindlimbs, both","Alopecia",NA,NA,NA,"Hindlimbs, both",NA,NA,NA,NA,27,"2007-07-08T12:54:14",27,NA,NA,NA,NA,NA
"GLP003","CL","107001483",NA,380,NA,NA,"CO","Clinical Observation","CLINICAL SIGNS",NA,NA,"Feces, unformed","Feces, unformed",NA,NA,NA,NA,NA,NA,NA,NA,28,"2007-07-09T05:58:00",28,NA,NA,NA,NA,NA
"GLP003","CL","107001483",NA,381,NA,NA,"CO","Clinical Observation","CLINICAL SIGNS",NA,NA,"Alopecia, Hindlimbs, both","Alopecia",NA,NA,NA,"Hindlimbs, both",NA,NA,NA,NA,28,"2007-07-09T12:05:07",28,NA,NA,NA,NA,NA
"GLP003","CL","107001483",NA,382,NA,NA,"CO","Clinical Observation","CLINICAL SIGNS",NA,NA,"Alopecia, Hindlimbs, both","Alopecia",NA,NA,NA,"Hindlimbs, both",NA,NA,NA,NA,29,"2007-07-10T11:58:07",29,NA,NA,NA,NA,NA
"GLP003","CL","107001483",NA,383,NA,NA,"CO","Clinical Observation","CLINICAL SIGNS",NA,NA,"End-of-Dose Necropsy","End-of-Dose Necropsy",NA,NA,NA,NA,NA,NA,NA,NA,30,"2007-07-11T09:39:55",30,NA,NA,NA,NA,NA
"GLP003","CL","107001483",NA,384,NA,NA,"EOBS","Ophthalmologic Examinations","OPHTHALMOLOGY",NA,NA,"NORMAL","NORMAL",NA,NA,NA,NA,NA,NA,NA,NA,-5,"2007-06-07T15:34:11",-5,NA,NA,NA,NA,NA
"GLP003","CL","107001483",NA,385,NA,NA,"EOBS","Ophthalmologic Examinations","OPHTHALMOLOGY",NA,NA,"NORMAL","NORMAL",NA,NA,NA,NA,NA,NA,NA,NA,22,"2007-07-03T09:37:59",22,NA,NA,NA,NA,NA
"GLP003","CL","107001483",NA,386,NA,NA,"VOBS","Veterinary Examinations","PHYSICAL EXAM",NA,NA,"NORMAL","NORMAL",NA,NA,NA,NA,NA,NA,NA,NA,-5,"2007-06-07T08:15:15",-5,NA,NA,NA,NA,NA
"GLP003","CL","107001483",NA,387,NA,NA,"VOBS","Veterinary Examinations","PHYSICAL EXAM",NA,NA,"NORMAL","NORMAL",NA,NA,NA,NA,NA,NA,NA,NA,22,"2007-07-03T10:33:23",22,NA,NA,NA,NA,NA
"GLP003","CL","107001397",NA,388,NA,NA,"CO","Clinical Observation","CLINICAL SIGNS",NA,NA,"NORMAL","NORMAL",NA,NA,NA,NA,NA,NA,NA,NA,1,"2007-06-12T12:31:29",1,NA,NA,NA,NA,NA
"GLP003","CL","107001397",NA,389,NA,NA,"CO","Clinical Observation","CLINICAL SIGNS",NA,NA,"NORMAL","NORMAL",NA,NA,NA,NA,NA,NA,NA,NA,2,"2007-06-13T14:48:10",2,NA,NA,NA,NA,NA
"GLP003","CL","107001397",NA,390,NA,NA,"CO","Clinical Observation","CLINICAL SIGNS",NA,NA,"NORMAL","NORMAL",NA,NA,NA,NA,NA,NA,NA,NA,3,"2007-06-14T15:24:51",3,NA,NA,NA,NA,NA
"GLP003","CL","107001397",NA,391,NA,NA,"CO","Clinical Observation","CLINICAL SIGNS",NA,NA,"NORMAL","NORMAL",NA,NA,NA,NA,NA,NA,NA,NA,4,"2007-06-15T11:07:56",4,NA,NA,NA,NA,NA
"GLP003","CL","107001397",NA,392,NA,NA,"CO","Clinical Observation","CLINICAL SIGNS",NA,NA,"NORMAL","NORMAL",NA,NA,NA,NA,NA,NA,NA,NA,5,"2007-06-16T15:19:49",5,NA,NA,NA,NA,NA
"GLP003","CL","107001397",NA,393,NA,NA,"CO","Clinical Observation","CLINICAL SIGNS",NA,NA,"NORMAL","NORMAL",NA,NA,NA,NA,NA,NA,NA,NA,6,"2007-06-17T10:34:43",6,NA,NA,NA,NA,NA
"GLP003","CL","107001397",NA,394,NA,NA,"CO","Clinical Observation","CLINICAL SIGNS",NA,NA,"NORMAL","NORMAL",NA,NA,NA,NA,NA,NA,NA,NA,7,"2007-06-18T09:56:27",7,NA,NA,NA,NA,NA
"GLP003","CL","107001397",NA,395,NA,NA,"CO","Clinical Observation","CLINICAL SIGNS",NA,NA,"NORMAL","NORMAL",NA,NA,NA,NA,NA,NA,NA,NA,8,"2007-06-19T15:05:40",8,NA,NA,NA,NA,NA
"GLP003","CL","107001397",NA,396,NA,NA,"CO","Clinical Observation","CLINICAL SIGNS",NA,NA,"NORMAL","NORMAL",NA,NA,NA,NA,NA,NA,NA,NA,9,"2007-06-20T11:19:15",9,NA,NA,NA,NA,NA
"GLP003","CL","107001397",NA,397,NA,NA,"CO","Clinical Observation","CLINICAL SIGNS",NA,NA,"NORMAL","NORMAL",NA,NA,NA,NA,NA,NA,NA,NA,10,"2007-06-21T10:35:48",10,NA,NA,NA,NA,NA
"GLP003","CL","107001397",NA,398,NA,NA,"CO","Clinical Observation","CLINICAL SIGNS",NA,NA,"NORMAL","NORMAL",NA,NA,NA,NA,NA,NA,NA,NA,11,"2007-06-22T11:10:28",11,NA,NA,NA,NA,NA
"GLP003","CL","107001397",NA,399,NA,NA,"CO","Clinical Observation","CLINICAL SIGNS",NA,NA,"NORMAL","NORMAL",NA,NA,NA,NA,NA,NA,NA,NA,12,"2007-06-23T15:05:45",12,NA,NA,NA,NA,NA
"GLP003","CL","107001397",NA,400,NA,NA,"CO","Clinical Observation","CLINICAL SIGNS",NA,NA,"NORMAL","NORMAL",NA,NA,NA,NA,NA,NA,NA,NA,13,"2007-06-24T14:13:43",13,NA,NA,NA,NA,NA
"GLP003","CL","107001397",NA,401,NA,NA,"CO","Clinical Observation","CLINICAL SIGNS",NA,NA,"NORMAL","NORMAL",NA,NA,NA,NA,NA,NA,NA,NA,14,"2007-06-25T14:38:22",14,NA,NA,NA,NA,NA
"GLP003","CL","107001397",NA,402,NA,NA,"CO","Clinical Observation","CLINICAL SIGNS",NA,NA,"NORMAL","NORMAL",NA,NA,NA,NA,NA,NA,NA,NA,15,"2007-06-26T13:06:30",15,NA,NA,NA,NA,NA
"GLP003","CL","107001397",NA,403,NA,NA,"CO","Clinical Observation","CLINICAL SIGNS",NA,NA,"NORMAL","NORMAL",NA,NA,NA,NA,NA,NA,NA,NA,16,"2007-06-27T11:25:02",16,NA,NA,NA,NA,NA
"GLP003","CL","107001397",NA,404,NA,NA,"CO","Clinical Observation","CLINICAL SIGNS",NA,NA,"NORMAL","NORMAL",NA,NA,NA,NA,NA,NA,NA,NA,17,"2007-06-28T13:50:16",17,NA,NA,NA,NA,NA
"GLP003","CL","107001397",NA,405,NA,NA,"CO","Clinical Observation","CLINICAL SIGNS",NA,NA,"NORMAL","NORMAL",NA,NA,NA,NA,NA,NA,NA,NA,18,"2007-06-29T13:15:43",18,NA,NA,NA,NA,NA
"GLP003","CL","107001397",NA,406,NA,NA,"CO","Clinical Observation","CLINICAL SIGNS",NA,NA,"NORMAL","NORMAL",NA,NA,NA,NA,NA,NA,NA,NA,19,"2007-06-30T13:32:44",19,NA,NA,NA,NA,NA
"GLP003","CL","107001397",NA,407,NA,NA,"CO","Clinical Observation","CLINICAL SIGNS",NA,NA,"NORMAL","NORMAL",NA,NA,NA,NA,NA,NA,NA,NA,20,"2007-07-01T11:25:40",20,NA,NA,NA,NA,NA
"GLP003","CL","107001397",NA,408,NA,NA,"CO","Clinical Observation","CLINICAL SIGNS",NA,NA,"NORMAL","NORMAL",NA,NA,NA,NA,NA,NA,NA,NA,21,"2007-07-02T12:33:15",21,NA,NA,NA,NA,NA
"GLP003","CL","107001397",NA,409,NA,NA,"CO","Clinical Observation","CLINICAL SIGNS",NA,NA,"NORMAL","NORMAL",NA,NA,NA,NA,NA,NA,NA,NA,22,"2007-07-03T08:01:29",22,NA,NA,NA,NA,NA
"GLP003","CL","107001397",NA,410,NA,NA,"CO","Clinical Observation","CLINICAL SIGNS",NA,NA,"NORMAL","NORMAL",NA,NA,NA,NA,NA,NA,NA,NA,23,"2007-07-04T12:51:32",23,NA,NA,NA,NA,NA
"GLP003","CL","107001397",NA,411,NA,NA,"CO","Clinical Observation","CLINICAL SIGNS",NA,NA,"NORMAL","NORMAL",NA,NA,NA,NA,NA,NA,NA,NA,24,"2007-07-05T14:25:51",24,NA,NA,NA,NA,NA
"GLP003","CL","107001397",NA,412,NA,NA,"CO","Clinical Observation","CLINICAL SIGNS",NA,NA,"NORMAL","NORMAL",NA,NA,NA,NA,NA,NA,NA,NA,25,"2007-07-06T11:30:12",25,NA,NA,NA,NA,NA
"GLP003","CL","107001397",NA,413,NA,NA,"CO","Clinical Observation","CLINICAL SIGNS",NA,NA,"NORMAL","NORMAL",NA,NA,NA,NA,NA,NA,NA,NA,26,"2007-07-07T12:24:54",26,NA,NA,NA,NA,NA
"GLP003","CL","107001397",NA,414,NA,NA,"CO","Clinical Observation","CLINICAL SIGNS",NA,NA,"NORMAL","NORMAL",NA,NA,NA,NA,NA,NA,NA,NA,27,"2007-07-08T12:55:06",27,NA,NA,NA,NA,NA
"GLP003","CL","107001397",NA,415,NA,NA,"CO","Clinical Observation","CLINICAL SIGNS",NA,NA,"NORMAL","NORMAL",NA,NA,NA,NA,NA,NA,NA,NA,28,"2007-07-09T12:05:09",28,NA,NA,NA,NA,NA
"GLP003","CL","107001397",NA,416,NA,NA,"CO","Clinical Observation","CLINICAL SIGNS",NA,NA,"NORMAL","NORMAL",NA,NA,NA,NA,NA,NA,NA,NA,29,"2007-07-10T11:58:55",29,NA,NA,NA,NA,NA
"GLP003","CL","107001397",NA,417,NA,NA,"CO","Clinical Observation","CLINICAL SIGNS",NA,NA,"NORMAL","NORMAL",NA,NA,NA,NA,NA,NA,NA,NA,30,"2007-07-11T10:20:19",30,NA,NA,NA,NA,NA
"GLP003","CL","107001397",NA,418,NA,NA,"CO","Clinical Observation","CLINICAL SIGNS",NA,NA,"NORMAL","NORMAL",NA,NA,NA,NA,NA,NA,NA,NA,31,"2007-07-12T06:58:55",31,NA,NA,NA,NA,NA
"GLP003","CL","107001397",NA,419,NA,NA,"CO","Clinical Observation","CLINICAL SIGNS",NA,NA,"NORMAL","NORMAL",NA,NA,NA,NA,NA,NA,NA,NA,32,"2007-07-13T07:12:46",32,NA,NA,NA,NA,NA
"GLP003","CL","107001397",NA,420,NA,NA,"CO","Clinical Observation","CLINICAL SIGNS",NA,NA,"NORMAL","NORMAL",NA,NA,NA,NA,NA,NA,NA,NA,33,"2007-07-14T10:05:01",33,NA,NA,NA,NA,NA
"GLP003","CL","107001397",NA,421,NA,NA,"CO","Clinical Observation","CLINICAL SIGNS",NA,NA,"NORMAL","NORMAL",NA,NA,NA,NA,NA,NA,NA,NA,34,"2007-07-15T09:48:21",34,NA,NA,NA,NA,NA
"GLP003","CL","107001397",NA,422,NA,NA,"CO","Clinical Observation","CLINICAL SIGNS",NA,NA,"NORMAL","NORMAL",NA,NA,NA,NA,NA,NA,NA,NA,35,"2007-07-16T09:55:39",35,NA,NA,NA,NA,NA
"GLP003","CL","107001397",NA,423,NA,NA,"CO","Clinical Observation","CLINICAL SIGNS",NA,NA,"NORMAL","NORMAL",NA,NA,NA,NA,NA,NA,NA,NA,36,"2007-07-17T10:03:42",36,NA,NA,NA,NA,NA
"GLP003","CL","107001397",NA,424,NA,NA,"CO","Clinical Observation","CLINICAL SIGNS",NA,NA,"NORMAL","NORMAL",NA,NA,NA,NA,NA,NA,NA,NA,37,"2007-07-18T09:56:15",37,NA,NA,NA,NA,NA
"GLP003","CL","107001397",NA,425,NA,NA,"CO","Clinical Observation","CLINICAL SIGNS",NA,NA,"NORMAL","NORMAL",NA,NA,NA,NA,NA,NA,NA,NA,38,"2007-07-19T08:51:04",38,NA,NA,NA,NA,NA
"GLP003","CL","107001397",NA,426,NA,NA,"CO","Clinical Observation","CLINICAL SIGNS",NA,NA,"NORMAL","NORMAL",NA,NA,NA,NA,NA,NA,NA,NA,39,"2007-07-20T07:27:41",39,NA,NA,NA,NA,NA
"GLP003","CL","107001397",NA,427,NA,NA,"CO","Clinical Observation","CLINICAL SIGNS",NA,NA,"NORMAL","NORMAL",NA,NA,NA,NA,NA,NA,NA,NA,40,"2007-07-21T14:22:38",40,NA,NA,NA,NA,NA
"GLP003","CL","107001397",NA,428,NA,NA,"CO","Clinical Observation","CLINICAL SIGNS",NA,NA,"NORMAL","NORMAL",NA,NA,NA,NA,NA,NA,NA,NA,41,"2007-07-22T14:09:53",41,NA,NA,NA,NA,NA
"GLP003","CL","107001397",NA,429,NA,NA,"CO","Clinical Observation","CLINICAL SIGNS",NA,NA,"NORMAL","NORMAL",NA,NA,NA,NA,NA,NA,NA,NA,42,"2007-07-23T07:41:53",42,NA,NA,NA,NA,NA
"GLP003","CL","107001397",NA,430,NA,NA,"CO","Clinical Observation","CLINICAL SIGNS",NA,NA,"Feces, unformed","Feces, unformed",NA,NA,NA,NA,NA,NA,NA,NA,23,"2007-07-04T06:58:00",23,NA,NA,NA,NA,NA
"GLP003","CL","107001397",NA,431,NA,NA,"CO","Clinical Observation","CLINICAL SIGNS",NA,NA,"Feces, unformed","Feces, unformed",NA,NA,NA,NA,NA,NA,NA,NA,24,"2007-07-05T06:59:00",24,NA,NA,NA,NA,NA
"GLP003","CL","107001397",NA,432,NA,NA,"CO","Clinical Observation","CLINICAL SIGNS",NA,NA,"Postdose Necropsy","Postdose Necropsy",NA,NA,NA,NA,NA,NA,NA,NA,43,"2007-07-24T09:54:54",43,NA,NA,NA,NA,NA
"GLP003","CL","107001397",NA,433,NA,NA,"EOBS","Ophthalmologic Examinations","OPHTHALMOLOGY",NA,NA,"NORMAL","NORMAL",NA,NA,NA,NA,NA,NA,NA,NA,-5,"2007-06-07T15:34:11",-5,NA,NA,NA,NA,NA
"GLP003","CL","107001397",NA,434,NA,NA,"EOBS","Ophthalmologic Examinations","OPHTHALMOLOGY",NA,NA,"NORMAL","NORMAL",NA,NA,NA,NA,NA,NA,NA,NA,22,"2007-07-03T09:37:59",22,NA,NA,NA,NA,NA
"GLP003","CL","107001397",NA,435,NA,NA,"VOBS","Veterinary Examinations","PHYSICAL EXAM",NA,NA,"NORMAL","NORMAL",NA,NA,NA,NA,NA,NA,NA,NA,-5,"2007-06-07T08:15:15",-5,NA,NA,NA,NA,NA
"GLP003","CL","107001397",NA,436,NA,NA,"VOBS","Veterinary Examinations","PHYSICAL EXAM",NA,NA,"NORMAL","NORMAL",NA,NA,NA,NA,NA,NA,NA,NA,22,"2007-07-03T10:33:23",22,NA,NA,NA,NA,NA
"GLP003","CL","107001467",NA,437,NA,NA,"CO","Clinical Observation","CLINICAL SIGNS",NA,NA,"NORMAL","NORMAL",NA,NA,NA,NA,NA,NA,NA,NA,1,"2007-06-12T12:31:31",1,NA,NA,NA,NA,NA
"GLP003","CL","107001467",NA,438,NA,NA,"CO","Clinical Observation","CLINICAL SIGNS",NA,NA,"NORMAL","NORMAL",NA,NA,NA,NA,NA,NA,NA,NA,2,"2007-06-13T14:48:19",2,NA,NA,NA,NA,NA
"GLP003","CL","107001467",NA,439,NA,NA,"CO","Clinical Observation","CLINICAL SIGNS",NA,NA,"NORMAL","NORMAL",NA,NA,NA,NA,NA,NA,NA,NA,3,"2007-06-14T15:24:59",3,NA,NA,NA,NA,NA
"GLP003","CL","107001467",NA,440,NA,NA,"VOBS","Veterinary Examinations","PHYSICAL EXAM",NA,NA,"Alopecia, Forefeet/hands, both","Alopecia",NA,NA,NA,"Forefeet/hands, both",NA,NA,NA,NA,22,"2007-07-03T09:52:27",22,NA,NA,NA,NA,NA
"GLP003","CL","107001467",NA,441,NA,NA,"CO","Clinical Observation","CLINICAL SIGNS",NA,NA,"Feces, unformed","Feces, unformed",NA,NA,NA,NA,NA,NA,NA,NA,2,"2007-06-13T07:05:00",2,NA,NA,NA,NA,NA
"GLP003","CL","107001467",NA,442,NA,NA,"CO","Clinical Observation","CLINICAL SIGNS",NA,NA,"Feces, unformed","Feces, unformed",NA,NA,NA,NA,NA,NA,NA,NA,3,"2007-06-14T06:09:00",3,NA,NA,NA,NA,NA
"GLP003","CL","107001467",NA,443,NA,NA,"CO","Clinical Observation","CLINICAL SIGNS",NA,NA,"Haircoat, thin, Forelimbs, both","Haircoat, thin",NA,NA,NA,"Forelimbs, both",NA,NA,NA,NA,4,"2007-06-15T11:14:31",4,NA,NA,NA,NA,NA
"GLP003","CL","107001467",NA,444,NA,NA,"CO","Clinical Observation","CLINICAL SIGNS",NA,NA,"Haircoat, thin, Forelimbs, both","Haircoat, thin",NA,NA,NA,"Forelimbs, both",NA,NA,NA,NA,5,"2007-06-16T15:19:53",5,NA,NA,NA,NA,NA
"GLP003","CL","107001467",NA,445,NA,NA,"CO","Clinical Observation","CLINICAL SIGNS",NA,NA,"Haircoat, thin, Forelimbs, both","Haircoat, thin",NA,NA,NA,"Forelimbs, both",NA,NA,NA,NA,6,"2007-06-17T10:34:47",6,NA,NA,NA,NA,NA
"GLP003","CL","107001467",NA,446,NA,NA,"CO","Clinical Observation","CLINICAL SIGNS",NA,NA,"Haircoat, thin, Forelimbs, both","Haircoat, thin",NA,NA,NA,"Forelimbs, both",NA,NA,NA,NA,7,"2007-06-18T09:56:33",7,NA,NA,NA,NA,NA
"GLP003","CL","107001467",NA,447,NA,NA,"CO","Clinical Observation","CLINICAL SIGNS",NA,NA,"Haircoat, thin, Forelimbs, both","Haircoat, thin",NA,NA,NA,"Forelimbs, both",NA,NA,NA,NA,8,"2007-06-19T15:05:47",8,NA,NA,NA,NA,NA
"GLP003","CL","107001467",NA,448,NA,NA,"CO","Clinical Observation","CLINICAL SIGNS",NA,NA,"Haircoat, thin, Forelimbs, both","Haircoat, thin",NA,NA,NA,"Forelimbs, both",NA,NA,NA,NA,9,"2007-06-20T11:19:21",9,NA,NA,NA,NA,NA
"GLP003","CL","107001467",NA,449,NA,NA,"CO","Clinical Observation","CLINICAL SIGNS",NA,NA,"Haircoat, thin, Forelimb, left","Haircoat, thin",NA,NA,NA,"Forelimb, left",NA,NA,NA,NA,10,"2007-06-21T10:36:21",10,NA,NA,NA,NA,NA
"GLP003","CL","107001467",NA,450,NA,NA,"CO","Clinical Observation","CLINICAL SIGNS",NA,NA,"Alopecia, Forelimb, right","Alopecia",NA,NA,NA,"Forelimb, right",NA,NA,NA,NA,10,"2007-06-21T10:36:21",10,NA,NA,NA,NA,NA
"GLP003","CL","107001467",NA,451,NA,NA,"CO","Clinical Observation","CLINICAL SIGNS",NA,NA,"Haircoat, thin, Forelimb, left","Haircoat, thin",NA,NA,NA,"Forelimb, left",NA,NA,NA,NA,11,"2007-06-22T11:10:34",11,NA,NA,NA,NA,NA
"GLP003","CL","107001467",NA,452,NA,NA,"CO","Clinical Observation","CLINICAL SIGNS",NA,NA,"Alopecia, Forelimb, right","Alopecia",NA,NA,NA,"Forelimb, right",NA,NA,NA,NA,11,"2007-06-22T11:10:34",11,NA,NA,NA,NA,NA
"GLP003","CL","107001467",NA,453,NA,NA,"CO","Clinical Observation","CLINICAL SIGNS",NA,NA,"Alopecia, Forelimb, right","Alopecia",NA,NA,NA,"Forelimb, right",NA,NA,NA,NA,12,"2007-06-23T15:05:49",12,NA,NA,NA,NA,NA
"GLP003","CL","107001467",NA,454,NA,NA,"CO","Clinical Observation","CLINICAL SIGNS",NA,NA,"Haircoat, thin, Forelimb, left","Haircoat, thin",NA,NA,NA,"Forelimb, left",NA,NA,NA,NA,12,"2007-06-23T15:05:49",12,NA,NA,NA,NA,NA
"GLP003","CL","107001467",NA,455,NA,NA,"CO","Clinical Observation","CLINICAL SIGNS",NA,NA,"Alopecia, Forelimb, right","Alopecia",NA,NA,NA,"Forelimb, right",NA,NA,NA,NA,13,"2007-06-24T14:14:01",13,NA,NA,NA,NA,NA
"GLP003","CL","107001467",NA,456,NA,NA,"CO","Clinical Observation","CLINICAL SIGNS",NA,NA,"Haircoat, thin, Forelimb, left","Haircoat, thin",NA,NA,NA,"Forelimb, left",NA,NA,NA,NA,13,"2007-06-24T14:14:01",13,NA,NA,NA,NA,NA
"GLP003","CL","107001467",NA,457,NA,NA,"CO","Clinical Observation","CLINICAL SIGNS",NA,NA,"Haircoat, thin, Forelimb, left","Haircoat, thin",NA,NA,NA,"Forelimb, left",NA,NA,NA,NA,14,"2007-06-25T14:38:31",14,NA,NA,NA,NA,NA
"GLP003","CL","107001467",NA,458,NA,NA,"CO","Clinical Observation","CLINICAL SIGNS",NA,NA,"Alopecia, Forelimb, right","Alopecia",NA,NA,NA,"Forelimb, right",NA,NA,NA,NA,14,"2007-06-25T14:38:31",14,NA,NA,NA,NA,NA
"GLP003","CL","107001467",NA,459,NA,NA,"CO","Clinical Observation","CLINICAL SIGNS",NA,NA,"Alopecia, Forelimbs, both","Alopecia",NA,NA,NA,"Forelimbs, both",NA,NA,NA,NA,15,"2007-06-26T13:07:05",15,NA,NA,NA,NA,NA
"GLP003","CL","107001467",NA,460,NA,NA,"CO","Clinical Observation","CLINICAL SIGNS",NA,NA,"Feces, unformed","Feces, unformed",NA,NA,NA,NA,NA,NA,NA,NA,16,"2007-06-27T06:55:00",16,NA,NA,NA,NA,NA
"GLP003","CL","107001467",NA,461,NA,NA,"CO","Clinical Observation","CLINICAL SIGNS",NA,NA,"Alopecia, Forelimbs, both","Alopecia",NA,NA,NA,"Forelimbs, both",NA,NA,NA,NA,16,"2007-06-27T11:25:07",16,NA,NA,NA,NA,NA
"GLP003","CL","107001467",NA,462,NA,NA,"CO","Clinical Observation","CLINICAL SIGNS",NA,NA,"Alopecia, Forelimbs, both","Alopecia",NA,NA,NA,"Forelimbs, both",NA,NA,NA,NA,17,"2007-06-28T13:53:40",17,NA,NA,NA,NA,NA
"GLP003","CL","107001467",NA,463,NA,NA,"CO","Clinical Observation","CLINICAL SIGNS",NA,NA,"Alopecia, Forelimbs, both","Alopecia",NA,NA,NA,"Forelimbs, both",NA,NA,NA,NA,18,"2007-06-29T13:15:47",18,NA,NA,NA,NA,NA
"GLP003","CL","107001467",NA,464,NA,NA,"CO","Clinical Observation","CLINICAL SIGNS",NA,NA,"Alopecia, Forelimbs, both","Alopecia",NA,NA,NA,"Forelimbs, both",NA,NA,NA,NA,19,"2007-06-30T13:32:48",19,NA,NA,NA,NA,NA
"GLP003","CL","107001467",NA,465,NA,NA,"CO","Clinical Observation","CLINICAL SIGNS",NA,NA,"Alopecia, Forelimbs, both","Alopecia",NA,NA,NA,"Forelimbs, both",NA,NA,NA,NA,20,"2007-07-01T11:25:44",20,NA,NA,NA,NA,NA
"GLP003","CL","107001467",NA,466,NA,NA,"CO","Clinical Observation","CLINICAL SIGNS",NA,NA,"Feces, unformed","Feces, unformed",NA,NA,NA,NA,NA,NA,NA,NA,21,"2007-07-02T07:04:00",21,NA,NA,NA,NA,NA
"GLP003","CL","107001467",NA,467,NA,NA,"CO","Clinical Observation","CLINICAL SIGNS",NA,NA,"Alopecia, Forelimbs, both","Alopecia",NA,NA,NA,"Forelimbs, both",NA,NA,NA,NA,21,"2007-07-02T12:33:19",21,NA,NA,NA,NA,NA
"GLP003","CL","107001467",NA,468,NA,NA,"CO","Clinical Observation","CLINICAL SIGNS",NA,NA,"Alopecia, Forelimbs, both","Alopecia",NA,NA,NA,"Forelimbs, both",NA,NA,NA,NA,22,"2007-07-03T08:01:33",22,NA,NA,NA,NA,NA
"GLP003","CL","107001467",NA,469,NA,NA,"CO","Clinical Observation","CLINICAL SIGNS",NA,NA,"Alopecia, Forelimbs, both","Alopecia",NA,NA,NA,"Forelimbs, both",NA,NA,NA,NA,23,"2007-07-04T12:51:38",23,NA,NA,NA,NA,NA
"GLP003","CL","107001467",NA,470,NA,NA,"CO","Clinical Observation","CLINICAL SIGNS",NA,NA,"Alopecia, Forelimbs, both","Alopecia",NA,NA,NA,"Forelimbs, both",NA,NA,NA,NA,24,"2007-07-05T14:25:56",24,NA,NA,NA,NA,NA
"GLP003","CL","107001467",NA,471,NA,NA,"CO","Clinical Observation","CLINICAL SIGNS",NA,NA,"Alopecia, Forelimbs, both","Alopecia",NA,NA,NA,"Forelimbs, both",NA,NA,NA,NA,25,"2007-07-06T11:30:16",25,NA,NA,NA,NA,NA
"GLP003","CL","107001467",NA,472,NA,NA,"CO","Clinical Observation","CLINICAL SIGNS",NA,NA,"Alopecia, Forelimbs, both","Alopecia",NA,NA,NA,"Forelimbs, both",NA,NA,NA,NA,26,"2007-07-07T12:24:58",26,NA,NA,NA,NA,NA
"GLP003","CL","107001467",NA,473,NA,NA,"CO","Clinical Observation","CLINICAL SIGNS",NA,NA,"Alopecia, Forelimbs, both","Alopecia",NA,NA,NA,"Forelimbs, both",NA,NA,NA,NA,27,"2007-07-08T12:55:10",27,NA,NA,NA,NA,NA
"GLP003","CL","107001467",NA,474,NA,NA,"CO","Clinical Observation","CLINICAL SIGNS",NA,NA,"Alopecia, Forelimbs, both","Alopecia",NA,NA,NA,"Forelimbs, both",NA,NA,NA,NA,28,"2007-07-09T12:05:15",28,NA,NA,NA,NA,NA
"GLP003","CL","107001467",NA,475,NA,NA,"CO","Clinical Observation","CLINICAL SIGNS",NA,NA,"Alopecia, Forelimbs, both","Alopecia",NA,NA,NA,"Forelimbs, both",NA,NA,NA,NA,29,"2007-07-10T11:59:40",29,NA,NA,NA,NA,NA
"GLP003","CL","107001467",NA,476,NA,NA,"CO","Clinical Observation","CLINICAL SIGNS",NA,NA,"Alopecia, Forelimbs, both","Alopecia",NA,NA,NA,"Forelimbs, both",NA,NA,NA,NA,30,"2007-07-11T10:20:23",30,NA,NA,NA,NA,NA
"GLP003","CL","107001467",NA,477,NA,NA,"CO","Clinical Observation","CLINICAL SIGNS",NA,NA,"Alopecia, Forelimbs, both","Alopecia",NA,NA,NA,"Forelimbs, both",NA,NA,NA,NA,31,"2007-07-12T06:59:00",31,NA,NA,NA,NA,NA
"GLP003","CL","107001467",NA,478,NA,NA,"CO","Clinical Observation","CLINICAL SIGNS",NA,NA,"Alopecia, Forelimbs, both","Alopecia",NA,NA,NA,"Forelimbs, both",NA,NA,NA,NA,32,"2007-07-13T07:12:51",32,NA,NA,NA,NA,NA
"GLP003","CL","107001467",NA,479,NA,NA,"CO","Clinical Observation","CLINICAL SIGNS",NA,NA,"Alopecia, Forelimbs, both","Alopecia",NA,NA,NA,"Forelimbs, both",NA,NA,NA,NA,33,"2007-07-14T10:05:05",33,NA,NA,NA,NA,NA
"GLP003","CL","107001467",NA,480,NA,NA,"CO","Clinical Observation","CLINICAL SIGNS",NA,NA,"Alopecia, Forelimbs, both","Alopecia",NA,NA,NA,"Forelimbs, both",NA,NA,NA,NA,34,"2007-07-15T09:48:26",34,NA,NA,NA,NA,NA
"GLP003","CL","107001467",NA,481,NA,NA,"CO","Clinical Observation","CLINICAL SIGNS",NA,NA,"Alopecia, Forelimbs, both","Alopecia",NA,NA,NA,"Forelimbs, both",NA,NA,NA,NA,35,"2007-07-16T09:55:44",35,NA,NA,NA,NA,NA
"GLP003","CL","107001467",NA,482,NA,NA,"CO","Clinical Observation","CLINICAL SIGNS",NA,NA,"Alopecia, Forelimbs, both","Alopecia",NA,NA,NA,"Forelimbs, both",NA,NA,NA,NA,36,"2007-07-17T10:03:51",36,NA,NA,NA,NA,NA
"GLP003","CL","107001467",NA,483,NA,NA,"CO","Clinical Observation","CLINICAL SIGNS",NA,NA,"Alopecia, Forelimbs, both","Alopecia",NA,NA,NA,"Forelimbs, both",NA,NA,NA,NA,37,"2007-07-18T09:56:19",37,NA,NA,NA,NA,NA
"GLP003","CL","107001467",NA,484,NA,NA,"CO","Clinical Observation","CLINICAL SIGNS",NA,NA,"Alopecia, Forelimbs, both","Alopecia",NA,NA,NA,"Forelimbs, both",NA,NA,NA,NA,38,"2007-07-19T08:51:09",38,NA,NA,NA,NA,NA
"GLP003","CL","107001467",NA,485,NA,NA,"CO","Clinical Observation","CLINICAL SIGNS",NA,NA,"Alopecia, Forelimbs, both","Alopecia",NA,NA,NA,"Forelimbs, both",NA,NA,NA,NA,39,"2007-07-20T07:27:47",39,NA,NA,NA,NA,NA
"GLP003","CL","107001467",NA,486,NA,NA,"CO","Clinical Observation","CLINICAL SIGNS",NA,NA,"Alopecia, Forelimbs, both","Alopecia",NA,NA,NA,"Forelimbs, both",NA,NA,NA,NA,40,"2007-07-21T14:22:52",40,NA,NA,NA,NA,NA
"GLP003","CL","107001467",NA,487,NA,NA,"CO","Clinical Observation","CLINICAL SIGNS",NA,NA,"Alopecia, Forelimbs, both","Alopecia",NA,NA,NA,"Forelimbs, both",NA,NA,NA,NA,41,"2007-07-22T14:10:25",41,NA,NA,NA,NA,NA
"GLP003","CL","107001467",NA,488,NA,NA,"CO","Clinical Observation","CLINICAL SIGNS",NA,NA,"Alopecia, Forelimbs, both","Alopecia",NA,NA,NA,"Forelimbs, both",NA,NA,NA,NA,42,"2007-07-23T07:41:59",42,NA,NA,NA,NA,NA
"GLP003","CL","107001467",NA,489,NA,NA,"CO","Clinical Observation","CLINICAL SIGNS",NA,NA,"Postdose Necropsy","Postdose Necropsy",NA,NA,NA,NA,NA,NA,NA,NA,43,"2007-07-24T09:55:08",43,NA,NA,NA,NA,NA
"GLP003","CL","107001467",NA,490,NA,NA,"EOBS","Ophthalmologic Examinations","OPHTHALMOLOGY",NA,NA,"NORMAL","NORMAL",NA,NA,NA,NA,NA,NA,NA,NA,-5,"2007-06-07T15:34:11",-5,NA,NA,NA,NA,NA
"GLP003","CL","107001467",NA,491,NA,NA,"EOBS","Ophthalmologic Examinations","OPHTHALMOLOGY",NA,NA,"NORMAL","NORMAL",NA,NA,NA,NA,NA,NA,NA,NA,22,"2007-07-03T09:37:59",22,NA,NA,NA,NA,NA
"GLP003","CL","107001467",NA,492,NA,NA,"VOBS","Veterinary Examinations","PHYSICAL EXAM",NA,NA,"NORMAL","NORMAL",NA,NA,NA,NA,NA,NA,NA,NA,-5,"2007-06-07T08:15:15",-5,NA,NA,NA,NA,NA
"GLP003","CL","107001387",NA,493,NA,NA,"CO","Clinical Observation","CLINICAL SIGNS",NA,NA,"NORMAL","NORMAL",NA,NA,NA,NA,NA,NA,NA,NA,1,"2007-06-12T12:31:32",1,NA,NA,NA,NA,NA
"GLP003","CL","107001387",NA,494,NA,NA,"CO","Clinical Observation","CLINICAL SIGNS",NA,NA,"NORMAL","NORMAL",NA,NA,NA,NA,NA,NA,NA,NA,2,"2007-06-13T14:48:21",2,NA,NA,NA,NA,NA
"GLP003","CL","107001387",NA,495,NA,NA,"CO","Clinical Observation","CLINICAL SIGNS",NA,NA,"NORMAL","NORMAL",NA,NA,NA,NA,NA,NA,NA,NA,3,"2007-06-14T15:25:01",3,NA,NA,NA,NA,NA
"GLP003","CL","107001387",NA,496,NA,NA,"CO","Clinical Observation","CLINICAL SIGNS",NA,NA,"NORMAL","NORMAL",NA,NA,NA,NA,NA,NA,NA,NA,4,"2007-06-15T11:14:33",4,NA,NA,NA,NA,NA
"GLP003","CL","107001387",NA,497,NA,NA,"CO","Clinical Observation","CLINICAL SIGNS",NA,NA,"NORMAL","NORMAL",NA,NA,NA,NA,NA,NA,NA,NA,5,"2007-06-16T15:20:10",5,NA,NA,NA,NA,NA
"GLP003","CL","107001387",NA,498,NA,NA,"CO","Clinical Observation","CLINICAL SIGNS",NA,NA,"NORMAL","NORMAL",NA,NA,NA,NA,NA,NA,NA,NA,6,"2007-06-17T10:35:07",6,NA,NA,NA,NA,NA
"GLP003","CL","107001387",NA,499,NA,NA,"CO","Clinical Observation","CLINICAL SIGNS",NA,NA,"NORMAL","NORMAL",NA,NA,NA,NA,NA,NA,NA,NA,7,"2007-06-18T09:57:21",7,NA,NA,NA,NA,NA
"GLP003","CL","107001387",NA,500,NA,NA,"CO","Clinical Observation","CLINICAL SIGNS",NA,NA,"NORMAL","NORMAL",NA,NA,NA,NA,NA,NA,NA,NA,8,"2007-06-19T15:05:50",8,NA,NA,NA,NA,NA
"GLP003","CL","107001387",NA,501,NA,NA,"CO","Clinical Observation","CLINICAL SIGNS",NA,NA,"NORMAL","NORMAL",NA,NA,NA,NA,NA,NA,NA,NA,9,"2007-06-20T11:19:23",9,NA,NA,NA,NA,NA
"GLP003","CL","107001387",NA,502,NA,NA,"CO","Clinical Observation","CLINICAL SIGNS",NA,NA,"NORMAL","NORMAL",NA,NA,NA,NA,NA,NA,NA,NA,10,"2007-06-21T10:37:09",10,NA,NA,NA,NA,NA
"GLP003","CL","107001387",NA,503,NA,NA,"CO","Clinical Observation","CLINICAL SIGNS",NA,NA,"NORMAL","NORMAL",NA,NA,NA,NA,NA,NA,NA,NA,11,"2007-06-22T11:10:45",11,NA,NA,NA,NA,NA
"GLP003","CL","107001387",NA,504,NA,NA,"CO","Clinical Observation","CLINICAL SIGNS",NA,NA,"NORMAL","NORMAL",NA,NA,NA,NA,NA,NA,NA,NA,12,"2007-06-23T15:05:58",12,NA,NA,NA,NA,NA
"GLP003","CL","107001387",NA,505,NA,NA,"CO","Clinical Observation","CLINICAL SIGNS",NA,NA,"NORMAL","NORMAL",NA,NA,NA,NA,NA,NA,NA,NA,13,"2007-06-24T14:14:37",13,NA,NA,NA,NA,NA
"GLP003","CL","107001387",NA,506,NA,NA,"CO","Clinical Observation","CLINICAL SIGNS",NA,NA,"NORMAL","NORMAL",NA,NA,NA,NA,NA,NA,NA,NA,14,"2007-06-25T14:38:33",14,NA,NA,NA,NA,NA
"GLP003","CL","107001387",NA,507,NA,NA,"CO","Clinical Observation","CLINICAL SIGNS",NA,NA,"NORMAL","NORMAL",NA,NA,NA,NA,NA,NA,NA,NA,15,"2007-06-26T13:07:44",15,NA,NA,NA,NA,NA
"GLP003","CL","107001387",NA,508,NA,NA,"CO","Clinical Observation","CLINICAL SIGNS",NA,NA,"NORMAL","NORMAL",NA,NA,NA,NA,NA,NA,NA,NA,16,"2007-06-27T11:25:09",16,NA,NA,NA,NA,NA
"GLP003","CL","107001387",NA,509,NA,NA,"CO","Clinical Observation","CLINICAL SIGNS",NA,NA,"NORMAL","NORMAL",NA,NA,NA,NA,NA,NA,NA,NA,17,"2007-06-28T13:54:19",17,NA,NA,NA,NA,NA
"GLP003","CL","107001387",NA,510,NA,NA,"CO","Clinical Observation","CLINICAL SIGNS",NA,NA,"NORMAL","NORMAL",NA,NA,NA,NA,NA,NA,NA,NA,18,"2007-06-29T13:15:48",18,NA,NA,NA,NA,NA
"GLP003","CL","107001387",NA,511,NA,NA,"CO","Clinical Observation","CLINICAL SIGNS",NA,NA,"NORMAL","NORMAL",NA,NA,NA,NA,NA,NA,NA,NA,19,"2007-06-30T13:33:16",19,NA,NA,NA,NA,NA
"GLP003","CL","107001387",NA,512,NA,NA,"CO","Clinical Observation","CLINICAL SIGNS",NA,NA,"NORMAL","NORMAL",NA,NA,NA,NA,NA,NA,NA,NA,20,"2007-07-01T11:26:05",20,NA,NA,NA,NA,NA
"GLP003","CL","107001387",NA,513,NA,NA,"CO","Clinical Observation","CLINICAL SIGNS",NA,NA,"NORMAL","NORMAL",NA,NA,NA,NA,NA,NA,NA,NA,21,"2007-07-02T12:34:05",21,NA,NA,NA,NA,NA
"GLP003","CL","107001387",NA,514,NA,NA,"CO","Clinical Observation","CLINICAL SIGNS",NA,NA,"NORMAL","NORMAL",NA,NA,NA,NA,NA,NA,NA,NA,22,"2007-07-03T08:02:12",22,NA,NA,NA,NA,NA
"GLP003","CL","107001387",NA,515,NA,NA,"CO","Clinical Observation","CLINICAL SIGNS",NA,NA,"NORMAL","NORMAL",NA,NA,NA,NA,NA,NA,NA,NA,23,"2007-07-04T12:56:46",23,NA,NA,NA,NA,NA
"GLP003","CL","107001387",NA,516,NA,NA,"CO","Clinical Observation","CLINICAL SIGNS",NA,NA,"NORMAL","NORMAL",NA,NA,NA,NA,NA,NA,NA,NA,24,"2007-07-05T14:25:58",24,NA,NA,NA,NA,NA
"GLP003","CL","107001387",NA,517,NA,NA,"CO","Clinical Observation","CLINICAL SIGNS",NA,NA,"NORMAL","NORMAL",NA,NA,NA,NA,NA,NA,NA,NA,25,"2007-07-06T11:30:19",25,NA,NA,NA,NA,NA
"GLP003","CL","107001387",NA,518,NA,NA,"CO","Clinical Observation","CLINICAL SIGNS",NA,NA,"NORMAL","NORMAL",NA,NA,NA,NA,NA,NA,NA,NA,26,"2007-07-07T12:25:25",26,NA,NA,NA,NA,NA
"GLP003","CL","107001387",NA,519,NA,NA,"CO","Clinical Observation","CLINICAL SIGNS",NA,NA,"NORMAL","NORMAL",NA,NA,NA,NA,NA,NA,NA,NA,27,"2007-07-08T12:55:12",27,NA,NA,NA,NA,NA
"GLP003","CL","107001387",NA,520,NA,NA,"CO","Clinical Observation","CLINICAL SIGNS",NA,NA,"NORMAL","NORMAL",NA,NA,NA,NA,NA,NA,NA,NA,28,"2007-07-09T12:06:14",28,NA,NA,NA,NA,NA
"GLP003","CL","107001387",NA,521,NA,NA,"CO","Clinical Observation","CLINICAL SIGNS",NA,NA,"NORMAL","NORMAL",NA,NA,NA,NA,NA,NA,NA,NA,30,"2007-07-11T10:21:36",30,NA,NA,NA,NA,NA
"GLP003","CL","107001387",NA,522,NA,NA,"CO","Clinical Observation","CLINICAL SIGNS",NA,NA,"NORMAL","NORMAL",NA,NA,NA,NA,NA,NA,NA,NA,39,"2007-07-20T07:28:41",39,NA,NA,NA,NA,NA
"GLP003","CL","107001387",NA,523,NA,NA,"CO","Clinical Observation","CLINICAL SIGNS",NA,NA,"NORMAL","NORMAL",NA,NA,NA,NA,NA,NA,NA,NA,40,"2007-07-21T14:24:54",40,NA,NA,NA,NA,NA
"GLP003","CL","107001387",NA,524,NA,NA,"CO","Clinical Observation","CLINICAL SIGNS",NA,NA,"NORMAL","NORMAL",NA,NA,NA,NA,NA,NA,NA,NA,41,"2007-07-22T14:10:36",41,NA,NA,NA,NA,NA
"GLP003","CL","107001387",NA,525,NA,NA,"CO","Clinical Observation","CLINICAL SIGNS",NA,NA,"NORMAL","NORMAL",NA,NA,NA,NA,NA,NA,NA,NA,42,"2007-07-23T07:44:18",42,NA,NA,NA,NA,NA
"GLP003","CL","107001387",NA,526,NA,NA,"CO","Clinical Observation","CLINICAL SIGNS",NA,NA,"Feces, unformed","Feces, unformed",NA,NA,NA,NA,NA,NA,NA,NA,23,"2007-07-04T06:58:00",23,NA,NA,NA,NA,NA
"GLP003","CL","107001387",NA,527,NA,NA,"CO","Clinical Observation","CLINICAL SIGNS",NA,NA,"Feces, unformed","Feces, unformed",NA,NA,NA,NA,NA,NA,NA,NA,29,"2007-07-10T12:00:23",29,NA,NA,NA,NA,NA
"GLP003","CL","107001387",NA,528,NA,NA,"CO","Clinical Observation","CLINICAL SIGNS",NA,NA,"Haircoat, abnormal, Head","Haircoat, abnormal",NA,NA,NA,"Head",NA,NA,NA,NA,31,"2007-07-12T06:59:26",31,NA,NA,NA,NA,NA
"GLP003","CL","107001387",NA,529,NA,NA,"CO","Clinical Observation","CLINICAL SIGNS",NA,NA,"Haircoat, abnormal, Head","Haircoat, abnormal",NA,NA,NA,"Head",NA,NA,NA,NA,32,"2007-07-13T07:12:58",32,NA,NA,NA,NA,NA
"GLP003","CL","107001387",NA,530,NA,NA,"CO","Clinical Observation","CLINICAL SIGNS",NA,NA,"Haircoat, abnormal, Head","Haircoat, abnormal",NA,NA,NA,"Head",NA,NA,NA,NA,33,"2007-07-14T10:05:55",33,NA,NA,NA,NA,NA
"GLP003","CL","107001387",NA,531,NA,NA,"CO","Clinical Observation","CLINICAL SIGNS",NA,NA,"Haircoat, abnormal, Head","Haircoat, abnormal",NA,NA,NA,"Head",NA,NA,NA,NA,34,"2007-07-15T09:48:31",34,NA,NA,NA,NA,NA
"GLP003","CL","107001387",NA,532,NA,NA,"CO","Clinical Observation","CLINICAL SIGNS",NA,NA,"Haircoat, abnormal, Head","Haircoat, abnormal",NA,NA,NA,"Head",NA,NA,NA,NA,35,"2007-07-16T09:56:46",35,NA,NA,NA,NA,NA
"GLP003","CL","107001387",NA,533,NA,NA,"CO","Clinical Observation","CLINICAL SIGNS",NA,NA,"Haircoat, abnormal, Head","Haircoat, abnormal",NA,NA,NA,"Head",NA,NA,NA,NA,36,"2007-07-17T10:04:00",36,NA,NA,NA,NA,NA
"GLP003","CL","107001387",NA,534,NA,NA,"CO","Clinical Observation","CLINICAL SIGNS",NA,NA,"Haircoat, abnormal, Head","Haircoat, abnormal",NA,NA,NA,"Head",NA,NA,NA,NA,37,"2007-07-18T09:56:25",37,NA,NA,NA,NA,NA
"GLP003","CL","107001387",NA,535,NA,NA,"CO","Clinical Observation","CLINICAL SIGNS",NA,NA,"Haircoat, abnormal, Head","Haircoat, abnormal",NA,NA,NA,"Head",NA,NA,NA,NA,38,"2007-07-19T08:51:15",38,NA,NA,NA,NA,NA
"GLP003","CL","107001387",NA,536,NA,NA,"CO","Clinical Observation","CLINICAL SIGNS",NA,NA,"Postdose Necropsy","Postdose Necropsy",NA,NA,NA,NA,NA,NA,NA,NA,43,"2007-07-24T09:55:15",43,NA,NA,NA,NA,NA
"GLP003","CL","107001387",NA,537,NA,NA,"EOBS","Ophthalmologic Examinations","OPHTHALMOLOGY",NA,NA,"NORMAL","NORMAL",NA,NA,NA,NA,NA,NA,NA,NA,-5,"2007-06-07T15:34:11",-5,NA,NA,NA,NA,NA
"GLP003","CL","107001387",NA,538,NA,NA,"EOBS","Ophthalmologic Examinations","OPHTHALMOLOGY",NA,NA,"NORMAL","NORMAL",NA,NA,NA,NA,NA,NA,NA,NA,22,"2007-07-03T09:37:59",22,NA,NA,NA,NA,NA
"GLP003","CL","107001387",NA,539,NA,NA,"VOBS","Veterinary Examinations","PHYSICAL EXAM",NA,NA,"NORMAL","NORMAL",NA,NA,NA,NA,NA,NA,NA,NA,-5,"2007-06-07T08:15:15",-5,NA,NA,NA,NA,NA
"GLP003","CL","107001387",NA,540,NA,NA,"VOBS","Veterinary Examinations","PHYSICAL EXAM",NA,NA,"NORMAL","NORMAL",NA,NA,NA,NA,NA,NA,NA,NA,22,"2007-07-03T10:33:23",22,NA,NA,NA,NA,NA
"GLP003","CL","107001384",NA,541,NA,NA,"CO","Clinical Observation","CLINICAL SIGNS",NA,NA,"NORMAL","NORMAL",NA,NA,NA,NA,NA,NA,NA,NA,1,"2007-06-12T12:31:34",1,NA,NA,NA,NA,NA
"GLP003","CL","107001384",NA,542,NA,NA,"CO","Clinical Observation","CLINICAL SIGNS",NA,NA,"NORMAL","NORMAL",NA,NA,NA,NA,NA,NA,NA,NA,2,"2007-06-13T14:48:23",2,NA,NA,NA,NA,NA
"GLP003","CL","107001384",NA,543,NA,NA,"CO","Clinical Observation","CLINICAL SIGNS",NA,NA,"NORMAL","NORMAL",NA,NA,NA,NA,NA,NA,NA,NA,3,"2007-06-14T15:25:13",3,NA,NA,NA,NA,NA
"GLP003","CL","107001384",NA,544,NA,NA,"CO","Clinical Observation","CLINICAL SIGNS",NA,NA,"NORMAL","NORMAL",NA,NA,NA,NA,NA,NA,NA,NA,4,"2007-06-15T11:14:35",4,NA,NA,NA,NA,NA
"GLP003","CL","107001384",NA,545,NA,NA,"CO","Clinical Observation","CLINICAL SIGNS",NA,NA,"NORMAL","NORMAL",NA,NA,NA,NA,NA,NA,NA,NA,5,"2007-06-16T15:20:11",5,NA,NA,NA,NA,NA
"GLP003","CL","107001384",NA,546,NA,NA,"CO","Clinical Observation","CLINICAL SIGNS",NA,NA,"NORMAL","NORMAL",NA,NA,NA,NA,NA,NA,NA,NA,6,"2007-06-17T10:35:09",6,NA,NA,NA,NA,NA
"GLP003","CL","107001384",NA,547,NA,NA,"CO","Clinical Observation","CLINICAL SIGNS",NA,NA,"NORMAL","NORMAL",NA,NA,NA,NA,NA,NA,NA,NA,7,"2007-06-18T09:57:23",7,NA,NA,NA,NA,NA
"GLP003","CL","107001384",NA,548,NA,NA,"CO","Clinical Observation","CLINICAL SIGNS",NA,NA,"NORMAL","NORMAL",NA,NA,NA,NA,NA,NA,NA,NA,8,"2007-06-19T15:05:59",8,NA,NA,NA,NA,NA
"GLP003","CL","107001384",NA,549,NA,NA,"CO","Clinical Observation","CLINICAL SIGNS",NA,NA,"NORMAL","NORMAL",NA,NA,NA,NA,NA,NA,NA,NA,9,"2007-06-20T11:19:31",9,NA,NA,NA,NA,NA
"GLP003","CL","107001384",NA,550,NA,NA,"CO","Clinical Observation","CLINICAL SIGNS",NA,NA,"NORMAL","NORMAL",NA,NA,NA,NA,NA,NA,NA,NA,10,"2007-06-21T10:37:11",10,NA,NA,NA,NA,NA
"GLP003","CL","107001384",NA,551,NA,NA,"CO","Clinical Observation","CLINICAL SIGNS",NA,NA,"NORMAL","NORMAL",NA,NA,NA,NA,NA,NA,NA,NA,11,"2007-06-22T11:10:55",11,NA,NA,NA,NA,NA
"GLP003","CL","107001384",NA,552,NA,NA,"CO","Clinical Observation","CLINICAL SIGNS",NA,NA,"NORMAL","NORMAL",NA,NA,NA,NA,NA,NA,NA,NA,12,"2007-06-23T15:07:04",12,NA,NA,NA,NA,NA
"GLP003","CL","107001384",NA,553,NA,NA,"CO","Clinical Observation","CLINICAL SIGNS",NA,NA,"NORMAL","NORMAL",NA,NA,NA,NA,NA,NA,NA,NA,13,"2007-06-24T14:14:39",13,NA,NA,NA,NA,NA
"GLP003","CL","107001384",NA,554,NA,NA,"CO","Clinical Observation","CLINICAL SIGNS",NA,NA,"NORMAL","NORMAL",NA,NA,NA,NA,NA,NA,NA,NA,14,"2007-06-25T14:38:35",14,NA,NA,NA,NA,NA
"GLP003","CL","107001384",NA,555,NA,NA,"CO","Clinical Observation","CLINICAL SIGNS",NA,NA,"NORMAL","NORMAL",NA,NA,NA,NA,NA,NA,NA,NA,15,"2007-06-26T13:07:46",15,NA,NA,NA,NA,NA
"GLP003","CL","107001384",NA,556,NA,NA,"CO","Clinical Observation","CLINICAL SIGNS",NA,NA,"NORMAL","NORMAL",NA,NA,NA,NA,NA,NA,NA,NA,16,"2007-06-27T11:25:11",16,NA,NA,NA,NA,NA
"GLP003","CL","107001384",NA,557,NA,NA,"CO","Clinical Observation","CLINICAL SIGNS",NA,NA,"NORMAL","NORMAL",NA,NA,NA,NA,NA,NA,NA,NA,17,"2007-06-28T13:54:20",17,NA,NA,NA,NA,NA
"GLP003","CL","107001384",NA,558,NA,NA,"CO","Clinical Observation","CLINICAL SIGNS",NA,NA,"NORMAL","NORMAL",NA,NA,NA,NA,NA,NA,NA,NA,18,"2007-06-29T13:15:49",18,NA,NA,NA,NA,NA
"GLP003","CL","107001384",NA,559,NA,NA,"CO","Clinical Observation","CLINICAL SIGNS",NA,NA,"NORMAL","NORMAL",NA,NA,NA,NA,NA,NA,NA,NA,19,"2007-06-30T13:33:17",19,NA,NA,NA,NA,NA
"GLP003","CL","107001384",NA,560,NA,NA,"CO","Clinical Observation","CLINICAL SIGNS",NA,NA,"NORMAL","NORMAL",NA,NA,NA,NA,NA,NA,NA,NA,20,"2007-07-01T11:26:06",20,NA,NA,NA,NA,NA
"GLP003","CL","107001384",NA,561,NA,NA,"CO","Clinical Observation","CLINICAL SIGNS",NA,NA,"NORMAL","NORMAL",NA,NA,NA,NA,NA,NA,NA,NA,21,"2007-07-02T12:34:06",21,NA,NA,NA,NA,NA
"GLP003","CL","107001384",NA,562,NA,NA,"CO","Clinical Observation","CLINICAL SIGNS",NA,NA,"NORMAL","NORMAL",NA,NA,NA,NA,NA,NA,NA,NA,22,"2007-07-03T08:02:14",22,NA,NA,NA,NA,NA
"GLP003","CL","107001384",NA,563,NA,NA,"CO","Clinical Observation","CLINICAL SIGNS",NA,NA,"NORMAL","NORMAL",NA,NA,NA,NA,NA,NA,NA,NA,23,"2007-07-04T12:56:47",23,NA,NA,NA,NA,NA
"GLP003","CL","107001384",NA,564,NA,NA,"CO","Clinical Observation","CLINICAL SIGNS",NA,NA,"NORMAL","NORMAL",NA,NA,NA,NA,NA,NA,NA,NA,24,"2007-07-05T14:26:00",24,NA,NA,NA,NA,NA
"GLP003","CL","107001384",NA,565,NA,NA,"CO","Clinical Observation","CLINICAL SIGNS",NA,NA,"NORMAL","NORMAL",NA,NA,NA,NA,NA,NA,NA,NA,26,"2007-07-07T12:25:43",26,NA,NA,NA,NA,NA
"GLP003","CL","107001384",NA,566,NA,NA,"CO","Clinical Observation","CLINICAL SIGNS",NA,NA,"NORMAL","NORMAL",NA,NA,NA,NA,NA,NA,NA,NA,27,"2007-07-08T12:55:14",27,NA,NA,NA,NA,NA
"GLP003","CL","107001384",NA,567,NA,NA,"CO","Clinical Observation","CLINICAL SIGNS",NA,NA,"NORMAL","NORMAL",NA,NA,NA,NA,NA,NA,NA,NA,28,"2007-07-09T12:06:15",28,NA,NA,NA,NA,NA
"GLP003","CL","107001384",NA,568,NA,NA,"CO","Clinical Observation","CLINICAL SIGNS",NA,NA,"NORMAL","NORMAL",NA,NA,NA,NA,NA,NA,NA,NA,29,"2007-07-10T12:00:57",29,NA,NA,NA,NA,NA
"GLP003","CL","107001384",NA,569,NA,NA,"CO","Clinical Observation","CLINICAL SIGNS",NA,NA,"NORMAL","NORMAL",NA,NA,NA,NA,NA,NA,NA,NA,30,"2007-07-11T10:21:40",30,NA,NA,NA,NA,NA
"GLP003","CL","107001384",NA,570,NA,NA,"CO","Clinical Observation","CLINICAL SIGNS",NA,NA,"NORMAL","NORMAL",NA,NA,NA,NA,NA,NA,NA,NA,31,"2007-07-12T07:00:05",31,NA,NA,NA,NA,NA
"GLP003","CL","107001384",NA,571,NA,NA,"CO","Clinical Observation","CLINICAL SIGNS",NA,NA,"NORMAL","NORMAL",NA,NA,NA,NA,NA,NA,NA,NA,32,"2007-07-13T07:13:00",32,NA,NA,NA,NA,NA
"GLP003","CL","107001384",NA,572,NA,NA,"CO","Clinical Observation","CLINICAL SIGNS",NA,NA,"NORMAL","NORMAL",NA,NA,NA,NA,NA,NA,NA,NA,33,"2007-07-14T10:05:57",33,NA,NA,NA,NA,NA
"GLP003","CL","107001384",NA,573,NA,NA,"CO","Clinical Observation","CLINICAL SIGNS",NA,NA,"NORMAL","NORMAL",NA,NA,NA,NA,NA,NA,NA,NA,34,"2007-07-15T09:48:33",34,NA,NA,NA,NA,NA
"GLP003","CL","107001384",NA,574,NA,NA,"CO","Clinical Observation","CLINICAL SIGNS",NA,NA,"NORMAL","NORMAL",NA,NA,NA,NA,NA,NA,NA,NA,35,"2007-07-16T09:56:48",35,NA,NA,NA,NA,NA
"GLP003","CL","107001384",NA,575,NA,NA,"CO","Clinical Observation","CLINICAL SIGNS",NA,NA,"NORMAL","NORMAL",NA,NA,NA,NA,NA,NA,NA,NA,36,"2007-07-17T10:04:33",36,NA,NA,NA,NA,NA
"GLP003","CL","107001384",NA,576,NA,NA,"CO","Clinical Observation","CLINICAL SIGNS",NA,NA,"NORMAL","NORMAL",NA,NA,NA,NA,NA,NA,NA,NA,37,"2007-07-18T09:56:27",37,NA,NA,NA,NA,NA
"GLP003","CL","107001384",NA,577,NA,NA,"CO","Clinical Observation","CLINICAL SIGNS",NA,NA,"NORMAL","NORMAL",NA,NA,NA,NA,NA,NA,NA,NA,38,"2007-07-19T08:51:17",38,NA,NA,NA,NA,NA
"GLP003","CL","107001384",NA,578,NA,NA,"CO","Clinical Observation","CLINICAL SIGNS",NA,NA,"NORMAL","NORMAL",NA,NA,NA,NA,NA,NA,NA,NA,39,"2007-07-20T07:28:43",39,NA,NA,NA,NA,NA
"GLP003","CL","107001384",NA,579,NA,NA,"CO","Clinical Observation","CLINICAL SIGNS",NA,NA,"NORMAL","NORMAL",NA,NA,NA,NA,NA,NA,NA,NA,40,"2007-07-21T14:24:57",40,NA,NA,NA,NA,NA
"GLP003","CL","107001384",NA,580,NA,NA,"CO","Clinical Observation","CLINICAL SIGNS",NA,NA,"NORMAL","NORMAL",NA,NA,NA,NA,NA,NA,NA,NA,41,"2007-07-22T14:10:41",41,NA,NA,NA,NA,NA
"GLP003","CL","107001384",NA,581,NA,NA,"CO","Clinical Observation","CLINICAL SIGNS",NA,NA,"NORMAL","NORMAL",NA,NA,NA,NA,NA,NA,NA,NA,42,"2007-07-23T07:44:19",42,NA,NA,NA,NA,NA
"GLP003","CL","107001384",NA,582,NA,NA,"VOBS","Veterinary Examinations","PHYSICAL EXAM",NA,NA,"Torn nail, Forefoot/hand, right","Torn nail",NA,NA,NA,"Forefoot/hand, right",NA,NA,NA,NA,22,"2007-07-03T09:55:03",22,NA,NA,NA,NA,NA
"GLP003","CL","107001384",NA,583,NA,NA,"VOBS","Veterinary Examinations","PHYSICAL EXAM",NA,NA,"Torn nail, Hindfeet, both","Torn nail",NA,NA,NA,"Hindfeet, both",NA,NA,NA,NA,22,"2007-07-03T09:55:03",22,NA,NA,NA,NA,NA
"GLP003","CL","107001384",NA,584,NA,NA,"CO","Clinical Observation","CLINICAL SIGNS",NA,NA,"Feces, unformed","Feces, unformed",NA,NA,NA,NA,NA,NA,NA,NA,3,"2007-06-14T06:09:00",3,NA,NA,NA,NA,NA
"GLP003","CL","107001384",NA,585,NA,NA,"CO","Clinical Observation","CLINICAL SIGNS",NA,NA,"Feces, unformed","Feces, unformed",NA,NA,NA,NA,NA,NA,NA,NA,4,"2007-06-15T07:09:00",4,NA,NA,NA,NA,NA
"GLP003","CL","107001384",NA,586,NA,NA,"CO","Clinical Observation","CLINICAL SIGNS",NA,NA,"Chromorhinorrhea","Chromorhinorrhea",NA,NA,NA,NA,NA,NA,NA,NA,25,"2007-07-06T11:30:22",25,NA,NA,NA,NA,NA
"GLP003","CL","107001384",NA,587,NA,NA,"CO","Clinical Observation","CLINICAL SIGNS",NA,NA,"Feces, unformed","Feces, unformed",NA,NA,NA,NA,NA,NA,NA,NA,28,"2007-07-09T05:58:00",28,NA,NA,NA,NA,NA
"GLP003","CL","107001384",NA,588,NA,NA,"CO","Clinical Observation","CLINICAL SIGNS",NA,NA,"Feces, unformed","Feces, unformed",NA,NA,NA,NA,NA,NA,NA,NA,29,"2007-07-10T06:05:00",29,NA,NA,NA,NA,NA
"GLP003","CL","107001384",NA,589,NA,NA,"CO","Clinical Observation","CLINICAL SIGNS",NA,NA,"Feces, unformed","Feces, unformed",NA,NA,NA,NA,NA,NA,NA,NA,30,"2007-07-11T06:01:00",30,NA,NA,NA,NA,NA
"GLP003","CL","107001384",NA,590,NA,NA,"CO","Clinical Observation","CLINICAL SIGNS",NA,NA,"Postdose Necropsy","Postdose Necropsy",NA,NA,NA,NA,NA,NA,NA,NA,43,"2007-07-24T09:55:21",43,NA,NA,NA,NA,NA
"GLP003","CL","107001384",NA,591,NA,NA,"EOBS","Ophthalmologic Examinations","OPHTHALMOLOGY",NA,NA,"NORMAL","NORMAL",NA,NA,NA,NA,NA,NA,NA,NA,-5,"2007-06-07T15:34:11",-5,NA,NA,NA,NA,NA
"GLP003","CL","107001384",NA,592,NA,NA,"EOBS","Ophthalmologic Examinations","OPHTHALMOLOGY",NA,NA,"NORMAL","NORMAL",NA,NA,NA,NA,NA,NA,NA,NA,22,"2007-07-03T09:37:59",22,NA,NA,NA,NA,NA
"GLP003","CL","107001384",NA,593,NA,NA,"VOBS","Veterinary Examinations","PHYSICAL EXAM",NA,NA,"NORMAL","NORMAL",NA,NA,NA,NA,NA,NA,NA,NA,-5,"2007-06-07T08:15:15",-5,NA,NA,NA,NA,NA
"GLP003","CL","107001423",NA,594,NA,NA,"CO","Clinical Observation","CLINICAL SIGNS",NA,NA,"NORMAL","NORMAL",NA,NA,NA,NA,NA,NA,NA,NA,1,"2007-06-12T12:31:36",1,NA,NA,NA,NA,NA
"GLP003","CL","107001423",NA,595,NA,NA,"CO","Clinical Observation","CLINICAL SIGNS",NA,NA,"NORMAL","NORMAL",NA,NA,NA,NA,NA,NA,NA,NA,2,"2007-06-13T14:48:31",2,NA,NA,NA,NA,NA
"GLP003","CL","107001423",NA,596,NA,NA,"VOBS","Veterinary Examinations","PHYSICAL EXAM",NA,NA,"Alopecia, Forefeet/hands, both","Alopecia",NA,NA,NA,"Forefeet/hands, both",NA,NA,NA,NA,22,"2007-07-03T09:56:02",22,NA,NA,NA,NA,NA
"GLP003","CL","107001423",NA,597,NA,NA,"UVBS","Unscheduled Vet Exams","CLINICAL SIGNS",NA,NA,"Teeth, broken","Teeth, broken",NA,NA,NA,NA,NA,NA,NA,NA,NA,"2007-07-11T08:45:00",30,NA,NA,NA,NA,NA
"GLP003","CL","107001423",NA,598,NA,NA,"CO","Clinical Observation","CLINICAL SIGNS",NA,NA,"Feces, unformed","Feces, unformed",NA,NA,NA,NA,NA,NA,NA,NA,2,"2007-06-13T07:05:00",2,NA,NA,NA,NA,NA
"GLP003","CL","107001423",NA,599,NA,NA,"CO","Clinical Observation","CLINICAL SIGNS",NA,NA,"Haircoat, thin, Forelimbs, both","Haircoat, thin",NA,NA,NA,"Forelimbs, both",NA,NA,NA,NA,3,"2007-06-14T15:25:34",3,NA,NA,NA,NA,NA
"GLP003","CL","107001423",NA,600,NA,NA,"CO","Clinical Observation","CLINICAL SIGNS",NA,NA,"Haircoat, thin, Forelimbs, both","Haircoat, thin",NA,NA,NA,"Forelimbs, both",NA,NA,NA,NA,4,"2007-06-15T11:14:40",4,NA,NA,NA,NA,NA
"GLP003","CL","107001423",NA,601,NA,NA,"CO","Clinical Observation","CLINICAL SIGNS",NA,NA,"Haircoat, thin, Forelimbs, both","Haircoat, thin",NA,NA,NA,"Forelimbs, both",NA,NA,NA,NA,5,"2007-06-16T15:20:16",5,NA,NA,NA,NA,NA
"GLP003","CL","107001423",NA,602,NA,NA,"CO","Clinical Observation","CLINICAL SIGNS",NA,NA,"Haircoat, thin, Forelimbs, both","Haircoat, thin",NA,NA,NA,"Forelimbs, both",NA,NA,NA,NA,6,"2007-06-17T10:35:24",6,NA,NA,NA,NA,NA
"GLP003","CL","107001423",NA,603,NA,NA,"CO","Clinical Observation","CLINICAL SIGNS",NA,NA,"Haircoat, thin, Forelimbs, both","Haircoat, thin",NA,NA,NA,"Forelimbs, both",NA,NA,NA,NA,7,"2007-06-18T09:57:28",7,NA,NA,NA,NA,NA
"GLP003","CL","107001423",NA,604,NA,NA,"CO","Clinical Observation","CLINICAL SIGNS",NA,NA,"Haircoat, thin, Forelimbs, both","Haircoat, thin",NA,NA,NA,"Forelimbs, both",NA,NA,NA,NA,8,"2007-06-19T15:06:03",8,NA,NA,NA,NA,NA
"GLP003","CL","107001423",NA,605,NA,NA,"CO","Clinical Observation","CLINICAL SIGNS",NA,NA,"Haircoat, thin, Forelimbs, both","Haircoat, thin",NA,NA,NA,"Forelimbs, both",NA,NA,NA,NA,9,"2007-06-20T11:19:37",9,NA,NA,NA,NA,NA
"GLP003","CL","107001423",NA,606,NA,NA,"CO","Clinical Observation","CLINICAL SIGNS",NA,NA,"Alopecia, Forelimbs, both","Alopecia",NA,NA,NA,"Forelimbs, both",NA,NA,NA,NA,10,"2007-06-21T10:37:29",10,NA,NA,NA,NA,NA
"GLP003","CL","107001423",NA,607,NA,NA,"CO","Clinical Observation","CLINICAL SIGNS",NA,NA,"Alopecia, Forelimbs, both","Alopecia",NA,NA,NA,"Forelimbs, both",NA,NA,NA,NA,11,"2007-06-22T11:11:07",11,NA,NA,NA,NA,NA
"GLP003","CL","107001423",NA,608,NA,NA,"CO","Clinical Observation","CLINICAL SIGNS",NA,NA,"Alopecia, Forelimbs, both","Alopecia",NA,NA,NA,"Forelimbs, both",NA,NA,NA,NA,12,"2007-06-23T15:07:14",12,NA,NA,NA,NA,NA
"GLP003","CL","107001423",NA,609,NA,NA,"CO","Clinical Observation","CLINICAL SIGNS",NA,NA,"Alopecia, Forelimbs, both","Alopecia",NA,NA,NA,"Forelimbs, both",NA,NA,NA,NA,13,"2007-06-24T14:14:42",13,NA,NA,NA,NA,NA
"GLP003","CL","107001423",NA,610,NA,NA,"CO","Clinical Observation","CLINICAL SIGNS",NA,NA,"Alopecia, Forelimbs, both","Alopecia",NA,NA,NA,"Forelimbs, both",NA,NA,NA,NA,14,"2007-06-25T14:38:39",14,NA,NA,NA,NA,NA
"GLP003","CL","107001423",NA,611,NA,NA,"CO","Clinical Observation","CLINICAL SIGNS",NA,NA,"Alopecia, Forelimbs, both","Alopecia",NA,NA,NA,"Forelimbs, both",NA,NA,NA,NA,15,"2007-06-26T13:07:52",15,NA,NA,NA,NA,NA
"GLP003","CL","107001423",NA,612,NA,NA,"CO","Clinical Observation","CLINICAL SIGNS",NA,NA,"Alopecia, Forelimbs, both","Alopecia",NA,NA,NA,"Forelimbs, both",NA,NA,NA,NA,16,"2007-06-27T11:25:15",16,NA,NA,NA,NA,NA
"GLP003","CL","107001423",NA,613,NA,NA,"CO","Clinical Observation","CLINICAL SIGNS",NA,NA,"Alopecia, Forelimbs, both","Alopecia",NA,NA,NA,"Forelimbs, both",NA,NA,NA,NA,17,"2007-06-28T13:54:24",17,NA,NA,NA,NA,NA
"GLP003","CL","107001423",NA,614,NA,NA,"CO","Clinical Observation","CLINICAL SIGNS",NA,NA,"Alopecia, Forelimbs, both","Alopecia",NA,NA,NA,"Forelimbs, both",NA,NA,NA,NA,18,"2007-06-29T13:15:53",18,NA,NA,NA,NA,NA
"GLP003","CL","107001423",NA,615,NA,NA,"CO","Clinical Observation","CLINICAL SIGNS",NA,NA,"Alopecia, Forelimbs, both","Alopecia",NA,NA,NA,"Forelimbs, both",NA,NA,NA,NA,19,"2007-06-30T13:33:31",19,NA,NA,NA,NA,NA
"GLP003","CL","107001423",NA,616,NA,NA,"CO","Clinical Observation","CLINICAL SIGNS",NA,NA,"Alopecia, Forelimbs, both","Alopecia",NA,NA,NA,"Forelimbs, both",NA,NA,NA,NA,20,"2007-07-01T11:26:08",20,NA,NA,NA,NA,NA
"GLP003","CL","107001423",NA,617,NA,NA,"CO","Clinical Observation","CLINICAL SIGNS",NA,NA,"Alopecia, Forelimbs, both","Alopecia",NA,NA,NA,"Forelimbs, both",NA,NA,NA,NA,21,"2007-07-02T12:34:10",21,NA,NA,NA,NA,NA
"GLP003","CL","107001423",NA,618,NA,NA,"CO","Clinical Observation","CLINICAL SIGNS",NA,NA,"Alopecia, Forelimbs, both","Alopecia",NA,NA,NA,"Forelimbs, both",NA,NA,NA,NA,22,"2007-07-03T08:02:19",22,NA,NA,NA,NA,NA
"GLP003","CL","107001423",NA,619,NA,NA,"CO","Clinical Observation","CLINICAL SIGNS",NA,NA,"Alopecia, Forelimbs, both","Alopecia",NA,NA,NA,"Forelimbs, both",NA,NA,NA,NA,23,"2007-07-04T12:56:52",23,NA,NA,NA,NA,NA
"GLP003","CL","107001423",NA,620,NA,NA,"CO","Clinical Observation","CLINICAL SIGNS",NA,NA,"Alopecia, Forelimbs, both","Alopecia",NA,NA,NA,"Forelimbs, both",NA,NA,NA,NA,24,"2007-07-05T14:26:04",24,NA,NA,NA,NA,NA
"GLP003","CL","107001423",NA,621,NA,NA,"CO","Clinical Observation","CLINICAL SIGNS",NA,NA,"Alopecia, Forelimbs, both","Alopecia",NA,NA,NA,"Forelimbs, both",NA,NA,NA,NA,25,"2007-07-06T11:30:26",25,NA,NA,NA,NA,NA
"GLP003","CL","107001423",NA,622,NA,NA,"CO","Clinical Observation","CLINICAL SIGNS",NA,NA,"Alopecia, Forelimbs, both","Alopecia",NA,NA,NA,"Forelimbs, both",NA,NA,NA,NA,26,"2007-07-07T12:26:07",26,NA,NA,NA,NA,NA
"GLP003","CL","107001423",NA,623,NA,NA,"CO","Clinical Observation","CLINICAL SIGNS",NA,NA,"Alopecia, Forelimbs, both","Alopecia",NA,NA,NA,"Forelimbs, both",NA,NA,NA,NA,27,"2007-07-08T12:55:18",27,NA,NA,NA,NA,NA
"GLP003","CL","107001423",NA,624,NA,NA,"CO","Clinical Observation","CLINICAL SIGNS",NA,NA,"Alopecia, Forelimbs, both","Alopecia",NA,NA,NA,"Forelimbs, both",NA,NA,NA,NA,28,"2007-07-09T12:06:23",28,NA,NA,NA,NA,NA
"GLP003","CL","107001423",NA,625,NA,NA,"CO","Clinical Observation","CLINICAL SIGNS",NA,NA,"Haircoat, abnormal, Muzzle","Haircoat, abnormal",NA,NA,NA,"Muzzle",NA,NA,NA,NA,29,"2007-07-10T12:06:10",29,NA,NA,NA,NA,NA
"GLP003","CL","107001423",NA,626,NA,NA,"CO","Clinical Observation","CLINICAL SIGNS",NA,NA,"Haircoat, rough","Haircoat, rough",NA,NA,NA,NA,NA,NA,NA,NA,29,"2007-07-10T12:06:10",29,NA,NA,NA,NA,NA
"GLP003","CL","107001423",NA,627,NA,NA,"CO","Clinical Observation","CLINICAL SIGNS",NA,NA,"Alopecia, Forelimbs, both","Alopecia",NA,NA,NA,"Forelimbs, both",NA,NA,NA,NA,29,"2007-07-10T12:06:10",29,NA,NA,NA,NA,NA
"GLP003","CL","107001423",NA,628,NA,NA,"CO","Clinical Observation","CLINICAL SIGNS",NA,NA,"Chromodacryorrhea, Right","Chromodacryorrhea",NA,NA,NA,"Right",NA,NA,NA,NA,29,"2007-07-10T12:06:10",29,NA,NA,NA,NA,NA
"GLP003","CL","107001423",NA,629,NA,NA,"CO","Clinical Observation","CLINICAL SIGNS",NA,NA,"Teeth, broken","Teeth, broken",NA,NA,NA,NA,NA,NA,NA,NA,29,"2007-07-10T12:06:10",29,NA,NA,NA,NA,NA
"GLP003","CL","107001423",NA,630,NA,NA,"CO","Clinical Observation","CLINICAL SIGNS",NA,NA,"Alopecia, Forelimbs, both","Alopecia",NA,NA,NA,"Forelimbs, both",NA,NA,NA,NA,30,"2007-07-11T10:22:30",30,NA,NA,NA,NA,NA
"GLP003","CL","107001423",NA,631,NA,NA,"CO","Clinical Observation","CLINICAL SIGNS",NA,NA,"Haircoat, rough","Haircoat, rough",NA,NA,NA,NA,NA,NA,NA,NA,30,"2007-07-11T10:22:30",30,NA,NA,NA,NA,NA
"GLP003","CL","107001423",NA,632,NA,NA,"CO","Clinical Observation","CLINICAL SIGNS",NA,NA,"Teeth, broken","Teeth, broken",NA,NA,NA,NA,NA,NA,NA,NA,30,"2007-07-11T10:22:30",30,NA,NA,NA,NA,NA
"GLP003","CL","107001423",NA,633,NA,NA,"CO","Clinical Observation","CLINICAL SIGNS",NA,NA,"Teeth, broken","Teeth, broken",NA,NA,NA,NA,NA,NA,NA,NA,31,"2007-07-12T07:00:44",31,NA,NA,NA,NA,NA
"GLP003","CL","107001423",NA,634,NA,NA,"CO","Clinical Observation","CLINICAL SIGNS",NA,NA,"Alopecia, Forelimbs, both","Alopecia",NA,NA,NA,"Forelimbs, both",NA,NA,NA,NA,31,"2007-07-12T07:00:44",31,NA,NA,NA,NA,NA
"GLP003","CL","107001423",NA,635,NA,NA,"CO","Clinical Observation","CLINICAL SIGNS",NA,NA,"Soiling, Perianal/anus","Soiling",NA,NA,NA,"Perianal/anus",NA,NA,NA,NA,31,"2007-07-12T07:00:44",31,NA,NA,NA,NA,NA
"GLP003","CL","107001423",NA,636,NA,NA,"CO","Clinical Observation","CLINICAL SIGNS",NA,NA,"Alopecia, Forelimbs, both","Alopecia",NA,NA,NA,"Forelimbs, both",NA,NA,NA,NA,32,"2007-07-13T07:13:08",32,NA,NA,NA,NA,NA
"GLP003","CL","107001423",NA,637,NA,NA,"CO","Clinical Observation","CLINICAL SIGNS",NA,NA,"Soiling, Perianal/anus","Soiling",NA,NA,NA,"Perianal/anus",NA,NA,NA,NA,32,"2007-07-13T07:13:08",32,NA,NA,NA,NA,NA
"GLP003","CL","107001423",NA,638,NA,NA,"CO","Clinical Observation","CLINICAL SIGNS",NA,NA,"Teeth, broken","Teeth, broken",NA,NA,NA,NA,NA,NA,NA,NA,32,"2007-07-13T07:13:08",32,NA,NA,NA,NA,NA
"GLP003","CL","107001423",NA,639,NA,NA,"CO","Clinical Observation","CLINICAL SIGNS",NA,NA,"Alopecia, Forelimbs, both","Alopecia",NA,NA,NA,"Forelimbs, both",NA,NA,NA,NA,33,"2007-07-14T10:06:09",33,NA,NA,NA,NA,NA
"GLP003","CL","107001423",NA,640,NA,NA,"CO","Clinical Observation","CLINICAL SIGNS",NA,NA,"Teeth, broken","Teeth, broken",NA,NA,NA,NA,NA,NA,NA,NA,33,"2007-07-14T10:06:09",33,NA,NA,NA,NA,NA
"GLP003","CL","107001423",NA,641,NA,NA,"CO","Clinical Observation","CLINICAL SIGNS",NA,NA,"Teeth, broken","Teeth, broken",NA,NA,NA,NA,NA,NA,NA,NA,34,"2007-07-15T09:48:40",34,NA,NA,NA,NA,NA
"GLP003","CL","107001423",NA,642,NA,NA,"CO","Clinical Observation","CLINICAL SIGNS",NA,NA,"Alopecia, Forelimbs, both","Alopecia",NA,NA,NA,"Forelimbs, both",NA,NA,NA,NA,34,"2007-07-15T09:48:40",34,NA,NA,NA,NA,NA
"GLP003","CL","107001423",NA,643,NA,NA,"CO","Clinical Observation","CLINICAL SIGNS",NA,NA,"Teeth, broken","Teeth, broken",NA,NA,NA,NA,NA,NA,NA,NA,35,"2007-07-16T09:56:55",35,NA,NA,NA,NA,NA
"GLP003","CL","107001423",NA,644,NA,NA,"CO","Clinical Observation","CLINICAL SIGNS",NA,NA,"Alopecia, Forelimbs, both","Alopecia",NA,NA,NA,"Forelimbs, both",NA,NA,NA,NA,35,"2007-07-16T09:56:55",35,NA,NA,NA,NA,NA
"GLP003","CL","107001423",NA,645,NA,NA,"CO","Clinical Observation","CLINICAL SIGNS",NA,NA,"Teeth, broken","Teeth, broken",NA,NA,NA,NA,NA,NA,NA,NA,36,"2007-07-17T10:04:40",36,NA,NA,NA,NA,NA
"GLP003","CL","107001423",NA,646,NA,NA,"CO","Clinical Observation","CLINICAL SIGNS",NA,NA,"Alopecia, Forelimbs, both","Alopecia",NA,NA,NA,"Forelimbs, both",NA,NA,NA,NA,36,"2007-07-17T10:04:40",36,NA,NA,NA,NA,NA
"GLP003","CL","107001423",NA,647,NA,NA,"CO","Clinical Observation","CLINICAL SIGNS",NA,NA,"Alopecia, Forelimbs, both","Alopecia",NA,NA,NA,"Forelimbs, both",NA,NA,NA,NA,37,"2007-07-18T09:56:33",37,NA,NA,NA,NA,NA
"GLP003","CL","107001423",NA,648,NA,NA,"CO","Clinical Observation","CLINICAL SIGNS",NA,NA,"Teeth, broken","Teeth, broken",NA,NA,NA,NA,NA,NA,NA,NA,37,"2007-07-18T09:56:33",37,NA,NA,NA,NA,NA
"GLP003","CL","107001423",NA,649,NA,NA,"CO","Clinical Observation","CLINICAL SIGNS",NA,NA,"Teeth, broken","Teeth, broken",NA,NA,NA,NA,NA,NA,NA,NA,38,"2007-07-19T08:51:24",38,NA,NA,NA,NA,NA
"GLP003","CL","107001423",NA,650,NA,NA,"CO","Clinical Observation","CLINICAL SIGNS",NA,NA,"Alopecia, Forelimbs, both","Alopecia",NA,NA,NA,"Forelimbs, both",NA,NA,NA,NA,38,"2007-07-19T08:51:24",38,NA,NA,NA,NA,NA
"GLP003","CL","107001423",NA,651,NA,NA,"CO","Clinical Observation","CLINICAL SIGNS",NA,NA,"Alopecia, Forelimbs, both","Alopecia",NA,NA,NA,"Forelimbs, both",NA,NA,NA,NA,39,"2007-07-20T07:28:49",39,NA,NA,NA,NA,NA
"GLP003","CL","107001423",NA,652,NA,NA,"CO","Clinical Observation","CLINICAL SIGNS",NA,NA,"Teeth, broken","Teeth, broken",NA,NA,NA,NA,NA,NA,NA,NA,39,"2007-07-20T07:28:49",39,NA,NA,NA,NA,NA
"GLP003","CL","107001423",NA,653,NA,NA,"CO","Clinical Observation","CLINICAL SIGNS",NA,NA,"Teeth, broken","Teeth, broken",NA,NA,NA,NA,NA,NA,NA,NA,40,"2007-07-21T14:25:08",40,NA,NA,NA,NA,NA
"GLP003","CL","107001423",NA,654,NA,NA,"CO","Clinical Observation","CLINICAL SIGNS",NA,NA,"Alopecia, Forelimbs, both","Alopecia",NA,NA,NA,"Forelimbs, both",NA,NA,NA,NA,40,"2007-07-21T14:25:08",40,NA,NA,NA,NA,NA
"GLP003","CL","107001423",NA,655,NA,NA,"CO","Clinical Observation","CLINICAL SIGNS",NA,NA,"Teeth, broken","Teeth, broken",NA,NA,NA,NA,NA,NA,NA,NA,41,"2007-07-22T14:11:04",41,NA,NA,NA,NA,NA
"GLP003","CL","107001423",NA,656,NA,NA,"CO","Clinical Observation","CLINICAL SIGNS",NA,NA,"Alopecia, Forelimbs, both","Alopecia",NA,NA,NA,"Forelimbs, both",NA,NA,NA,NA,41,"2007-07-22T14:11:04",41,NA,NA,NA,NA,NA
"GLP003","CL","107001423",NA,657,NA,NA,"CO","Clinical Observation","CLINICAL SIGNS",NA,NA,"Teeth, broken","Teeth, broken",NA,NA,NA,NA,NA,NA,NA,NA,42,"2007-07-23T07:44:44",42,NA,NA,NA,NA,NA
"GLP003","CL","107001423",NA,658,NA,NA,"CO","Clinical Observation","CLINICAL SIGNS",NA,NA,"Alopecia, Forelimbs, both","Alopecia",NA,NA,NA,"Forelimbs, both",NA,NA,NA,NA,42,"2007-07-23T07:44:44",42,NA,NA,NA,NA,NA
"GLP003","CL","107001423",NA,659,NA,NA,"CO","Clinical Observation","CLINICAL SIGNS",NA,NA,"Postdose Necropsy","Postdose Necropsy",NA,NA,NA,NA,NA,NA,NA,NA,43,"2007-07-24T09:55:34",43,NA,NA,NA,NA,NA
"GLP003","CL","107001423",NA,660,NA,NA,"EOBS","Ophthalmologic Examinations","OPHTHALMOLOGY",NA,NA,"NORMAL","NORMAL",NA,NA,NA,NA,NA,NA,NA,NA,-5,"2007-06-07T15:34:11",-5,NA,NA,NA,NA,NA
"GLP003","CL","107001423",NA,661,NA,NA,"EOBS","Ophthalmologic Examinations","OPHTHALMOLOGY",NA,NA,"NORMAL","NORMAL",NA,NA,NA,NA,NA,NA,NA,NA,22,"2007-07-03T09:37:59",22,NA,NA,NA,NA,NA
"GLP003","CL","107001423",NA,662,NA,NA,"VOBS","Veterinary Examinations","PHYSICAL EXAM",NA,NA,"NORMAL","NORMAL",NA,NA,NA,NA,NA,NA,NA,NA,-5,"2007-06-07T08:15:15",-5,NA,NA,NA,NA,NA
"GLP003","CL","107001529",NA,663,NA,NA,"CO","Clinical Observation","CLINICAL SIGNS",NA,NA,"NORMAL","NORMAL",NA,NA,NA,NA,NA,NA,NA,NA,1,"2007-06-14T15:44:39",1,NA,NA,NA,NA,NA
"GLP003","CL","107001529",NA,664,NA,NA,"CO","Clinical Observation","CLINICAL SIGNS",NA,NA,"NORMAL","NORMAL",NA,NA,NA,NA,NA,NA,NA,NA,2,"2007-06-15T15:03:02",2,NA,NA,NA,NA,NA
"GLP003","CL","107001529",NA,665,NA,NA,"CO","Clinical Observation","CLINICAL SIGNS",NA,NA,"NORMAL","NORMAL",NA,NA,NA,NA,NA,NA,NA,NA,3,"2007-06-16T15:02:50",3,NA,NA,NA,NA,NA
"GLP003","CL","107001529",NA,666,NA,NA,"CO","Clinical Observation","CLINICAL SIGNS",NA,NA,"NORMAL","NORMAL",NA,NA,NA,NA,NA,NA,NA,NA,4,"2007-06-17T10:51:03",4,NA,NA,NA,NA,NA
"GLP003","CL","107001529",NA,667,NA,NA,"CO","Clinical Observation","CLINICAL SIGNS",NA,NA,"NORMAL","NORMAL",NA,NA,NA,NA,NA,NA,NA,NA,5,"2007-06-18T10:25:28",5,NA,NA,NA,NA,NA
"GLP003","CL","107001529",NA,668,NA,NA,"CO","Clinical Observation","CLINICAL SIGNS",NA,NA,"NORMAL","NORMAL",NA,NA,NA,NA,NA,NA,NA,NA,6,"2007-06-19T15:27:21",6,NA,NA,NA,NA,NA
"GLP003","CL","107001529",NA,669,NA,NA,"CO","Clinical Observation","CLINICAL SIGNS",NA,NA,"NORMAL","NORMAL",NA,NA,NA,NA,NA,NA,NA,NA,7,"2007-06-20T11:42:19",7,NA,NA,NA,NA,NA
"GLP003","CL","107001529",NA,670,NA,NA,"CO","Clinical Observation","CLINICAL SIGNS",NA,NA,"NORMAL","NORMAL",NA,NA,NA,NA,NA,NA,NA,NA,8,"2007-06-21T11:10:17",8,NA,NA,NA,NA,NA
"GLP003","CL","107001529",NA,671,NA,NA,"CO","Clinical Observation","CLINICAL SIGNS",NA,NA,"NORMAL","NORMAL",NA,NA,NA,NA,NA,NA,NA,NA,9,"2007-06-22T11:59:04",9,NA,NA,NA,NA,NA
"GLP003","CL","107001529",NA,672,NA,NA,"CO","Clinical Observation","CLINICAL SIGNS",NA,NA,"NORMAL","NORMAL",NA,NA,NA,NA,NA,NA,NA,NA,10,"2007-06-23T15:46:48",10,NA,NA,NA,NA,NA
"GLP003","CL","107001529",NA,673,NA,NA,"CO","Clinical Observation","CLINICAL SIGNS",NA,NA,"NORMAL","NORMAL",NA,NA,NA,NA,NA,NA,NA,NA,11,"2007-06-24T14:33:36",11,NA,NA,NA,NA,NA
"GLP003","CL","107001529",NA,674,NA,NA,"CO","Clinical Observation","CLINICAL SIGNS",NA,NA,"NORMAL","NORMAL",NA,NA,NA,NA,NA,NA,NA,NA,12,"2007-06-25T14:10:48",12,NA,NA,NA,NA,NA
"GLP003","CL","107001529",NA,675,NA,NA,"CO","Clinical Observation","CLINICAL SIGNS",NA,NA,"NORMAL","NORMAL",NA,NA,NA,NA,NA,NA,NA,NA,13,"2007-06-26T13:10:37",13,NA,NA,NA,NA,NA
"GLP003","CL","107001529",NA,676,NA,NA,"CO","Clinical Observation","CLINICAL SIGNS",NA,NA,"NORMAL","NORMAL",NA,NA,NA,NA,NA,NA,NA,NA,14,"2007-06-27T11:26:18",14,NA,NA,NA,NA,NA
"GLP003","CL","107001529",NA,677,NA,NA,"CO","Clinical Observation","CLINICAL SIGNS",NA,NA,"NORMAL","NORMAL",NA,NA,NA,NA,NA,NA,NA,NA,15,"2007-06-28T13:56:29",15,NA,NA,NA,NA,NA
"GLP003","CL","107001529",NA,678,NA,NA,"CO","Clinical Observation","CLINICAL SIGNS",NA,NA,"NORMAL","NORMAL",NA,NA,NA,NA,NA,NA,NA,NA,16,"2007-06-29T13:45:32",16,NA,NA,NA,NA,NA
"GLP003","CL","107001529",NA,679,NA,NA,"CO","Clinical Observation","CLINICAL SIGNS",NA,NA,"NORMAL","NORMAL",NA,NA,NA,NA,NA,NA,NA,NA,17,"2007-06-30T13:54:09",17,NA,NA,NA,NA,NA
"GLP003","CL","107001529",NA,680,NA,NA,"CO","Clinical Observation","CLINICAL SIGNS",NA,NA,"NORMAL","NORMAL",NA,NA,NA,NA,NA,NA,NA,NA,18,"2007-07-01T11:44:38",18,NA,NA,NA,NA,NA
"GLP003","CL","107001529",NA,681,NA,NA,"CO","Clinical Observation","CLINICAL SIGNS",NA,NA,"NORMAL","NORMAL",NA,NA,NA,NA,NA,NA,NA,NA,19,"2007-07-02T11:59:15",19,NA,NA,NA,NA,NA
"GLP003","CL","107001529",NA,682,NA,NA,"CO","Clinical Observation","CLINICAL SIGNS",NA,NA,"NORMAL","NORMAL",NA,NA,NA,NA,NA,NA,NA,NA,20,"2007-07-03T09:49:27",20,NA,NA,NA,NA,NA
"GLP003","CL","107001529",NA,683,NA,NA,"CO","Clinical Observation","CLINICAL SIGNS",NA,NA,"NORMAL","NORMAL",NA,NA,NA,NA,NA,NA,NA,NA,21,"2007-07-04T13:23:06",21,NA,NA,NA,NA,NA
"GLP003","CL","107001529",NA,684,NA,NA,"CO","Clinical Observation","CLINICAL SIGNS",NA,NA,"NORMAL","NORMAL",NA,NA,NA,NA,NA,NA,NA,NA,23,"2007-07-06T10:59:08",23,NA,NA,NA,NA,NA
"GLP003","CL","107001529",NA,685,NA,NA,"CO","Clinical Observation","CLINICAL SIGNS",NA,NA,"NORMAL","NORMAL",NA,NA,NA,NA,NA,NA,NA,NA,24,"2007-07-07T13:04:55",24,NA,NA,NA,NA,NA
"GLP003","CL","107001529",NA,686,NA,NA,"CO","Clinical Observation","CLINICAL SIGNS",NA,NA,"NORMAL","NORMAL",NA,NA,NA,NA,NA,NA,NA,NA,25,"2007-07-08T13:25:12",25,NA,NA,NA,NA,NA
"GLP003","CL","107001529",NA,687,NA,NA,"CO","Clinical Observation","CLINICAL SIGNS",NA,NA,"NORMAL","NORMAL",NA,NA,NA,NA,NA,NA,NA,NA,26,"2007-07-09T08:48:16",26,NA,NA,NA,NA,NA
"GLP003","CL","107001529",NA,688,NA,NA,"CO","Clinical Observation","CLINICAL SIGNS",NA,NA,"NORMAL","NORMAL",NA,NA,NA,NA,NA,NA,NA,NA,27,"2007-07-10T12:36:31",27,NA,NA,NA,NA,NA
"GLP003","CL","107001529",NA,689,NA,NA,"CO","Clinical Observation","CLINICAL SIGNS",NA,NA,"NORMAL","NORMAL",NA,NA,NA,NA,NA,NA,NA,NA,28,"2007-07-11T12:59:59",28,NA,NA,NA,NA,NA
"GLP003","CL","107001529",NA,690,NA,NA,"VOBS","Veterinary Examinations","PHYSICAL EXAM",NA,NA,"Discoloration, Head, Red","Discoloration",NA,NA,NA,"Head",NA,NA,NA,NA,22,"2007-07-05T11:16:34",22,NA,NA,NA,NA,NA
"GLP003","CL","107001529",NA,691,NA,NA,"VOBS","Veterinary Examinations","PHYSICAL EXAM",NA,NA,"Haircoat, abnormal, Head","Haircoat, abnormal",NA,NA,NA,"Head",NA,NA,NA,NA,22,"2007-07-05T11:16:34",22,NA,NA,NA,NA,NA
"GLP003","CL","107001529",NA,692,NA,NA,"CO","Clinical Observation","CLINICAL SIGNS",NA,NA,"Feces, unformed","Feces, unformed",NA,NA,NA,NA,NA,NA,NA,NA,2,"2007-06-15T07:09:00",2,NA,NA,NA,NA,NA
"GLP003","CL","107001529",NA,693,NA,NA,"CO","Clinical Observation","CLINICAL SIGNS",NA,NA,"Feces, unformed","Feces, unformed",NA,NA,NA,NA,NA,NA,NA,NA,19,"2007-07-02T07:11:00",19,NA,NA,NA,NA,NA
"GLP003","CL","107001529",NA,694,NA,NA,"CO","Clinical Observation","CLINICAL SIGNS",NA,NA,"Haircoat, abnormal, Head","Haircoat, abnormal",NA,NA,NA,"Head",NA,NA,NA,NA,22,"2007-07-05T13:55:18",22,NA,NA,NA,NA,NA
"GLP003","CL","107001529",NA,695,NA,NA,"CO","Clinical Observation","CLINICAL SIGNS",NA,NA,"Feces, unformed","Feces, unformed",NA,NA,NA,NA,NA,NA,NA,NA,27,"2007-07-10T06:12:00",27,NA,NA,NA,NA,NA
"GLP003","CL","107001529",NA,696,NA,NA,"CO","Clinical Observation","CLINICAL SIGNS",NA,NA,"Feces, unformed","Feces, unformed",NA,NA,NA,NA,NA,NA,NA,NA,29,"2007-07-12T06:20:00",29,NA,NA,NA,NA,NA
"GLP003","CL","107001529",NA,697,NA,NA,"CO","Clinical Observation","CLINICAL SIGNS",NA,NA,"End-of-Dose Necropsy","End-of-Dose Necropsy",NA,NA,NA,NA,NA,NA,NA,NA,29,"2007-07-12T10:59:20",29,NA,NA,NA,NA,NA
"GLP003","CL","107001529",NA,698,NA,NA,"EOBS","Ophthalmologic Examinations","OPHTHALMOLOGY",NA,NA,"NORMAL","NORMAL",NA,NA,NA,NA,NA,NA,NA,NA,-7,"2007-06-07T15:34:11",-7,NA,NA,NA,NA,NA
"GLP003","CL","107001529",NA,699,NA,NA,"EOBS","Ophthalmologic Examinations","OPHTHALMOLOGY",NA,NA,"NORMAL","NORMAL",NA,NA,NA,NA,NA,NA,NA,NA,22,"2007-07-05T11:07:10",22,NA,NA,NA,NA,NA
"GLP003","CL","107001529",NA,700,NA,NA,"VOBS","Veterinary Examinations","PHYSICAL EXAM",NA,NA,"NORMAL","NORMAL",NA,NA,NA,NA,NA,NA,NA,NA,-7,"2007-06-07T08:15:15",-7,NA,NA,NA,NA,NA
"GLP003","CL","107001528",NA,701,NA,NA,"CO","Clinical Observation","CLINICAL SIGNS",NA,NA,"NORMAL","NORMAL",NA,NA,NA,NA,NA,NA,NA,NA,1,"2007-06-14T15:44:40",1,NA,NA,NA,NA,NA
"GLP003","CL","107001528",NA,702,NA,NA,"CO","Clinical Observation","CLINICAL SIGNS",NA,NA,"NORMAL","NORMAL",NA,NA,NA,NA,NA,NA,NA,NA,2,"2007-06-15T15:03:03",2,NA,NA,NA,NA,NA
"GLP003","CL","107001528",NA,703,NA,NA,"CO","Clinical Observation","CLINICAL SIGNS",NA,NA,"NORMAL","NORMAL",NA,NA,NA,NA,NA,NA,NA,NA,3,"2007-06-16T15:02:52",3,NA,NA,NA,NA,NA
"GLP003","CL","107001528",NA,704,NA,NA,"CO","Clinical Observation","CLINICAL SIGNS",NA,NA,"NORMAL","NORMAL",NA,NA,NA,NA,NA,NA,NA,NA,4,"2007-06-17T10:51:04",4,NA,NA,NA,NA,NA
"GLP003","CL","107001528",NA,705,NA,NA,"CO","Clinical Observation","CLINICAL SIGNS",NA,NA,"NORMAL","NORMAL",NA,NA,NA,NA,NA,NA,NA,NA,5,"2007-06-18T10:25:29",5,NA,NA,NA,NA,NA
"GLP003","CL","107001528",NA,706,NA,NA,"CO","Clinical Observation","CLINICAL SIGNS",NA,NA,"NORMAL","NORMAL",NA,NA,NA,NA,NA,NA,NA,NA,6,"2007-06-19T15:27:23",6,NA,NA,NA,NA,NA
"GLP003","CL","107001528",NA,707,NA,NA,"CO","Clinical Observation","CLINICAL SIGNS",NA,NA,"NORMAL","NORMAL",NA,NA,NA,NA,NA,NA,NA,NA,7,"2007-06-20T11:42:21",7,NA,NA,NA,NA,NA
"GLP003","CL","107001528",NA,708,NA,NA,"CO","Clinical Observation","CLINICAL SIGNS",NA,NA,"NORMAL","NORMAL",NA,NA,NA,NA,NA,NA,NA,NA,8,"2007-06-21T11:10:19",8,NA,NA,NA,NA,NA
"GLP003","CL","107001528",NA,709,NA,NA,"CO","Clinical Observation","CLINICAL SIGNS",NA,NA,"NORMAL","NORMAL",NA,NA,NA,NA,NA,NA,NA,NA,9,"2007-06-22T11:59:06",9,NA,NA,NA,NA,NA
"GLP003","CL","107001528",NA,710,NA,NA,"CO","Clinical Observation","CLINICAL SIGNS",NA,NA,"NORMAL","NORMAL",NA,NA,NA,NA,NA,NA,NA,NA,10,"2007-06-23T15:46:51",10,NA,NA,NA,NA,NA
"GLP003","CL","107001528",NA,711,NA,NA,"CO","Clinical Observation","CLINICAL SIGNS",NA,NA,"NORMAL","NORMAL",NA,NA,NA,NA,NA,NA,NA,NA,11,"2007-06-24T14:33:37",11,NA,NA,NA,NA,NA
"GLP003","CL","107001528",NA,712,NA,NA,"CO","Clinical Observation","CLINICAL SIGNS",NA,NA,"NORMAL","NORMAL",NA,NA,NA,NA,NA,NA,NA,NA,12,"2007-06-25T14:10:50",12,NA,NA,NA,NA,NA
"GLP003","CL","107001528",NA,713,NA,NA,"CO","Clinical Observation","CLINICAL SIGNS",NA,NA,"NORMAL","NORMAL",NA,NA,NA,NA,NA,NA,NA,NA,13,"2007-06-26T13:10:38",13,NA,NA,NA,NA,NA
"GLP003","CL","107001528",NA,714,NA,NA,"CO","Clinical Observation","CLINICAL SIGNS",NA,NA,"NORMAL","NORMAL",NA,NA,NA,NA,NA,NA,NA,NA,14,"2007-06-27T11:26:20",14,NA,NA,NA,NA,NA
"GLP003","CL","107001528",NA,715,NA,NA,"CO","Clinical Observation","CLINICAL SIGNS",NA,NA,"NORMAL","NORMAL",NA,NA,NA,NA,NA,NA,NA,NA,16,"2007-06-29T13:46:31",16,NA,NA,NA,NA,NA
"GLP003","CL","107001528",NA,716,NA,NA,"CO","Clinical Observation","CLINICAL SIGNS",NA,NA,"NORMAL","NORMAL",NA,NA,NA,NA,NA,NA,NA,NA,17,"2007-06-30T13:54:10",17,NA,NA,NA,NA,NA
"GLP003","CL","107001528",NA,717,NA,NA,"CO","Clinical Observation","CLINICAL SIGNS",NA,NA,"NORMAL","NORMAL",NA,NA,NA,NA,NA,NA,NA,NA,18,"2007-07-01T11:44:39",18,NA,NA,NA,NA,NA
"GLP003","CL","107001528",NA,718,NA,NA,"CO","Clinical Observation","CLINICAL SIGNS",NA,NA,"NORMAL","NORMAL",NA,NA,NA,NA,NA,NA,NA,NA,19,"2007-07-02T11:59:16",19,NA,NA,NA,NA,NA
"GLP003","CL","107001528",NA,719,NA,NA,"CO","Clinical Observation","CLINICAL SIGNS",NA,NA,"NORMAL","NORMAL",NA,NA,NA,NA,NA,NA,NA,NA,20,"2007-07-03T09:49:33",20,NA,NA,NA,NA,NA
"GLP003","CL","107001528",NA,720,NA,NA,"CO","Clinical Observation","CLINICAL SIGNS",NA,NA,"NORMAL","NORMAL",NA,NA,NA,NA,NA,NA,NA,NA,21,"2007-07-04T13:23:23",21,NA,NA,NA,NA,NA
"GLP003","CL","107001528",NA,721,NA,NA,"CO","Clinical Observation","CLINICAL SIGNS",NA,NA,"NORMAL","NORMAL",NA,NA,NA,NA,NA,NA,NA,NA,22,"2007-07-05T13:55:21",22,NA,NA,NA,NA,NA
"GLP003","CL","107001528",NA,722,NA,NA,"CO","Clinical Observation","CLINICAL SIGNS",NA,NA,"NORMAL","NORMAL",NA,NA,NA,NA,NA,NA,NA,NA,23,"2007-07-06T10:59:10",23,NA,NA,NA,NA,NA
"GLP003","CL","107001528",NA,723,NA,NA,"CO","Clinical Observation","CLINICAL SIGNS",NA,NA,"NORMAL","NORMAL",NA,NA,NA,NA,NA,NA,NA,NA,24,"2007-07-07T13:04:57",24,NA,NA,NA,NA,NA
"GLP003","CL","107001528",NA,724,NA,NA,"CO","Clinical Observation","CLINICAL SIGNS",NA,NA,"NORMAL","NORMAL",NA,NA,NA,NA,NA,NA,NA,NA,25,"2007-07-08T13:25:14",25,NA,NA,NA,NA,NA
"GLP003","CL","107001528",NA,725,NA,NA,"CO","Clinical Observation","CLINICAL SIGNS",NA,NA,"NORMAL","NORMAL",NA,NA,NA,NA,NA,NA,NA,NA,26,"2007-07-09T08:48:17",26,NA,NA,NA,NA,NA
"GLP003","CL","107001528",NA,726,NA,NA,"CO","Clinical Observation","CLINICAL SIGNS",NA,NA,"NORMAL","NORMAL",NA,NA,NA,NA,NA,NA,NA,NA,27,"2007-07-10T12:36:32",27,NA,NA,NA,NA,NA
"GLP003","CL","107001528",NA,727,NA,NA,"CO","Clinical Observation","CLINICAL SIGNS",NA,NA,"NORMAL","NORMAL",NA,NA,NA,NA,NA,NA,NA,NA,28,"2007-07-11T13:00:01",28,NA,NA,NA,NA,NA
"GLP003","CL","107001528",NA,728,NA,NA,"CO","Clinical Observation","CLINICAL SIGNS",NA,NA,"Soiling, perigenital","Soiling, perigenital",NA,NA,NA,NA,NA,NA,NA,NA,15,"2007-06-28T13:57:18",15,NA,NA,NA,NA,NA
"GLP003","CL","107001528",NA,729,NA,NA,"CO","Clinical Observation","CLINICAL SIGNS",NA,NA,"Haircoat, abnormal, Perigenital","Haircoat, abnormal",NA,NA,NA,"Perigenital",NA,NA,NA,NA,15,"2007-06-28T13:57:18",15,NA,NA,NA,NA,NA
"GLP003","CL","107001528",NA,730,NA,NA,"CO","Clinical Observation","CLINICAL SIGNS",NA,NA,"Feces, unformed","Feces, unformed",NA,NA,NA,NA,NA,NA,NA,NA,27,"2007-07-10T06:12:00",27,NA,NA,NA,NA,NA
"GLP003","CL","107001528",NA,731,NA,NA,"CO","Clinical Observation","CLINICAL SIGNS",NA,NA,"Feces, unformed","Feces, unformed",NA,NA,NA,NA,NA,NA,NA,NA,28,"2007-07-11T06:00:00",28,NA,NA,NA,NA,NA
"GLP003","CL","107001528",NA,732,NA,NA,"CO","Clinical Observation","CLINICAL SIGNS",NA,NA,"End-of-Dose Necropsy","End-of-Dose Necropsy",NA,NA,NA,NA,NA,NA,NA,NA,29,"2007-07-12T10:59:25",29,NA,NA,NA,NA,NA
"GLP003","CL","107001528",NA,733,NA,NA,"EOBS","Ophthalmologic Examinations","OPHTHALMOLOGY",NA,NA,"NORMAL","NORMAL",NA,NA,NA,NA,NA,NA,NA,NA,-7,"2007-06-07T15:34:11",-7,NA,NA,NA,NA,NA
"GLP003","CL","107001528",NA,734,NA,NA,"EOBS","Ophthalmologic Examinations","OPHTHALMOLOGY",NA,NA,"NORMAL","NORMAL",NA,NA,NA,NA,NA,NA,NA,NA,22,"2007-07-05T11:07:10",22,NA,NA,NA,NA,NA
"GLP003","CL","107001528",NA,735,NA,NA,"VOBS","Veterinary Examinations","PHYSICAL EXAM",NA,NA,"NORMAL","NORMAL",NA,NA,NA,NA,NA,NA,NA,NA,-7,"2007-06-07T08:15:15",-7,NA,NA,NA,NA,NA
"GLP003","CL","107001528",NA,736,NA,NA,"VOBS","Veterinary Examinations","PHYSICAL EXAM",NA,NA,"NORMAL","NORMAL",NA,NA,NA,NA,NA,NA,NA,NA,22,"2007-07-05T11:49:48",22,NA,NA,NA,NA,NA
"GLP003","CL","107001576",NA,737,NA,NA,"CO","Clinical Observation","CLINICAL SIGNS",NA,NA,"NORMAL","NORMAL",NA,NA,NA,NA,NA,NA,NA,NA,1,"2007-06-14T15:44:42",1,NA,NA,NA,NA,NA
"GLP003","CL","107001576",NA,738,NA,NA,"CO","Clinical Observation","CLINICAL SIGNS",NA,NA,"NORMAL","NORMAL",NA,NA,NA,NA,NA,NA,NA,NA,2,"2007-06-15T15:03:05",2,NA,NA,NA,NA,NA
"GLP003","CL","107001576",NA,739,NA,NA,"CO","Clinical Observation","CLINICAL SIGNS",NA,NA,"NORMAL","NORMAL",NA,NA,NA,NA,NA,NA,NA,NA,3,"2007-06-16T15:02:53",3,NA,NA,NA,NA,NA
"GLP003","CL","107001576",NA,740,NA,NA,"CO","Clinical Observation","CLINICAL SIGNS",NA,NA,"NORMAL","NORMAL",NA,NA,NA,NA,NA,NA,NA,NA,4,"2007-06-17T10:51:05",4,NA,NA,NA,NA,NA
"GLP003","CL","107001576",NA,741,NA,NA,"CO","Clinical Observation","CLINICAL SIGNS",NA,NA,"NORMAL","NORMAL",NA,NA,NA,NA,NA,NA,NA,NA,5,"2007-06-18T10:25:31",5,NA,NA,NA,NA,NA
"GLP003","CL","107001576",NA,742,NA,NA,"CO","Clinical Observation","CLINICAL SIGNS",NA,NA,"NORMAL","NORMAL",NA,NA,NA,NA,NA,NA,NA,NA,6,"2007-06-19T15:27:24",6,NA,NA,NA,NA,NA
"GLP003","CL","107001576",NA,743,NA,NA,"CO","Clinical Observation","CLINICAL SIGNS",NA,NA,"NORMAL","NORMAL",NA,NA,NA,NA,NA,NA,NA,NA,7,"2007-06-20T11:42:22",7,NA,NA,NA,NA,NA
"GLP003","CL","107001576",NA,744,NA,NA,"CO","Clinical Observation","CLINICAL SIGNS",NA,NA,"NORMAL","NORMAL",NA,NA,NA,NA,NA,NA,NA,NA,8,"2007-06-21T11:10:21",8,NA,NA,NA,NA,NA
"GLP003","CL","107001576",NA,745,NA,NA,"CO","Clinical Observation","CLINICAL SIGNS",NA,NA,"NORMAL","NORMAL",NA,NA,NA,NA,NA,NA,NA,NA,9,"2007-06-22T11:59:25",9,NA,NA,NA,NA,NA
"GLP003","CL","107001576",NA,746,NA,NA,"CO","Clinical Observation","CLINICAL SIGNS",NA,NA,"NORMAL","NORMAL",NA,NA,NA,NA,NA,NA,NA,NA,10,"2007-06-23T15:47:30",10,NA,NA,NA,NA,NA
"GLP003","CL","107001576",NA,747,NA,NA,"CO","Clinical Observation","CLINICAL SIGNS",NA,NA,"NORMAL","NORMAL",NA,NA,NA,NA,NA,NA,NA,NA,11,"2007-06-24T14:33:38",11,NA,NA,NA,NA,NA
"GLP003","CL","107001576",NA,748,NA,NA,"CO","Clinical Observation","CLINICAL SIGNS",NA,NA,"NORMAL","NORMAL",NA,NA,NA,NA,NA,NA,NA,NA,12,"2007-06-25T14:10:51",12,NA,NA,NA,NA,NA
"GLP003","CL","107001576",NA,749,NA,NA,"CO","Clinical Observation","CLINICAL SIGNS",NA,NA,"NORMAL","NORMAL",NA,NA,NA,NA,NA,NA,NA,NA,13,"2007-06-26T13:10:40",13,NA,NA,NA,NA,NA
"GLP003","CL","107001576",NA,750,NA,NA,"CO","Clinical Observation","CLINICAL SIGNS",NA,NA,"NORMAL","NORMAL",NA,NA,NA,NA,NA,NA,NA,NA,14,"2007-06-27T11:26:21",14,NA,NA,NA,NA,NA
"GLP003","CL","107001576",NA,751,NA,NA,"CO","Clinical Observation","CLINICAL SIGNS",NA,NA,"NORMAL","NORMAL",NA,NA,NA,NA,NA,NA,NA,NA,15,"2007-06-28T13:57:20",15,NA,NA,NA,NA,NA
"GLP003","CL","107001576",NA,752,NA,NA,"CO","Clinical Observation","CLINICAL SIGNS",NA,NA,"NORMAL","NORMAL",NA,NA,NA,NA,NA,NA,NA,NA,16,"2007-06-29T13:46:33",16,NA,NA,NA,NA,NA
"GLP003","CL","107001576",NA,753,NA,NA,"CO","Clinical Observation","CLINICAL SIGNS",NA,NA,"NORMAL","NORMAL",NA,NA,NA,NA,NA,NA,NA,NA,17,"2007-06-30T13:54:11",17,NA,NA,NA,NA,NA
"GLP003","CL","107001576",NA,754,NA,NA,"CO","Clinical Observation","CLINICAL SIGNS",NA,NA,"NORMAL","NORMAL",NA,NA,NA,NA,NA,NA,NA,NA,18,"2007-07-01T11:44:40",18,NA,NA,NA,NA,NA
"GLP003","CL","107001576",NA,755,NA,NA,"CO","Clinical Observation","CLINICAL SIGNS",NA,NA,"NORMAL","NORMAL",NA,NA,NA,NA,NA,NA,NA,NA,19,"2007-07-02T11:59:18",19,NA,NA,NA,NA,NA
"GLP003","CL","107001576",NA,756,NA,NA,"CO","Clinical Observation","CLINICAL SIGNS",NA,NA,"NORMAL","NORMAL",NA,NA,NA,NA,NA,NA,NA,NA,20,"2007-07-03T09:49:34",20,NA,NA,NA,NA,NA
"GLP003","CL","107001576",NA,757,NA,NA,"CO","Clinical Observation","CLINICAL SIGNS",NA,NA,"NORMAL","NORMAL",NA,NA,NA,NA,NA,NA,NA,NA,21,"2007-07-04T13:23:25",21,NA,NA,NA,NA,NA
"GLP003","CL","107001576",NA,758,NA,NA,"CO","Clinical Observation","CLINICAL SIGNS",NA,NA,"NORMAL","NORMAL",NA,NA,NA,NA,NA,NA,NA,NA,23,"2007-07-06T10:59:20",23,NA,NA,NA,NA,NA
"GLP003","CL","107001576",NA,759,NA,NA,"CO","Clinical Observation","CLINICAL SIGNS",NA,NA,"NORMAL","NORMAL",NA,NA,NA,NA,NA,NA,NA,NA,24,"2007-07-07T13:05:22",24,NA,NA,NA,NA,NA
"GLP003","CL","107001576",NA,760,NA,NA,"CO","Clinical Observation","CLINICAL SIGNS",NA,NA,"NORMAL","NORMAL",NA,NA,NA,NA,NA,NA,NA,NA,25,"2007-07-08T13:25:15",25,NA,NA,NA,NA,NA
"GLP003","CL","107001576",NA,761,NA,NA,"CO","Clinical Observation","CLINICAL SIGNS",NA,NA,"NORMAL","NORMAL",NA,NA,NA,NA,NA,NA,NA,NA,26,"2007-07-09T08:48:19",26,NA,NA,NA,NA,NA
"GLP003","CL","107001576",NA,762,NA,NA,"CO","Clinical Observation","CLINICAL SIGNS",NA,NA,"NORMAL","NORMAL",NA,NA,NA,NA,NA,NA,NA,NA,27,"2007-07-10T12:36:33",27,NA,NA,NA,NA,NA
"GLP003","CL","107001576",NA,763,NA,NA,"CO","Clinical Observation","CLINICAL SIGNS",NA,NA,"NORMAL","NORMAL",NA,NA,NA,NA,NA,NA,NA,NA,28,"2007-07-11T13:00:03",28,NA,NA,NA,NA,NA
"GLP003","CL","107001576",NA,764,NA,NA,"VOBS","Veterinary Examinations","PHYSICAL EXAM",NA,NA,"Discoloration, Head, Red","Discoloration",NA,NA,NA,"Head",NA,NA,NA,NA,22,"2007-07-05T11:17:39",22,NA,NA,NA,NA,NA
"GLP003","CL","107001576",NA,765,NA,NA,"VOBS","Veterinary Examinations","PHYSICAL EXAM",NA,NA,"Haircoat, abnormal, Head","Haircoat, abnormal",NA,NA,NA,"Head",NA,NA,NA,NA,22,"2007-07-05T11:17:39",22,NA,NA,NA,NA,NA
"GLP003","CL","107001576",NA,766,NA,NA,"CO","Clinical Observation","CLINICAL SIGNS",NA,NA,"Feces, unformed","Feces, unformed",NA,NA,NA,NA,NA,NA,NA,NA,2,"2007-06-15T07:09:00",2,NA,NA,NA,NA,NA
"GLP003","CL","107001576",NA,767,NA,NA,"CO","Clinical Observation","CLINICAL SIGNS",NA,NA,"Feces, unformed","Feces, unformed",NA,NA,NA,NA,NA,NA,NA,NA,20,"2007-07-03T07:15:00",20,NA,NA,NA,NA,NA
"GLP003","CL","107001576",NA,768,NA,NA,"CO","Clinical Observation","CLINICAL SIGNS",NA,NA,"Haircoat, abnormal, Head","Haircoat, abnormal",NA,NA,NA,"Head",NA,NA,NA,NA,22,"2007-07-05T13:56:19",22,NA,NA,NA,NA,NA
"GLP003","CL","107001576",NA,769,NA,NA,"CO","Clinical Observation","CLINICAL SIGNS",NA,NA,"End-of-Dose Necropsy","End-of-Dose Necropsy",NA,NA,NA,NA,NA,NA,NA,NA,29,"2007-07-12T10:59:30",29,NA,NA,NA,NA,NA
"GLP003","CL","107001576",NA,770,NA,NA,"EOBS","Ophthalmologic Examinations","OPHTHALMOLOGY",NA,NA,"NORMAL","NORMAL",NA,NA,NA,NA,NA,NA,NA,NA,-7,"2007-06-07T15:34:11",-7,NA,NA,NA,NA,NA
"GLP003","CL","107001576",NA,771,NA,NA,"EOBS","Ophthalmologic Examinations","OPHTHALMOLOGY",NA,NA,"NORMAL","NORMAL",NA,NA,NA,NA,NA,NA,NA,NA,22,"2007-07-05T11:07:10",22,NA,NA,NA,NA,NA
"GLP003","CL","107001576",NA,772,NA,NA,"VOBS","Veterinary Examinations","PHYSICAL EXAM",NA,NA,"NORMAL","NORMAL",NA,NA,NA,NA,NA,NA,NA,NA,-7,"2007-06-07T08:15:15",-7,NA,NA,NA,NA,NA
"GLP003","CL","107001616",NA,773,NA,NA,"CO","Clinical Observation","CLINICAL SIGNS",NA,NA,"NORMAL","NORMAL",NA,NA,NA,NA,NA,NA,NA,NA,1,"2007-06-14T15:44:43",1,NA,NA,NA,NA,NA
"GLP003","CL","107001616",NA,774,NA,NA,"CO","Clinical Observation","CLINICAL SIGNS",NA,NA,"NORMAL","NORMAL",NA,NA,NA,NA,NA,NA,NA,NA,2,"2007-06-15T15:03:06",2,NA,NA,NA,NA,NA
"GLP003","CL","107001616",NA,775,NA,NA,"CO","Clinical Observation","CLINICAL SIGNS",NA,NA,"NORMAL","NORMAL",NA,NA,NA,NA,NA,NA,NA,NA,3,"2007-06-16T15:02:54",3,NA,NA,NA,NA,NA
"GLP003","CL","107001616",NA,776,NA,NA,"CO","Clinical Observation","CLINICAL SIGNS",NA,NA,"NORMAL","NORMAL",NA,NA,NA,NA,NA,NA,NA,NA,4,"2007-06-17T10:51:26",4,NA,NA,NA,NA,NA
"GLP003","CL","107001616",NA,777,NA,NA,"CO","Clinical Observation","CLINICAL SIGNS",NA,NA,"NORMAL","NORMAL",NA,NA,NA,NA,NA,NA,NA,NA,5,"2007-06-18T10:25:32",5,NA,NA,NA,NA,NA
"GLP003","CL","107001616",NA,778,NA,NA,"CO","Clinical Observation","CLINICAL SIGNS",NA,NA,"NORMAL","NORMAL",NA,NA,NA,NA,NA,NA,NA,NA,6,"2007-06-19T15:27:26",6,NA,NA,NA,NA,NA
"GLP003","CL","107001616",NA,779,NA,NA,"CO","Clinical Observation","CLINICAL SIGNS",NA,NA,"NORMAL","NORMAL",NA,NA,NA,NA,NA,NA,NA,NA,7,"2007-06-20T11:42:24",7,NA,NA,NA,NA,NA
"GLP003","CL","107001616",NA,780,NA,NA,"CO","Clinical Observation","CLINICAL SIGNS",NA,NA,"NORMAL","NORMAL",NA,NA,NA,NA,NA,NA,NA,NA,8,"2007-06-21T11:10:22",8,NA,NA,NA,NA,NA
"GLP003","CL","107001616",NA,781,NA,NA,"CO","Clinical Observation","CLINICAL SIGNS",NA,NA,"NORMAL","NORMAL",NA,NA,NA,NA,NA,NA,NA,NA,9,"2007-06-22T11:59:26",9,NA,NA,NA,NA,NA
"GLP003","CL","107001616",NA,782,NA,NA,"CO","Clinical Observation","CLINICAL SIGNS",NA,NA,"NORMAL","NORMAL",NA,NA,NA,NA,NA,NA,NA,NA,10,"2007-06-23T15:47:34",10,NA,NA,NA,NA,NA
"GLP003","CL","107001616",NA,783,NA,NA,"CO","Clinical Observation","CLINICAL SIGNS",NA,NA,"NORMAL","NORMAL",NA,NA,NA,NA,NA,NA,NA,NA,11,"2007-06-24T14:33:39",11,NA,NA,NA,NA,NA
"GLP003","CL","107001616",NA,784,NA,NA,"CO","Clinical Observation","CLINICAL SIGNS",NA,NA,"NORMAL","NORMAL",NA,NA,NA,NA,NA,NA,NA,NA,12,"2007-06-25T14:10:53",12,NA,NA,NA,NA,NA
"GLP003","CL","107001616",NA,785,NA,NA,"CO","Clinical Observation","CLINICAL SIGNS",NA,NA,"NORMAL","NORMAL",NA,NA,NA,NA,NA,NA,NA,NA,13,"2007-06-26T13:10:41",13,NA,NA,NA,NA,NA
"GLP003","CL","107001616",NA,786,NA,NA,"CO","Clinical Observation","CLINICAL SIGNS",NA,NA,"NORMAL","NORMAL",NA,NA,NA,NA,NA,NA,NA,NA,14,"2007-06-27T11:26:23",14,NA,NA,NA,NA,NA
"GLP003","CL","107001616",NA,787,NA,NA,"CO","Clinical Observation","CLINICAL SIGNS",NA,NA,"NORMAL","NORMAL",NA,NA,NA,NA,NA,NA,NA,NA,15,"2007-06-28T13:57:22",15,NA,NA,NA,NA,NA
"GLP003","CL","107001616",NA,788,NA,NA,"CO","Clinical Observation","CLINICAL SIGNS",NA,NA,"NORMAL","NORMAL",NA,NA,NA,NA,NA,NA,NA,NA,16,"2007-06-29T13:46:35",16,NA,NA,NA,NA,NA
"GLP003","CL","107001616",NA,789,NA,NA,"CO","Clinical Observation","CLINICAL SIGNS",NA,NA,"NORMAL","NORMAL",NA,NA,NA,NA,NA,NA,NA,NA,17,"2007-06-30T13:54:33",17,NA,NA,NA,NA,NA
"GLP003","CL","107001616",NA,790,NA,NA,"CO","Clinical Observation","CLINICAL SIGNS",NA,NA,"NORMAL","NORMAL",NA,NA,NA,NA,NA,NA,NA,NA,18,"2007-07-01T11:45:03",18,NA,NA,NA,NA,NA
"GLP003","CL","107001616",NA,791,NA,NA,"CO","Clinical Observation","CLINICAL SIGNS",NA,NA,"NORMAL","NORMAL",NA,NA,NA,NA,NA,NA,NA,NA,19,"2007-07-02T11:59:19",19,NA,NA,NA,NA,NA
"GLP003","CL","107001616",NA,792,NA,NA,"CO","Clinical Observation","CLINICAL SIGNS",NA,NA,"NORMAL","NORMAL",NA,NA,NA,NA,NA,NA,NA,NA,20,"2007-07-03T09:49:36",20,NA,NA,NA,NA,NA
"GLP003","CL","107001616",NA,793,NA,NA,"CO","Clinical Observation","CLINICAL SIGNS",NA,NA,"NORMAL","NORMAL",NA,NA,NA,NA,NA,NA,NA,NA,21,"2007-07-04T13:23:26",21,NA,NA,NA,NA,NA
"GLP003","CL","107001616",NA,794,NA,NA,"CO","Clinical Observation","CLINICAL SIGNS",NA,NA,"NORMAL","NORMAL",NA,NA,NA,NA,NA,NA,NA,NA,22,"2007-07-05T13:56:28",22,NA,NA,NA,NA,NA
"GLP003","CL","107001616",NA,795,NA,NA,"CO","Clinical Observation","CLINICAL SIGNS",NA,NA,"NORMAL","NORMAL",NA,NA,NA,NA,NA,NA,NA,NA,23,"2007-07-06T10:59:23",23,NA,NA,NA,NA,NA
"GLP003","CL","107001616",NA,796,NA,NA,"CO","Clinical Observation","CLINICAL SIGNS",NA,NA,"NORMAL","NORMAL",NA,NA,NA,NA,NA,NA,NA,NA,24,"2007-07-07T13:05:23",24,NA,NA,NA,NA,NA
"GLP003","CL","107001616",NA,797,NA,NA,"CO","Clinical Observation","CLINICAL SIGNS",NA,NA,"NORMAL","NORMAL",NA,NA,NA,NA,NA,NA,NA,NA,25,"2007-07-08T13:25:16",25,NA,NA,NA,NA,NA
"GLP003","CL","107001616",NA,798,NA,NA,"CO","Clinical Observation","CLINICAL SIGNS",NA,NA,"NORMAL","NORMAL",NA,NA,NA,NA,NA,NA,NA,NA,26,"2007-07-09T08:48:20",26,NA,NA,NA,NA,NA
"GLP003","CL","107001616",NA,799,NA,NA,"CO","Clinical Observation","CLINICAL SIGNS",NA,NA,"NORMAL","NORMAL",NA,NA,NA,NA,NA,NA,NA,NA,27,"2007-07-10T12:36:58",27,NA,NA,NA,NA,NA
"GLP003","CL","107001616",NA,800,NA,NA,"CO","Clinical Observation","CLINICAL SIGNS",NA,NA,"NORMAL","NORMAL",NA,NA,NA,NA,NA,NA,NA,NA,28,"2007-07-11T13:00:05",28,NA,NA,NA,NA,NA
"GLP003","CL","107001616",NA,801,NA,NA,"CO","Clinical Observation","CLINICAL SIGNS",NA,NA,"Feces, unformed","Feces, unformed",NA,NA,NA,NA,NA,NA,NA,NA,2,"2007-06-15T07:09:00",2,NA,NA,NA,NA,NA
"GLP003","CL","107001616",NA,802,NA,NA,"CO","Clinical Observation","CLINICAL SIGNS",NA,NA,"End-of-Dose Necropsy","End-of-Dose Necropsy",NA,NA,NA,NA,NA,NA,NA,NA,29,"2007-07-12T10:59:36",29,NA,NA,NA,NA,NA
"GLP003","CL","107001616",NA,803,NA,NA,"EOBS","Ophthalmologic Examinations","OPHTHALMOLOGY",NA,NA,"NORMAL","NORMAL",NA,NA,NA,NA,NA,NA,NA,NA,-7,"2007-06-07T15:34:11",-7,NA,NA,NA,NA,NA
"GLP003","CL","107001616",NA,804,NA,NA,"EOBS","Ophthalmologic Examinations","OPHTHALMOLOGY",NA,NA,"NORMAL","NORMAL",NA,NA,NA,NA,NA,NA,NA,NA,22,"2007-07-05T11:07:10",22,NA,NA,NA,NA,NA
"GLP003","CL","107001616",NA,805,NA,NA,"VOBS","Veterinary Examinations","PHYSICAL EXAM",NA,NA,"NORMAL","NORMAL",NA,NA,NA,NA,NA,NA,NA,NA,-7,"2007-06-07T08:15:15",-7,NA,NA,NA,NA,NA
"GLP003","CL","107001616",NA,806,NA,NA,"VOBS","Veterinary Examinations","PHYSICAL EXAM",NA,NA,"NORMAL","NORMAL",NA,NA,NA,NA,NA,NA,NA,NA,22,"2007-07-05T11:49:48",22,NA,NA,NA,NA,NA
"GLP003","CL","107001500",NA,807,NA,NA,"CO","Clinical Observation","CLINICAL SIGNS",NA,NA,"NORMAL","NORMAL",NA,NA,NA,NA,NA,NA,NA,NA,1,"2007-06-14T15:44:45",1,NA,NA,NA,NA,NA
"GLP003","CL","107001500",NA,808,NA,NA,"CO","Clinical Observation","CLINICAL SIGNS",NA,NA,"NORMAL","NORMAL",NA,NA,NA,NA,NA,NA,NA,NA,2,"2007-06-15T15:06:08",2,NA,NA,NA,NA,NA
"GLP003","CL","107001500",NA,809,NA,NA,"CO","Clinical Observation","CLINICAL SIGNS",NA,NA,"NORMAL","NORMAL",NA,NA,NA,NA,NA,NA,NA,NA,3,"2007-06-16T15:02:55",3,NA,NA,NA,NA,NA
"GLP003","CL","107001500",NA,810,NA,NA,"CO","Clinical Observation","CLINICAL SIGNS",NA,NA,"NORMAL","NORMAL",NA,NA,NA,NA,NA,NA,NA,NA,4,"2007-06-17T10:51:27",4,NA,NA,NA,NA,NA
"GLP003","CL","107001500",NA,811,NA,NA,"CO","Clinical Observation","CLINICAL SIGNS",NA,NA,"NORMAL","NORMAL",NA,NA,NA,NA,NA,NA,NA,NA,5,"2007-06-18T10:25:33",5,NA,NA,NA,NA,NA
"GLP003","CL","107001500",NA,812,NA,NA,"CO","Clinical Observation","CLINICAL SIGNS",NA,NA,"NORMAL","NORMAL",NA,NA,NA,NA,NA,NA,NA,NA,6,"2007-06-19T15:27:27",6,NA,NA,NA,NA,NA
"GLP003","CL","107001500",NA,813,NA,NA,"CO","Clinical Observation","CLINICAL SIGNS",NA,NA,"NORMAL","NORMAL",NA,NA,NA,NA,NA,NA,NA,NA,7,"2007-06-20T11:42:26",7,NA,NA,NA,NA,NA
"GLP003","CL","107001500",NA,814,NA,NA,"CO","Clinical Observation","CLINICAL SIGNS",NA,NA,"NORMAL","NORMAL",NA,NA,NA,NA,NA,NA,NA,NA,8,"2007-06-21T11:10:24",8,NA,NA,NA,NA,NA
"GLP003","CL","107001500",NA,815,NA,NA,"CO","Clinical Observation","CLINICAL SIGNS",NA,NA,"NORMAL","NORMAL",NA,NA,NA,NA,NA,NA,NA,NA,9,"2007-06-22T11:59:35",9,NA,NA,NA,NA,NA
"GLP003","CL","107001500",NA,816,NA,NA,"CO","Clinical Observation","CLINICAL SIGNS",NA,NA,"NORMAL","NORMAL",NA,NA,NA,NA,NA,NA,NA,NA,10,"2007-06-23T15:47:35",10,NA,NA,NA,NA,NA
"GLP003","CL","107001500",NA,817,NA,NA,"CO","Clinical Observation","CLINICAL SIGNS",NA,NA,"NORMAL","NORMAL",NA,NA,NA,NA,NA,NA,NA,NA,11,"2007-06-24T14:33:40",11,NA,NA,NA,NA,NA
"GLP003","CL","107001500",NA,818,NA,NA,"CO","Clinical Observation","CLINICAL SIGNS",NA,NA,"NORMAL","NORMAL",NA,NA,NA,NA,NA,NA,NA,NA,12,"2007-06-25T14:10:55",12,NA,NA,NA,NA,NA
"GLP003","CL","107001500",NA,819,NA,NA,"CO","Clinical Observation","CLINICAL SIGNS",NA,NA,"NORMAL","NORMAL",NA,NA,NA,NA,NA,NA,NA,NA,13,"2007-06-26T13:10:42",13,NA,NA,NA,NA,NA
"GLP003","CL","107001500",NA,820,NA,NA,"CO","Clinical Observation","CLINICAL SIGNS",NA,NA,"NORMAL","NORMAL",NA,NA,NA,NA,NA,NA,NA,NA,14,"2007-06-27T11:26:25",14,NA,NA,NA,NA,NA
"GLP003","CL","107001500",NA,821,NA,NA,"CO","Clinical Observation","CLINICAL SIGNS",NA,NA,"NORMAL","NORMAL",NA,NA,NA,NA,NA,NA,NA,NA,15,"2007-06-28T13:57:23",15,NA,NA,NA,NA,NA
"GLP003","CL","107001500",NA,822,NA,NA,"CO","Clinical Observation","CLINICAL SIGNS",NA,NA,"NORMAL","NORMAL",NA,NA,NA,NA,NA,NA,NA,NA,16,"2007-06-29T13:46:36",16,NA,NA,NA,NA,NA
"GLP003","CL","107001500",NA,823,NA,NA,"CO","Clinical Observation","CLINICAL SIGNS",NA,NA,"NORMAL","NORMAL",NA,NA,NA,NA,NA,NA,NA,NA,17,"2007-06-30T13:54:34",17,NA,NA,NA,NA,NA
"GLP003","CL","107001500",NA,824,NA,NA,"CO","Clinical Observation","CLINICAL SIGNS",NA,NA,"NORMAL","NORMAL",NA,NA,NA,NA,NA,NA,NA,NA,18,"2007-07-01T11:45:04",18,NA,NA,NA,NA,NA
"GLP003","CL","107001500",NA,825,NA,NA,"CO","Clinical Observation","CLINICAL SIGNS",NA,NA,"NORMAL","NORMAL",NA,NA,NA,NA,NA,NA,NA,NA,19,"2007-07-02T11:59:21",19,NA,NA,NA,NA,NA
"GLP003","CL","107001500",NA,826,NA,NA,"CO","Clinical Observation","CLINICAL SIGNS",NA,NA,"NORMAL","NORMAL",NA,NA,NA,NA,NA,NA,NA,NA,20,"2007-07-03T09:49:38",20,NA,NA,NA,NA,NA
"GLP003","CL","107001500",NA,827,NA,NA,"VOBS","Veterinary Examinations","PHYSICAL EXAM",NA,NA,"Discoloration, Head, Red","Discoloration",NA,NA,NA,"Head",NA,NA,NA,NA,22,"2007-07-05T11:18:35",22,NA,NA,NA,NA,NA
"GLP003","CL","107001500",NA,828,NA,NA,"VOBS","Veterinary Examinations","PHYSICAL EXAM",NA,NA,"Haircoat, abnormal, Head","Haircoat, abnormal",NA,NA,NA,"Head",NA,NA,NA,NA,22,"2007-07-05T11:18:35",22,NA,NA,NA,NA,NA
"GLP003","CL","107001500",NA,829,NA,NA,"CO","Clinical Observation","CLINICAL SIGNS",NA,NA,"Feces, unformed","Feces, unformed",NA,NA,NA,NA,NA,NA,NA,NA,2,"2007-06-15T07:09:00",2,NA,NA,NA,NA,NA
"GLP003","CL","107001500",NA,830,NA,NA,"CO","Clinical Observation","CLINICAL SIGNS",NA,NA,"Chromorhinorrhea","Chromorhinorrhea",NA,NA,NA,NA,NA,NA,NA,NA,21,"2007-07-04T13:23:33",21,NA,NA,NA,NA,NA
"GLP003","CL","107001500",NA,831,NA,NA,"CO","Clinical Observation","CLINICAL SIGNS",NA,NA,"Haircoat, abnormal, Head","Haircoat, abnormal",NA,NA,NA,"Head",NA,NA,NA,NA,22,"2007-07-05T13:57:04",22,NA,NA,NA,NA,NA
"GLP003","CL","107001500",NA,832,NA,NA,"CO","Clinical Observation","CLINICAL SIGNS",NA,NA,"Haircoat, abnormal, Head","Haircoat, abnormal",NA,NA,NA,"Head",NA,NA,NA,NA,23,"2007-07-06T10:59:37",23,NA,NA,NA,NA,NA
"GLP003","CL","107001500",NA,833,NA,NA,"CO","Clinical Observation","CLINICAL SIGNS",NA,NA,"Haircoat, abnormal, Ears, both","Haircoat, abnormal",NA,NA,NA,"Ears, both",NA,NA,NA,NA,24,"2007-07-07T13:10:02",24,NA,NA,NA,NA,NA
"GLP003","CL","107001500",NA,834,NA,NA,"CO","Clinical Observation","CLINICAL SIGNS",NA,NA,"Haircoat, abnormal, Head","Haircoat, abnormal",NA,NA,NA,"Head",NA,NA,NA,NA,24,"2007-07-07T13:10:02",24,NA,NA,NA,NA,NA
"GLP003","CL","107001500",NA,835,NA,NA,"CO","Clinical Observation","CLINICAL SIGNS",NA,NA,"Haircoat, abnormal, Ears, both","Haircoat, abnormal",NA,NA,NA,"Ears, both",NA,NA,NA,NA,25,"2007-07-08T13:25:25",25,NA,NA,NA,NA,NA
"GLP003","CL","107001500",NA,836,NA,NA,"CO","Clinical Observation","CLINICAL SIGNS",NA,NA,"Haircoat, abnormal, Head","Haircoat, abnormal",NA,NA,NA,"Head",NA,NA,NA,NA,25,"2007-07-08T13:25:25",25,NA,NA,NA,NA,NA
"GLP003","CL","107001500",NA,837,NA,NA,"CO","Clinical Observation","CLINICAL SIGNS",NA,NA,"Feces, unformed","Feces, unformed",NA,NA,NA,NA,NA,NA,NA,NA,26,"2007-07-09T06:01:00",26,NA,NA,NA,NA,NA
"GLP003","CL","107001500",NA,838,NA,NA,"CO","Clinical Observation","CLINICAL SIGNS",NA,NA,"Haircoat, abnormal, Ears, both","Haircoat, abnormal",NA,NA,NA,"Ears, both",NA,NA,NA,NA,26,"2007-07-09T08:48:26",26,NA,NA,NA,NA,NA
"GLP003","CL","107001500",NA,839,NA,NA,"CO","Clinical Observation","CLINICAL SIGNS",NA,NA,"Haircoat, abnormal, Head","Haircoat, abnormal",NA,NA,NA,"Head",NA,NA,NA,NA,26,"2007-07-09T08:48:26",26,NA,NA,NA,NA,NA
"GLP003","CL","107001500",NA,840,NA,NA,"CO","Clinical Observation","CLINICAL SIGNS",NA,NA,"Feces, unformed","Feces, unformed",NA,NA,NA,NA,NA,NA,NA,NA,27,"2007-07-10T06:12:00",27,NA,NA,NA,NA,NA
"GLP003","CL","107001500",NA,841,NA,NA,"CO","Clinical Observation","CLINICAL SIGNS",NA,NA,"Haircoat, abnormal, Ears, both","Haircoat, abnormal",NA,NA,NA,"Ears, both",NA,NA,NA,NA,27,"2007-07-10T12:37:06",27,NA,NA,NA,NA,NA
"GLP003","CL","107001500",NA,842,NA,NA,"CO","Clinical Observation","CLINICAL SIGNS",NA,NA,"Haircoat, abnormal, Head","Haircoat, abnormal",NA,NA,NA,"Head",NA,NA,NA,NA,27,"2007-07-10T12:37:06",27,NA,NA,NA,NA,NA
"GLP003","CL","107001500",NA,843,NA,NA,"CO","Clinical Observation","CLINICAL SIGNS",NA,NA,"Haircoat, abnormal, Ears, both","Haircoat, abnormal",NA,NA,NA,"Ears, both",NA,NA,NA,NA,28,"2007-07-11T13:00:13",28,NA,NA,NA,NA,NA
"GLP003","CL","107001500",NA,844,NA,NA,"CO","Clinical Observation","CLINICAL SIGNS",NA,NA,"Haircoat, abnormal, Head","Haircoat, abnormal",NA,NA,NA,"Head",NA,NA,NA,NA,28,"2007-07-11T13:00:13",28,NA,NA,NA,NA,NA
"GLP003","CL","107001500",NA,845,NA,NA,"CO","Clinical Observation","CLINICAL SIGNS",NA,NA,"End-of-Dose Necropsy","End-of-Dose Necropsy",NA,NA,NA,NA,NA,NA,NA,NA,29,"2007-07-12T10:59:52",29,NA,NA,NA,NA,NA
"GLP003","CL","107001500",NA,846,NA,NA,"EOBS","Ophthalmologic Examinations","OPHTHALMOLOGY",NA,NA,"NORMAL","NORMAL",NA,NA,NA,NA,NA,NA,NA,NA,-7,"2007-06-07T15:34:11",-7,NA,NA,NA,NA,NA
"GLP003","CL","107001500",NA,847,NA,NA,"EOBS","Ophthalmologic Examinations","OPHTHALMOLOGY",NA,NA,"NORMAL","NORMAL",NA,NA,NA,NA,NA,NA,NA,NA,22,"2007-07-05T11:07:10",22,NA,NA,NA,NA,NA
"GLP003","CL","107001500",NA,848,NA,NA,"VOBS","Veterinary Examinations","PHYSICAL EXAM",NA,NA,"NORMAL","NORMAL",NA,NA,NA,NA,NA,NA,NA,NA,-7,"2007-06-07T08:15:15",-7,NA,NA,NA,NA,NA
"GLP003","CL","107001535",NA,849,NA,NA,"CO","Clinical Observation","CLINICAL SIGNS",NA,NA,"NORMAL","NORMAL",NA,NA,NA,NA,NA,NA,NA,NA,1,"2007-06-14T15:44:46",1,NA,NA,NA,NA,NA
"GLP003","CL","107001535",NA,850,NA,NA,"CO","Clinical Observation","CLINICAL SIGNS",NA,NA,"NORMAL","NORMAL",NA,NA,NA,NA,NA,NA,NA,NA,2,"2007-06-15T15:06:10",2,NA,NA,NA,NA,NA
"GLP003","CL","107001535",NA,851,NA,NA,"CO","Clinical Observation","CLINICAL SIGNS",NA,NA,"NORMAL","NORMAL",NA,NA,NA,NA,NA,NA,NA,NA,3,"2007-06-16T15:03:27",3,NA,NA,NA,NA,NA
"GLP003","CL","107001535",NA,852,NA,NA,"CO","Clinical Observation","CLINICAL SIGNS",NA,NA,"NORMAL","NORMAL",NA,NA,NA,NA,NA,NA,NA,NA,4,"2007-06-17T10:51:28",4,NA,NA,NA,NA,NA
"GLP003","CL","107001535",NA,853,NA,NA,"CO","Clinical Observation","CLINICAL SIGNS",NA,NA,"NORMAL","NORMAL",NA,NA,NA,NA,NA,NA,NA,NA,5,"2007-06-18T10:25:34",5,NA,NA,NA,NA,NA
"GLP003","CL","107001535",NA,854,NA,NA,"CO","Clinical Observation","CLINICAL SIGNS",NA,NA,"NORMAL","NORMAL",NA,NA,NA,NA,NA,NA,NA,NA,6,"2007-06-19T15:27:29",6,NA,NA,NA,NA,NA
"GLP003","CL","107001535",NA,855,NA,NA,"CO","Clinical Observation","CLINICAL SIGNS",NA,NA,"NORMAL","NORMAL",NA,NA,NA,NA,NA,NA,NA,NA,7,"2007-06-20T11:42:28",7,NA,NA,NA,NA,NA
"GLP003","CL","107001535",NA,856,NA,NA,"CO","Clinical Observation","CLINICAL SIGNS",NA,NA,"NORMAL","NORMAL",NA,NA,NA,NA,NA,NA,NA,NA,8,"2007-06-21T11:10:25",8,NA,NA,NA,NA,NA
"GLP003","CL","107001535",NA,857,NA,NA,"CO","Clinical Observation","CLINICAL SIGNS",NA,NA,"NORMAL","NORMAL",NA,NA,NA,NA,NA,NA,NA,NA,9,"2007-06-22T11:59:44",9,NA,NA,NA,NA,NA
"GLP003","CL","107001535",NA,858,NA,NA,"CO","Clinical Observation","CLINICAL SIGNS",NA,NA,"NORMAL","NORMAL",NA,NA,NA,NA,NA,NA,NA,NA,10,"2007-06-23T15:48:02",10,NA,NA,NA,NA,NA
"GLP003","CL","107001535",NA,859,NA,NA,"CO","Clinical Observation","CLINICAL SIGNS",NA,NA,"NORMAL","NORMAL",NA,NA,NA,NA,NA,NA,NA,NA,11,"2007-06-24T14:33:41",11,NA,NA,NA,NA,NA
"GLP003","CL","107001535",NA,860,NA,NA,"CO","Clinical Observation","CLINICAL SIGNS",NA,NA,"NORMAL","NORMAL",NA,NA,NA,NA,NA,NA,NA,NA,12,"2007-06-25T14:10:56",12,NA,NA,NA,NA,NA
"GLP003","CL","107001535",NA,861,NA,NA,"CO","Clinical Observation","CLINICAL SIGNS",NA,NA,"NORMAL","NORMAL",NA,NA,NA,NA,NA,NA,NA,NA,13,"2007-06-26T13:10:44",13,NA,NA,NA,NA,NA
"GLP003","CL","107001535",NA,862,NA,NA,"CO","Clinical Observation","CLINICAL SIGNS",NA,NA,"NORMAL","NORMAL",NA,NA,NA,NA,NA,NA,NA,NA,14,"2007-06-27T11:26:26",14,NA,NA,NA,NA,NA
"GLP003","CL","107001535",NA,863,NA,NA,"CO","Clinical Observation","CLINICAL SIGNS",NA,NA,"NORMAL","NORMAL",NA,NA,NA,NA,NA,NA,NA,NA,15,"2007-06-28T13:57:25",15,NA,NA,NA,NA,NA
"GLP003","CL","107001535",NA,864,NA,NA,"CO","Clinical Observation","CLINICAL SIGNS",NA,NA,"NORMAL","NORMAL",NA,NA,NA,NA,NA,NA,NA,NA,16,"2007-06-29T13:46:38",16,NA,NA,NA,NA,NA
"GLP003","CL","107001535",NA,865,NA,NA,"CO","Clinical Observation","CLINICAL SIGNS",NA,NA,"NORMAL","NORMAL",NA,NA,NA,NA,NA,NA,NA,NA,17,"2007-06-30T13:54:35",17,NA,NA,NA,NA,NA
"GLP003","CL","107001535",NA,866,NA,NA,"CO","Clinical Observation","CLINICAL SIGNS",NA,NA,"NORMAL","NORMAL",NA,NA,NA,NA,NA,NA,NA,NA,18,"2007-07-01T11:45:05",18,NA,NA,NA,NA,NA
"GLP003","CL","107001535",NA,867,NA,NA,"CO","Clinical Observation","CLINICAL SIGNS",NA,NA,"NORMAL","NORMAL",NA,NA,NA,NA,NA,NA,NA,NA,19,"2007-07-02T11:59:23",19,NA,NA,NA,NA,NA
"GLP003","CL","107001535",NA,868,NA,NA,"CO","Clinical Observation","CLINICAL SIGNS",NA,NA,"NORMAL","NORMAL",NA,NA,NA,NA,NA,NA,NA,NA,20,"2007-07-03T09:49:47",20,NA,NA,NA,NA,NA
"GLP003","CL","107001535",NA,869,NA,NA,"CO","Clinical Observation","CLINICAL SIGNS",NA,NA,"NORMAL","NORMAL",NA,NA,NA,NA,NA,NA,NA,NA,21,"2007-07-04T13:23:34",21,NA,NA,NA,NA,NA
"GLP003","CL","107001535",NA,870,NA,NA,"CO","Clinical Observation","CLINICAL SIGNS",NA,NA,"NORMAL","NORMAL",NA,NA,NA,NA,NA,NA,NA,NA,22,"2007-07-05T13:57:13",22,NA,NA,NA,NA,NA
"GLP003","CL","107001535",NA,871,NA,NA,"CO","Clinical Observation","CLINICAL SIGNS",NA,NA,"NORMAL","NORMAL",NA,NA,NA,NA,NA,NA,NA,NA,23,"2007-07-06T10:59:43",23,NA,NA,NA,NA,NA
"GLP003","CL","107001535",NA,872,NA,NA,"CO","Clinical Observation","CLINICAL SIGNS",NA,NA,"NORMAL","NORMAL",NA,NA,NA,NA,NA,NA,NA,NA,24,"2007-07-07T13:10:31",24,NA,NA,NA,NA,NA
"GLP003","CL","107001535",NA,873,NA,NA,"CO","Clinical Observation","CLINICAL SIGNS",NA,NA,"NORMAL","NORMAL",NA,NA,NA,NA,NA,NA,NA,NA,25,"2007-07-08T13:25:27",25,NA,NA,NA,NA,NA
"GLP003","CL","107001535",NA,874,NA,NA,"CO","Clinical Observation","CLINICAL SIGNS",NA,NA,"NORMAL","NORMAL",NA,NA,NA,NA,NA,NA,NA,NA,26,"2007-07-09T08:48:30",26,NA,NA,NA,NA,NA
"GLP003","CL","107001535",NA,875,NA,NA,"CO","Clinical Observation","CLINICAL SIGNS",NA,NA,"NORMAL","NORMAL",NA,NA,NA,NA,NA,NA,NA,NA,27,"2007-07-10T12:37:21",27,NA,NA,NA,NA,NA
"GLP003","CL","107001535",NA,876,NA,NA,"CO","Clinical Observation","CLINICAL SIGNS",NA,NA,"NORMAL","NORMAL",NA,NA,NA,NA,NA,NA,NA,NA,29,"2007-07-12T12:51:55",29,NA,NA,NA,NA,NA
"GLP003","CL","107001535",NA,877,NA,NA,"CO","Clinical Observation","CLINICAL SIGNS",NA,NA,"Feces, unformed","Feces, unformed",NA,NA,NA,NA,NA,NA,NA,NA,2,"2007-06-15T07:09:00",2,NA,NA,NA,NA,NA
"GLP003","CL","107001535",NA,878,NA,NA,"CO","Clinical Observation","CLINICAL SIGNS",NA,NA,"Chromorhinorrhea","Chromorhinorrhea",NA,NA,NA,NA,NA,NA,NA,NA,28,"2007-07-11T13:37:58",28,NA,NA,NA,NA,NA
"GLP003","CL","107001535",NA,879,NA,NA,"CO","Clinical Observation","CLINICAL SIGNS",NA,NA,"End-of-Dose Necropsy","End-of-Dose Necropsy",NA,NA,NA,NA,NA,NA,NA,NA,30,"2007-07-13T10:34:17",30,NA,NA,NA,NA,NA
"GLP003","CL","107001535",NA,880,NA,NA,"EOBS","Ophthalmologic Examinations","OPHTHALMOLOGY",NA,NA,"NORMAL","NORMAL",NA,NA,NA,NA,NA,NA,NA,NA,-7,"2007-06-07T15:34:11",-7,NA,NA,NA,NA,NA
"GLP003","CL","107001535",NA,881,NA,NA,"EOBS","Ophthalmologic Examinations","OPHTHALMOLOGY",NA,NA,"NORMAL","NORMAL",NA,NA,NA,NA,NA,NA,NA,NA,22,"2007-07-05T11:07:10",22,NA,NA,NA,NA,NA
"GLP003","CL","107001535",NA,882,NA,NA,"VOBS","Veterinary Examinations","PHYSICAL EXAM",NA,NA,"NORMAL","NORMAL",NA,NA,NA,NA,NA,NA,NA,NA,-7,"2007-06-07T08:15:15",-7,NA,NA,NA,NA,NA
"GLP003","CL","107001535",NA,883,NA,NA,"VOBS","Veterinary Examinations","PHYSICAL EXAM",NA,NA,"NORMAL","NORMAL",NA,NA,NA,NA,NA,NA,NA,NA,22,"2007-07-05T11:49:48",22,NA,NA,NA,NA,NA
"GLP003","CL","107001647",NA,884,NA,NA,"CO","Clinical Observation","CLINICAL SIGNS",NA,NA,"NORMAL","NORMAL",NA,NA,NA,NA,NA,NA,NA,NA,1,"2007-06-14T15:44:48",1,NA,NA,NA,NA,NA
"GLP003","CL","107001647",NA,885,NA,NA,"CO","Clinical Observation","CLINICAL SIGNS",NA,NA,"NORMAL","NORMAL",NA,NA,NA,NA,NA,NA,NA,NA,2,"2007-06-15T15:06:12",2,NA,NA,NA,NA,NA
"GLP003","CL","107001647",NA,886,NA,NA,"CO","Clinical Observation","CLINICAL SIGNS",NA,NA,"NORMAL","NORMAL",NA,NA,NA,NA,NA,NA,NA,NA,3,"2007-06-16T15:03:28",3,NA,NA,NA,NA,NA
"GLP003","CL","107001647",NA,887,NA,NA,"CO","Clinical Observation","CLINICAL SIGNS",NA,NA,"NORMAL","NORMAL",NA,NA,NA,NA,NA,NA,NA,NA,4,"2007-06-17T10:51:48",4,NA,NA,NA,NA,NA
"GLP003","CL","107001647",NA,888,NA,NA,"CO","Clinical Observation","CLINICAL SIGNS",NA,NA,"NORMAL","NORMAL",NA,NA,NA,NA,NA,NA,NA,NA,5,"2007-06-18T10:27:41",5,NA,NA,NA,NA,NA
"GLP003","CL","107001647",NA,889,NA,NA,"CO","Clinical Observation","CLINICAL SIGNS",NA,NA,"NORMAL","NORMAL",NA,NA,NA,NA,NA,NA,NA,NA,6,"2007-06-19T15:27:31",6,NA,NA,NA,NA,NA
"GLP003","CL","107001647",NA,890,NA,NA,"CO","Clinical Observation","CLINICAL SIGNS",NA,NA,"NORMAL","NORMAL",NA,NA,NA,NA,NA,NA,NA,NA,7,"2007-06-20T11:42:29",7,NA,NA,NA,NA,NA
"GLP003","CL","107001647",NA,891,NA,NA,"CO","Clinical Observation","CLINICAL SIGNS",NA,NA,"NORMAL","NORMAL",NA,NA,NA,NA,NA,NA,NA,NA,8,"2007-06-21T11:10:27",8,NA,NA,NA,NA,NA
"GLP003","CL","107001647",NA,892,NA,NA,"CO","Clinical Observation","CLINICAL SIGNS",NA,NA,"NORMAL","NORMAL",NA,NA,NA,NA,NA,NA,NA,NA,9,"2007-06-22T12:00:04",9,NA,NA,NA,NA,NA
"GLP003","CL","107001647",NA,893,NA,NA,"CO","Clinical Observation","CLINICAL SIGNS",NA,NA,"NORMAL","NORMAL",NA,NA,NA,NA,NA,NA,NA,NA,10,"2007-06-23T15:48:54",10,NA,NA,NA,NA,NA
"GLP003","CL","107001647",NA,894,NA,NA,"CO","Clinical Observation","CLINICAL SIGNS",NA,NA,"NORMAL","NORMAL",NA,NA,NA,NA,NA,NA,NA,NA,11,"2007-06-24T14:34:00",11,NA,NA,NA,NA,NA
"GLP003","CL","107001647",NA,895,NA,NA,"CO","Clinical Observation","CLINICAL SIGNS",NA,NA,"NORMAL","NORMAL",NA,NA,NA,NA,NA,NA,NA,NA,12,"2007-06-25T14:12:28",12,NA,NA,NA,NA,NA
"GLP003","CL","107001647",NA,896,NA,NA,"CO","Clinical Observation","CLINICAL SIGNS",NA,NA,"NORMAL","NORMAL",NA,NA,NA,NA,NA,NA,NA,NA,13,"2007-06-26T13:10:45",13,NA,NA,NA,NA,NA
"GLP003","CL","107001647",NA,897,NA,NA,"CO","Clinical Observation","CLINICAL SIGNS",NA,NA,"NORMAL","NORMAL",NA,NA,NA,NA,NA,NA,NA,NA,14,"2007-06-27T11:27:42",14,NA,NA,NA,NA,NA
"GLP003","CL","107001647",NA,898,NA,NA,"CO","Clinical Observation","CLINICAL SIGNS",NA,NA,"NORMAL","NORMAL",NA,NA,NA,NA,NA,NA,NA,NA,15,"2007-06-28T13:59:28",15,NA,NA,NA,NA,NA
"GLP003","CL","107001647",NA,899,NA,NA,"CO","Clinical Observation","CLINICAL SIGNS",NA,NA,"NORMAL","NORMAL",NA,NA,NA,NA,NA,NA,NA,NA,16,"2007-06-29T13:46:39",16,NA,NA,NA,NA,NA
"GLP003","CL","107001647",NA,900,NA,NA,"CO","Clinical Observation","CLINICAL SIGNS",NA,NA,"NORMAL","NORMAL",NA,NA,NA,NA,NA,NA,NA,NA,17,"2007-06-30T13:55:01",17,NA,NA,NA,NA,NA
"GLP003","CL","107001647",NA,901,NA,NA,"CO","Clinical Observation","CLINICAL SIGNS",NA,NA,"NORMAL","NORMAL",NA,NA,NA,NA,NA,NA,NA,NA,18,"2007-07-01T11:45:31",18,NA,NA,NA,NA,NA
"GLP003","CL","107001647",NA,902,NA,NA,"CO","Clinical Observation","CLINICAL SIGNS",NA,NA,"NORMAL","NORMAL",NA,NA,NA,NA,NA,NA,NA,NA,19,"2007-07-02T12:01:20",19,NA,NA,NA,NA,NA
"GLP003","CL","107001647",NA,903,NA,NA,"CO","Clinical Observation","CLINICAL SIGNS",NA,NA,"NORMAL","NORMAL",NA,NA,NA,NA,NA,NA,NA,NA,20,"2007-07-03T09:51:41",20,NA,NA,NA,NA,NA
"GLP003","CL","107001647",NA,904,NA,NA,"CO","Clinical Observation","CLINICAL SIGNS",NA,NA,"NORMAL","NORMAL",NA,NA,NA,NA,NA,NA,NA,NA,21,"2007-07-04T13:23:50",21,NA,NA,NA,NA,NA
"GLP003","CL","107001647",NA,905,NA,NA,"CO","Clinical Observation","CLINICAL SIGNS",NA,NA,"NORMAL","NORMAL",NA,NA,NA,NA,NA,NA,NA,NA,22,"2007-07-05T13:57:15",22,NA,NA,NA,NA,NA
"GLP003","CL","107001647",NA,906,NA,NA,"CO","Clinical Observation","CLINICAL SIGNS",NA,NA,"NORMAL","NORMAL",NA,NA,NA,NA,NA,NA,NA,NA,23,"2007-07-06T10:59:45",23,NA,NA,NA,NA,NA
"GLP003","CL","107001647",NA,907,NA,NA,"CO","Clinical Observation","CLINICAL SIGNS",NA,NA,"NORMAL","NORMAL",NA,NA,NA,NA,NA,NA,NA,NA,24,"2007-07-07T13:10:33",24,NA,NA,NA,NA,NA
"GLP003","CL","107001647",NA,908,NA,NA,"CO","Clinical Observation","CLINICAL SIGNS",NA,NA,"NORMAL","NORMAL",NA,NA,NA,NA,NA,NA,NA,NA,25,"2007-07-08T13:25:57",25,NA,NA,NA,NA,NA
"GLP003","CL","107001647",NA,909,NA,NA,"CO","Clinical Observation","CLINICAL SIGNS",NA,NA,"NORMAL","NORMAL",NA,NA,NA,NA,NA,NA,NA,NA,26,"2007-07-09T08:49:32",26,NA,NA,NA,NA,NA
"GLP003","CL","107001647",NA,910,NA,NA,"CO","Clinical Observation","CLINICAL SIGNS",NA,NA,"NORMAL","NORMAL",NA,NA,NA,NA,NA,NA,NA,NA,27,"2007-07-10T12:38:03",27,NA,NA,NA,NA,NA
"GLP003","CL","107001647",NA,911,NA,NA,"CO","Clinical Observation","CLINICAL SIGNS",NA,NA,"NORMAL","NORMAL",NA,NA,NA,NA,NA,NA,NA,NA,28,"2007-07-11T13:38:53",28,NA,NA,NA,NA,NA
"GLP003","CL","107001647",NA,912,NA,NA,"CO","Clinical Observation","CLINICAL SIGNS",NA,NA,"NORMAL","NORMAL",NA,NA,NA,NA,NA,NA,NA,NA,29,"2007-07-12T12:51:59",29,NA,NA,NA,NA,NA
"GLP003","CL","107001647",NA,913,NA,NA,"CO","Clinical Observation","CLINICAL SIGNS",NA,NA,"Feces, unformed","Feces, unformed",NA,NA,NA,NA,NA,NA,NA,NA,2,"2007-06-15T07:09:00",2,NA,NA,NA,NA,NA
"GLP003","CL","107001647",NA,914,NA,NA,"CO","Clinical Observation","CLINICAL SIGNS",NA,NA,"End-of-Dose Necropsy","End-of-Dose Necropsy",NA,NA,NA,NA,NA,NA,NA,NA,30,"2007-07-13T10:34:22",30,NA,NA,NA,NA,NA
"GLP003","CL","107001647",NA,915,NA,NA,"EOBS","Ophthalmologic Examinations","OPHTHALMOLOGY",NA,NA,"NORMAL","NORMAL",NA,NA,NA,NA,NA,NA,NA,NA,-7,"2007-06-07T15:34:11",-7,NA,NA,NA,NA,NA
"GLP003","CL","107001647",NA,916,NA,NA,"EOBS","Ophthalmologic Examinations","OPHTHALMOLOGY",NA,NA,"NORMAL","NORMAL",NA,NA,NA,NA,NA,NA,NA,NA,22,"2007-07-05T11:07:10",22,NA,NA,NA,NA,NA
"GLP003","CL","107001647",NA,917,NA,NA,"VOBS","Veterinary Examinations","PHYSICAL EXAM",NA,NA,"NORMAL","NORMAL",NA,NA,NA,NA,NA,NA,NA,NA,-7,"2007-06-07T08:15:15",-7,NA,NA,NA,NA,NA
"GLP003","CL","107001647",NA,918,NA,NA,"VOBS","Veterinary Examinations","PHYSICAL EXAM",NA,NA,"NORMAL","NORMAL",NA,NA,NA,NA,NA,NA,NA,NA,22,"2007-07-05T11:49:48",22,NA,NA,NA,NA,NA
"GLP003","CL","107001592",NA,919,NA,NA,"CO","Clinical Observation","CLINICAL SIGNS",NA,NA,"NORMAL","NORMAL",NA,NA,NA,NA,NA,NA,NA,NA,1,"2007-06-14T15:44:49",1,NA,NA,NA,NA,NA
"GLP003","CL","107001592",NA,920,NA,NA,"CO","Clinical Observation","CLINICAL SIGNS",NA,NA,"NORMAL","NORMAL",NA,NA,NA,NA,NA,NA,NA,NA,2,"2007-06-15T15:06:13",2,NA,NA,NA,NA,NA
"GLP003","CL","107001592",NA,921,NA,NA,"CO","Clinical Observation","CLINICAL SIGNS",NA,NA,"NORMAL","NORMAL",NA,NA,NA,NA,NA,NA,NA,NA,3,"2007-06-16T15:03:29",3,NA,NA,NA,NA,NA
"GLP003","CL","107001592",NA,922,NA,NA,"CO","Clinical Observation","CLINICAL SIGNS",NA,NA,"NORMAL","NORMAL",NA,NA,NA,NA,NA,NA,NA,NA,4,"2007-06-17T10:51:49",4,NA,NA,NA,NA,NA
"GLP003","CL","107001592",NA,923,NA,NA,"CO","Clinical Observation","CLINICAL SIGNS",NA,NA,"NORMAL","NORMAL",NA,NA,NA,NA,NA,NA,NA,NA,5,"2007-06-18T10:27:43",5,NA,NA,NA,NA,NA
"GLP003","CL","107001592",NA,924,NA,NA,"CO","Clinical Observation","CLINICAL SIGNS",NA,NA,"NORMAL","NORMAL",NA,NA,NA,NA,NA,NA,NA,NA,6,"2007-06-19T15:27:43",6,NA,NA,NA,NA,NA
"GLP003","CL","107001592",NA,925,NA,NA,"CO","Clinical Observation","CLINICAL SIGNS",NA,NA,"NORMAL","NORMAL",NA,NA,NA,NA,NA,NA,NA,NA,7,"2007-06-20T11:42:31",7,NA,NA,NA,NA,NA
"GLP003","CL","107001592",NA,926,NA,NA,"CO","Clinical Observation","CLINICAL SIGNS",NA,NA,"NORMAL","NORMAL",NA,NA,NA,NA,NA,NA,NA,NA,8,"2007-06-21T11:10:28",8,NA,NA,NA,NA,NA
"GLP003","CL","107001592",NA,927,NA,NA,"CO","Clinical Observation","CLINICAL SIGNS",NA,NA,"NORMAL","NORMAL",NA,NA,NA,NA,NA,NA,NA,NA,9,"2007-06-22T12:00:05",9,NA,NA,NA,NA,NA
"GLP003","CL","107001592",NA,928,NA,NA,"CO","Clinical Observation","CLINICAL SIGNS",NA,NA,"NORMAL","NORMAL",NA,NA,NA,NA,NA,NA,NA,NA,10,"2007-06-23T15:48:57",10,NA,NA,NA,NA,NA
"GLP003","CL","107001592",NA,929,NA,NA,"CO","Clinical Observation","CLINICAL SIGNS",NA,NA,"NORMAL","NORMAL",NA,NA,NA,NA,NA,NA,NA,NA,11,"2007-06-24T14:34:01",11,NA,NA,NA,NA,NA
"GLP003","CL","107001592",NA,930,NA,NA,"CO","Clinical Observation","CLINICAL SIGNS",NA,NA,"NORMAL","NORMAL",NA,NA,NA,NA,NA,NA,NA,NA,12,"2007-06-25T14:12:30",12,NA,NA,NA,NA,NA
"GLP003","CL","107001592",NA,931,NA,NA,"CO","Clinical Observation","CLINICAL SIGNS",NA,NA,"NORMAL","NORMAL",NA,NA,NA,NA,NA,NA,NA,NA,13,"2007-06-26T13:10:47",13,NA,NA,NA,NA,NA
"GLP003","CL","107001592",NA,932,NA,NA,"CO","Clinical Observation","CLINICAL SIGNS",NA,NA,"NORMAL","NORMAL",NA,NA,NA,NA,NA,NA,NA,NA,14,"2007-06-27T11:27:44",14,NA,NA,NA,NA,NA
"GLP003","CL","107001592",NA,933,NA,NA,"CO","Clinical Observation","CLINICAL SIGNS",NA,NA,"NORMAL","NORMAL",NA,NA,NA,NA,NA,NA,NA,NA,15,"2007-06-28T13:59:30",15,NA,NA,NA,NA,NA
"GLP003","CL","107001592",NA,934,NA,NA,"CO","Clinical Observation","CLINICAL SIGNS",NA,NA,"NORMAL","NORMAL",NA,NA,NA,NA,NA,NA,NA,NA,16,"2007-06-29T13:46:42",16,NA,NA,NA,NA,NA
"GLP003","CL","107001592",NA,935,NA,NA,"CO","Clinical Observation","CLINICAL SIGNS",NA,NA,"NORMAL","NORMAL",NA,NA,NA,NA,NA,NA,NA,NA,17,"2007-06-30T13:55:03",17,NA,NA,NA,NA,NA
"GLP003","CL","107001592",NA,936,NA,NA,"CO","Clinical Observation","CLINICAL SIGNS",NA,NA,"NORMAL","NORMAL",NA,NA,NA,NA,NA,NA,NA,NA,18,"2007-07-01T11:45:32",18,NA,NA,NA,NA,NA
"GLP003","CL","107001592",NA,937,NA,NA,"CO","Clinical Observation","CLINICAL SIGNS",NA,NA,"NORMAL","NORMAL",NA,NA,NA,NA,NA,NA,NA,NA,19,"2007-07-02T12:01:21",19,NA,NA,NA,NA,NA
"GLP003","CL","107001592",NA,938,NA,NA,"CO","Clinical Observation","CLINICAL SIGNS",NA,NA,"NORMAL","NORMAL",NA,NA,NA,NA,NA,NA,NA,NA,20,"2007-07-03T09:51:43",20,NA,NA,NA,NA,NA
"GLP003","CL","107001592",NA,939,NA,NA,"CO","Clinical Observation","CLINICAL SIGNS",NA,NA,"NORMAL","NORMAL",NA,NA,NA,NA,NA,NA,NA,NA,21,"2007-07-04T13:23:51",21,NA,NA,NA,NA,NA
"GLP003","CL","107001592",NA,940,NA,NA,"CO","Clinical Observation","CLINICAL SIGNS",NA,NA,"NORMAL","NORMAL",NA,NA,NA,NA,NA,NA,NA,NA,22,"2007-07-05T13:57:16",22,NA,NA,NA,NA,NA
"GLP003","CL","107001592",NA,941,NA,NA,"CO","Clinical Observation","CLINICAL SIGNS",NA,NA,"NORMAL","NORMAL",NA,NA,NA,NA,NA,NA,NA,NA,23,"2007-07-06T10:59:46",23,NA,NA,NA,NA,NA
"GLP003","CL","107001592",NA,942,NA,NA,"CO","Clinical Observation","CLINICAL SIGNS",NA,NA,"NORMAL","NORMAL",NA,NA,NA,NA,NA,NA,NA,NA,24,"2007-07-07T13:11:12",24,NA,NA,NA,NA,NA
"GLP003","CL","107001592",NA,943,NA,NA,"CO","Clinical Observation","CLINICAL SIGNS",NA,NA,"NORMAL","NORMAL",NA,NA,NA,NA,NA,NA,NA,NA,25,"2007-07-08T13:25:59",25,NA,NA,NA,NA,NA
"GLP003","CL","107001592",NA,944,NA,NA,"CO","Clinical Observation","CLINICAL SIGNS",NA,NA,"NORMAL","NORMAL",NA,NA,NA,NA,NA,NA,NA,NA,26,"2007-07-09T08:49:34",26,NA,NA,NA,NA,NA
"GLP003","CL","107001592",NA,945,NA,NA,"CO","Clinical Observation","CLINICAL SIGNS",NA,NA,"NORMAL","NORMAL",NA,NA,NA,NA,NA,NA,NA,NA,27,"2007-07-10T12:38:04",27,NA,NA,NA,NA,NA
"GLP003","CL","107001592",NA,946,NA,NA,"CO","Clinical Observation","CLINICAL SIGNS",NA,NA,"NORMAL","NORMAL",NA,NA,NA,NA,NA,NA,NA,NA,28,"2007-07-11T13:38:55",28,NA,NA,NA,NA,NA
"GLP003","CL","107001592",NA,947,NA,NA,"CO","Clinical Observation","CLINICAL SIGNS",NA,NA,"NORMAL","NORMAL",NA,NA,NA,NA,NA,NA,NA,NA,29,"2007-07-12T12:52:05",29,NA,NA,NA,NA,NA
"GLP003","CL","107001592",NA,948,NA,NA,"CO","Clinical Observation","CLINICAL SIGNS",NA,NA,"Feces, unformed","Feces, unformed",NA,NA,NA,NA,NA,NA,NA,NA,2,"2007-06-15T07:09:00",2,NA,NA,NA,NA,NA
"GLP003","CL","107001592",NA,949,NA,NA,"CO","Clinical Observation","CLINICAL SIGNS",NA,NA,"Feces, unformed","Feces, unformed",NA,NA,NA,NA,NA,NA,NA,NA,6,"2007-06-19T07:28:00",6,NA,NA,NA,NA,NA
"GLP003","CL","107001592",NA,950,NA,NA,"CO","Clinical Observation","CLINICAL SIGNS",NA,NA,"End-of-Dose Necropsy","End-of-Dose Necropsy",NA,NA,NA,NA,NA,NA,NA,NA,30,"2007-07-13T10:34:28",30,NA,NA,NA,NA,NA
"GLP003","CL","107001592",NA,951,NA,NA,"EOBS","Ophthalmologic Examinations","OPHTHALMOLOGY",NA,NA,"NORMAL","NORMAL",NA,NA,NA,NA,NA,NA,NA,NA,-7,"2007-06-07T15:34:11",-7,NA,NA,NA,NA,NA
"GLP003","CL","107001592",NA,952,NA,NA,"EOBS","Ophthalmologic Examinations","OPHTHALMOLOGY",NA,NA,"NORMAL","NORMAL",NA,NA,NA,NA,NA,NA,NA,NA,22,"2007-07-05T11:07:10",22,NA,NA,NA,NA,NA
"GLP003","CL","107001592",NA,953,NA,NA,"VOBS","Veterinary Examinations","PHYSICAL EXAM",NA,NA,"NORMAL","NORMAL",NA,NA,NA,NA,NA,NA,NA,NA,-7,"2007-06-07T08:15:15",-7,NA,NA,NA,NA,NA
"GLP003","CL","107001592",NA,954,NA,NA,"VOBS","Veterinary Examinations","PHYSICAL EXAM",NA,NA,"NORMAL","NORMAL",NA,NA,NA,NA,NA,NA,NA,NA,22,"2007-07-05T11:49:48",22,NA,NA,NA,NA,NA
"GLP003","CL","107001569",NA,955,NA,NA,"CO","Clinical Observation","CLINICAL SIGNS",NA,NA,"NORMAL","NORMAL",NA,NA,NA,NA,NA,NA,NA,NA,1,"2007-06-14T15:44:51",1,NA,NA,NA,NA,NA
"GLP003","CL","107001569",NA,956,NA,NA,"CO","Clinical Observation","CLINICAL SIGNS",NA,NA,"NORMAL","NORMAL",NA,NA,NA,NA,NA,NA,NA,NA,2,"2007-06-15T15:06:16",2,NA,NA,NA,NA,NA
"GLP003","CL","107001569",NA,957,NA,NA,"CO","Clinical Observation","CLINICAL SIGNS",NA,NA,"NORMAL","NORMAL",NA,NA,NA,NA,NA,NA,NA,NA,3,"2007-06-16T15:03:31",3,NA,NA,NA,NA,NA
"GLP003","CL","107001569",NA,958,NA,NA,"CO","Clinical Observation","CLINICAL SIGNS",NA,NA,"NORMAL","NORMAL",NA,NA,NA,NA,NA,NA,NA,NA,4,"2007-06-17T10:51:50",4,NA,NA,NA,NA,NA
"GLP003","CL","107001569",NA,959,NA,NA,"CO","Clinical Observation","CLINICAL SIGNS",NA,NA,"NORMAL","NORMAL",NA,NA,NA,NA,NA,NA,NA,NA,5,"2007-06-18T10:27:44",5,NA,NA,NA,NA,NA
"GLP003","CL","107001569",NA,960,NA,NA,"CO","Clinical Observation","CLINICAL SIGNS",NA,NA,"NORMAL","NORMAL",NA,NA,NA,NA,NA,NA,NA,NA,6,"2007-06-19T15:27:46",6,NA,NA,NA,NA,NA
"GLP003","CL","107001569",NA,961,NA,NA,"CO","Clinical Observation","CLINICAL SIGNS",NA,NA,"NORMAL","NORMAL",NA,NA,NA,NA,NA,NA,NA,NA,7,"2007-06-20T11:42:33",7,NA,NA,NA,NA,NA
"GLP003","CL","107001569",NA,962,NA,NA,"CO","Clinical Observation","CLINICAL SIGNS",NA,NA,"NORMAL","NORMAL",NA,NA,NA,NA,NA,NA,NA,NA,8,"2007-06-21T11:10:30",8,NA,NA,NA,NA,NA
"GLP003","CL","107001569",NA,963,NA,NA,"CO","Clinical Observation","CLINICAL SIGNS",NA,NA,"NORMAL","NORMAL",NA,NA,NA,NA,NA,NA,NA,NA,9,"2007-06-22T12:00:25",9,NA,NA,NA,NA,NA
"GLP003","CL","107001569",NA,964,NA,NA,"CO","Clinical Observation","CLINICAL SIGNS",NA,NA,"NORMAL","NORMAL",NA,NA,NA,NA,NA,NA,NA,NA,10,"2007-06-23T15:49:27",10,NA,NA,NA,NA,NA
"GLP003","CL","107001569",NA,965,NA,NA,"CO","Clinical Observation","CLINICAL SIGNS",NA,NA,"NORMAL","NORMAL",NA,NA,NA,NA,NA,NA,NA,NA,11,"2007-06-24T14:34:02",11,NA,NA,NA,NA,NA
"GLP003","CL","107001569",NA,966,NA,NA,"CO","Clinical Observation","CLINICAL SIGNS",NA,NA,"NORMAL","NORMAL",NA,NA,NA,NA,NA,NA,NA,NA,12,"2007-06-25T14:12:31",12,NA,NA,NA,NA,NA
"GLP003","CL","107001569",NA,967,NA,NA,"CO","Clinical Observation","CLINICAL SIGNS",NA,NA,"NORMAL","NORMAL",NA,NA,NA,NA,NA,NA,NA,NA,13,"2007-06-26T13:10:48",13,NA,NA,NA,NA,NA
"GLP003","CL","107001569",NA,968,NA,NA,"CO","Clinical Observation","CLINICAL SIGNS",NA,NA,"NORMAL","NORMAL",NA,NA,NA,NA,NA,NA,NA,NA,14,"2007-06-27T11:27:45",14,NA,NA,NA,NA,NA
"GLP003","CL","107001569",NA,969,NA,NA,"CO","Clinical Observation","CLINICAL SIGNS",NA,NA,"NORMAL","NORMAL",NA,NA,NA,NA,NA,NA,NA,NA,15,"2007-06-28T13:59:31",15,NA,NA,NA,NA,NA
"GLP003","CL","107001569",NA,970,NA,NA,"CO","Clinical Observation","CLINICAL SIGNS",NA,NA,"NORMAL","NORMAL",NA,NA,NA,NA,NA,NA,NA,NA,16,"2007-06-29T13:46:44",16,NA,NA,NA,NA,NA
"GLP003","CL","107001569",NA,971,NA,NA,"CO","Clinical Observation","CLINICAL SIGNS",NA,NA,"NORMAL","NORMAL",NA,NA,NA,NA,NA,NA,NA,NA,17,"2007-06-30T13:55:04",17,NA,NA,NA,NA,NA
"GLP003","CL","107001569",NA,972,NA,NA,"CO","Clinical Observation","CLINICAL SIGNS",NA,NA,"NORMAL","NORMAL",NA,NA,NA,NA,NA,NA,NA,NA,18,"2007-07-01T11:45:33",18,NA,NA,NA,NA,NA
"GLP003","CL","107001569",NA,973,NA,NA,"CO","Clinical Observation","CLINICAL SIGNS",NA,NA,"NORMAL","NORMAL",NA,NA,NA,NA,NA,NA,NA,NA,19,"2007-07-02T12:01:23",19,NA,NA,NA,NA,NA
"GLP003","CL","107001569",NA,974,NA,NA,"CO","Clinical Observation","CLINICAL SIGNS",NA,NA,"NORMAL","NORMAL",NA,NA,NA,NA,NA,NA,NA,NA,20,"2007-07-03T09:51:44",20,NA,NA,NA,NA,NA
"GLP003","CL","107001569",NA,975,NA,NA,"CO","Clinical Observation","CLINICAL SIGNS",NA,NA,"NORMAL","NORMAL",NA,NA,NA,NA,NA,NA,NA,NA,21,"2007-07-04T13:23:52",21,NA,NA,NA,NA,NA
"GLP003","CL","107001569",NA,976,NA,NA,"CO","Clinical Observation","CLINICAL SIGNS",NA,NA,"NORMAL","NORMAL",NA,NA,NA,NA,NA,NA,NA,NA,22,"2007-07-05T13:57:18",22,NA,NA,NA,NA,NA
"GLP003","CL","107001569",NA,977,NA,NA,"CO","Clinical Observation","CLINICAL SIGNS",NA,NA,"NORMAL","NORMAL",NA,NA,NA,NA,NA,NA,NA,NA,23,"2007-07-06T10:59:48",23,NA,NA,NA,NA,NA
"GLP003","CL","107001569",NA,978,NA,NA,"CO","Clinical Observation","CLINICAL SIGNS",NA,NA,"NORMAL","NORMAL",NA,NA,NA,NA,NA,NA,NA,NA,24,"2007-07-07T13:11:14",24,NA,NA,NA,NA,NA
"GLP003","CL","107001569",NA,979,NA,NA,"CO","Clinical Observation","CLINICAL SIGNS",NA,NA,"NORMAL","NORMAL",NA,NA,NA,NA,NA,NA,NA,NA,25,"2007-07-08T13:26:00",25,NA,NA,NA,NA,NA
"GLP003","CL","107001569",NA,980,NA,NA,"CO","Clinical Observation","CLINICAL SIGNS",NA,NA,"NORMAL","NORMAL",NA,NA,NA,NA,NA,NA,NA,NA,26,"2007-07-09T08:49:35",26,NA,NA,NA,NA,NA
"GLP003","CL","107001569",NA,981,NA,NA,"CO","Clinical Observation","CLINICAL SIGNS",NA,NA,"NORMAL","NORMAL",NA,NA,NA,NA,NA,NA,NA,NA,27,"2007-07-10T12:38:05",27,NA,NA,NA,NA,NA
"GLP003","CL","107001569",NA,982,NA,NA,"CO","Clinical Observation","CLINICAL SIGNS",NA,NA,"NORMAL","NORMAL",NA,NA,NA,NA,NA,NA,NA,NA,28,"2007-07-11T13:38:56",28,NA,NA,NA,NA,NA
"GLP003","CL","107001569",NA,983,NA,NA,"CO","Clinical Observation","CLINICAL SIGNS",NA,NA,"NORMAL","NORMAL",NA,NA,NA,NA,NA,NA,NA,NA,29,"2007-07-12T12:52:07",29,NA,NA,NA,NA,NA
"GLP003","CL","107001569",NA,984,NA,NA,"CO","Clinical Observation","CLINICAL SIGNS",NA,NA,"Feces, unformed","Feces, unformed",NA,NA,NA,NA,NA,NA,NA,NA,2,"2007-06-15T07:09:00",2,NA,NA,NA,NA,NA
"GLP003","CL","107001569",NA,985,NA,NA,"CO","Clinical Observation","CLINICAL SIGNS",NA,NA,"Feces, unformed","Feces, unformed",NA,NA,NA,NA,NA,NA,NA,NA,27,"2007-07-10T06:12:00",27,NA,NA,NA,NA,NA
"GLP003","CL","107001569",NA,986,NA,NA,"CO","Clinical Observation","CLINICAL SIGNS",NA,NA,"Feces, unformed","Feces, unformed",NA,NA,NA,NA,NA,NA,NA,NA,29,"2007-07-12T06:20:00",29,NA,NA,NA,NA,NA
"GLP003","CL","107001569",NA,987,NA,NA,"CO","Clinical Observation","CLINICAL SIGNS",NA,NA,"End-of-Dose Necropsy","End-of-Dose Necropsy",NA,NA,NA,NA,NA,NA,NA,NA,30,"2007-07-13T10:34:33",30,NA,NA,NA,NA,NA
"GLP003","CL","107001569",NA,988,NA,NA,"EOBS","Ophthalmologic Examinations","OPHTHALMOLOGY",NA,NA,"NORMAL","NORMAL",NA,NA,NA,NA,NA,NA,NA,NA,-7,"2007-06-07T15:34:11",-7,NA,NA,NA,NA,NA
"GLP003","CL","107001569",NA,989,NA,NA,"EOBS","Ophthalmologic Examinations","OPHTHALMOLOGY",NA,NA,"NORMAL","NORMAL",NA,NA,NA,NA,NA,NA,NA,NA,22,"2007-07-05T11:07:10",22,NA,NA,NA,NA,NA
"GLP003","CL","107001569",NA,990,NA,NA,"VOBS","Veterinary Examinations","PHYSICAL EXAM",NA,NA,"NORMAL","NORMAL",NA,NA,NA,NA,NA,NA,NA,NA,-7,"2007-06-07T08:15:15",-7,NA,NA,NA,NA,NA
"GLP003","CL","107001569",NA,991,NA,NA,"VOBS","Veterinary Examinations","PHYSICAL EXAM",NA,NA,"NORMAL","NORMAL",NA,NA,NA,NA,NA,NA,NA,NA,22,"2007-07-05T11:49:48",22,NA,NA,NA,NA,NA
"GLP003","CL","107001537",NA,992,NA,NA,"CO","Clinical Observation","CLINICAL SIGNS",NA,NA,"NORMAL","NORMAL",NA,NA,NA,NA,NA,NA,NA,NA,1,"2007-06-14T15:44:52",1,NA,NA,NA,NA,NA
"GLP003","CL","107001537",NA,993,NA,NA,"CO","Clinical Observation","CLINICAL SIGNS",NA,NA,"NORMAL","NORMAL",NA,NA,NA,NA,NA,NA,NA,NA,2,"2007-06-15T15:20:08",2,NA,NA,NA,NA,NA
"GLP003","CL","107001537",NA,994,NA,NA,"CO","Clinical Observation","CLINICAL SIGNS",NA,NA,"NORMAL","NORMAL",NA,NA,NA,NA,NA,NA,NA,NA,3,"2007-06-16T15:03:32",3,NA,NA,NA,NA,NA
"GLP003","CL","107001537",NA,995,NA,NA,"CO","Clinical Observation","CLINICAL SIGNS",NA,NA,"NORMAL","NORMAL",NA,NA,NA,NA,NA,NA,NA,NA,4,"2007-06-17T10:52:07",4,NA,NA,NA,NA,NA
"GLP003","CL","107001537",NA,996,NA,NA,"CO","Clinical Observation","CLINICAL SIGNS",NA,NA,"NORMAL","NORMAL",NA,NA,NA,NA,NA,NA,NA,NA,5,"2007-06-18T10:27:45",5,NA,NA,NA,NA,NA
"GLP003","CL","107001537",NA,997,NA,NA,"CO","Clinical Observation","CLINICAL SIGNS",NA,NA,"NORMAL","NORMAL",NA,NA,NA,NA,NA,NA,NA,NA,6,"2007-06-19T15:27:48",6,NA,NA,NA,NA,NA
"GLP003","CL","107001537",NA,998,NA,NA,"VOBS","Veterinary Examinations","PHYSICAL EXAM",NA,NA,"Discoloration, Head, Red","Discoloration",NA,NA,NA,"Head",NA,NA,NA,NA,22,"2007-07-05T11:21:08",22,NA,NA,NA,NA,NA
"GLP003","CL","107001537",NA,999,NA,NA,"VOBS","Veterinary Examinations","PHYSICAL EXAM",NA,NA,"Haircoat, abnormal, Head","Haircoat, abnormal",NA,NA,NA,"Head",NA,NA,NA,NA,22,"2007-07-05T11:21:08",22,NA,NA,NA,NA,NA
"GLP003","CL","107001537",NA,1000,NA,NA,"VOBS","Veterinary Examinations","PHYSICAL EXAM",NA,NA,"Discoloration, Ears, both, Red","Discoloration",NA,NA,NA,"Ears, both",NA,NA,NA,NA,22,"2007-07-05T11:21:08",22,NA,NA,NA,NA,NA
"GLP003","CL","107001537",NA,1001,NA,NA,"CO","Clinical Observation","CLINICAL SIGNS",NA,NA,"Feces, unformed","Feces, unformed",NA,NA,NA,NA,NA,NA,NA,NA,2,"2007-06-15T07:09:00",2,NA,NA,NA,NA,NA
"GLP003","CL","107001537",NA,1002,NA,NA,"CO","Clinical Observation","CLINICAL SIGNS",NA,NA,"Haircoat, abnormal, Head","Haircoat, abnormal",NA,NA,NA,"Head",NA,NA,NA,NA,7,"2007-06-20T11:45:03",7,NA,NA,NA,NA,NA
"GLP003","CL","107001537",NA,1003,NA,NA,"CO","Clinical Observation","CLINICAL SIGNS",NA,NA,"Feces, unformed","Feces, unformed",NA,NA,NA,NA,NA,NA,NA,NA,8,"2007-06-21T07:35:00",8,NA,NA,NA,NA,NA
"GLP003","CL","107001537",NA,1004,NA,NA,"CO","Clinical Observation","CLINICAL SIGNS",NA,NA,"Haircoat, abnormal, Head","Haircoat, abnormal",NA,NA,NA,"Head",NA,NA,NA,NA,8,"2007-06-21T11:10:37",8,NA,NA,NA,NA,NA
"GLP003","CL","107001537",NA,1005,NA,NA,"CO","Clinical Observation","CLINICAL SIGNS",NA,NA,"Discoloration, Ears, both, Red","Discoloration",NA,NA,NA,"Ears, both",NA,NA,NA,NA,9,"2007-06-22T12:01:08",9,NA,NA,NA,NA,NA
"GLP003","CL","107001537",NA,1006,NA,NA,"CO","Clinical Observation","CLINICAL SIGNS",NA,NA,"Haircoat, abnormal, Head","Haircoat, abnormal",NA,NA,NA,"Head",NA,NA,NA,NA,9,"2007-06-22T12:01:08",9,NA,NA,NA,NA,NA
"GLP003","CL","107001537",NA,1007,NA,NA,"CO","Clinical Observation","CLINICAL SIGNS",NA,NA,"Discoloration, Ears, both, Red","Discoloration",NA,NA,NA,"Ears, both",NA,NA,NA,NA,10,"2007-06-23T15:50:16",10,NA,NA,NA,NA,NA
"GLP003","CL","107001537",NA,1008,NA,NA,"CO","Clinical Observation","CLINICAL SIGNS",NA,NA,"Haircoat, abnormal, Head","Haircoat, abnormal",NA,NA,NA,"Head",NA,NA,NA,NA,10,"2007-06-23T15:50:16",10,NA,NA,NA,NA,NA
"GLP003","CL","107001537",NA,1009,NA,NA,"CO","Clinical Observation","CLINICAL SIGNS",NA,NA,"Haircoat, abnormal, Head","Haircoat, abnormal",NA,NA,NA,"Head",NA,NA,NA,NA,11,"2007-06-24T14:34:39",11,NA,NA,NA,NA,NA
"GLP003","CL","107001537",NA,1010,NA,NA,"CO","Clinical Observation","CLINICAL SIGNS",NA,NA,"Discoloration, Ears, both, Red","Discoloration",NA,NA,NA,"Ears, both",NA,NA,NA,NA,11,"2007-06-24T14:34:39",11,NA,NA,NA,NA,NA
"GLP003","CL","107001537",NA,1011,NA,NA,"CO","Clinical Observation","CLINICAL SIGNS",NA,NA,"Discoloration, Ears, both, Red","Discoloration",NA,NA,NA,"Ears, both",NA,NA,NA,NA,12,"2007-06-25T14:12:43",12,NA,NA,NA,NA,NA
"GLP003","CL","107001537",NA,1012,NA,NA,"CO","Clinical Observation","CLINICAL SIGNS",NA,NA,"Haircoat, abnormal, Head","Haircoat, abnormal",NA,NA,NA,"Head",NA,NA,NA,NA,12,"2007-06-25T14:12:43",12,NA,NA,NA,NA,NA
"GLP003","CL","107001537",NA,1013,NA,NA,"CO","Clinical Observation","CLINICAL SIGNS",NA,NA,"Feces, unformed","Feces, unformed",NA,NA,NA,NA,NA,NA,NA,NA,13,"2007-06-26T07:06:00",13,NA,NA,NA,NA,NA
"GLP003","CL","107001537",NA,1014,NA,NA,"CO","Clinical Observation","CLINICAL SIGNS",NA,NA,"Discoloration, Ears, both, Red","Discoloration",NA,NA,NA,"Ears, both",NA,NA,NA,NA,13,"2007-06-26T13:11:04",13,NA,NA,NA,NA,NA
"GLP003","CL","107001537",NA,1015,NA,NA,"CO","Clinical Observation","CLINICAL SIGNS",NA,NA,"Haircoat, abnormal, Head","Haircoat, abnormal",NA,NA,NA,"Head",NA,NA,NA,NA,13,"2007-06-26T13:11:04",13,NA,NA,NA,NA,NA
"GLP003","CL","107001537",NA,1016,NA,NA,"CO","Clinical Observation","CLINICAL SIGNS",NA,NA,"Haircoat, abnormal, Head","Haircoat, abnormal",NA,NA,NA,"Head",NA,NA,NA,NA,14,"2007-06-27T11:27:54",14,NA,NA,NA,NA,NA
"GLP003","CL","107001537",NA,1017,NA,NA,"CO","Clinical Observation","CLINICAL SIGNS",NA,NA,"Discoloration, Ears, both, Red","Discoloration",NA,NA,NA,"Ears, both",NA,NA,NA,NA,14,"2007-06-27T11:27:54",14,NA,NA,NA,NA,NA
"GLP003","CL","107001537",NA,1018,NA,NA,"CO","Clinical Observation","CLINICAL SIGNS",NA,NA,"Discoloration, Ears, both, Red","Discoloration",NA,NA,NA,"Ears, both",NA,NA,NA,NA,15,"2007-06-28T13:59:41",15,NA,NA,NA,NA,NA
"GLP003","CL","107001537",NA,1019,NA,NA,"CO","Clinical Observation","CLINICAL SIGNS",NA,NA,"Haircoat, abnormal, Head","Haircoat, abnormal",NA,NA,NA,"Head",NA,NA,NA,NA,15,"2007-06-28T13:59:41",15,NA,NA,NA,NA,NA
"GLP003","CL","107001537",NA,1020,NA,NA,"CO","Clinical Observation","CLINICAL SIGNS",NA,NA,"Haircoat, abnormal, Head","Haircoat, abnormal",NA,NA,NA,"Head",NA,NA,NA,NA,16,"2007-06-29T13:47:09",16,NA,NA,NA,NA,NA
"GLP003","CL","107001537",NA,1021,NA,NA,"CO","Clinical Observation","CLINICAL SIGNS",NA,NA,"Discoloration, Ears, both, Red","Discoloration",NA,NA,NA,"Ears, both",NA,NA,NA,NA,16,"2007-06-29T13:47:09",16,NA,NA,NA,NA,NA
"GLP003","CL","107001537",NA,1022,NA,NA,"CO","Clinical Observation","CLINICAL SIGNS",NA,NA,"Discoloration, Ears, both, Red","Discoloration",NA,NA,NA,"Ears, both",NA,NA,NA,NA,17,"2007-06-30T13:55:38",17,NA,NA,NA,NA,NA
"GLP003","CL","107001537",NA,1023,NA,NA,"CO","Clinical Observation","CLINICAL SIGNS",NA,NA,"Haircoat, abnormal, Head","Haircoat, abnormal",NA,NA,NA,"Head",NA,NA,NA,NA,17,"2007-06-30T13:55:38",17,NA,NA,NA,NA,NA
"GLP003","CL","107001537",NA,1024,NA,NA,"CO","Clinical Observation","CLINICAL SIGNS",NA,NA,"Discoloration, Ears, both, Red","Discoloration",NA,NA,NA,"Ears, both",NA,NA,NA,NA,18,"2007-07-01T11:46:22",18,NA,NA,NA,NA,NA
"GLP003","CL","107001537",NA,1025,NA,NA,"CO","Clinical Observation","CLINICAL SIGNS",NA,NA,"Haircoat, abnormal, Head","Haircoat, abnormal",NA,NA,NA,"Head",NA,NA,NA,NA,18,"2007-07-01T11:46:22",18,NA,NA,NA,NA,NA
"GLP003","CL","107001537",NA,1026,NA,NA,"CO","Clinical Observation","CLINICAL SIGNS",NA,NA,"Haircoat, abnormal, Head","Haircoat, abnormal",NA,NA,NA,"Head",NA,NA,NA,NA,19,"2007-07-02T12:01:31",19,NA,NA,NA,NA,NA
"GLP003","CL","107001537",NA,1027,NA,NA,"CO","Clinical Observation","CLINICAL SIGNS",NA,NA,"Discoloration, Ears, both, Red","Discoloration",NA,NA,NA,"Ears, both",NA,NA,NA,NA,19,"2007-07-02T12:01:31",19,NA,NA,NA,NA,NA
"GLP003","CL","107001537",NA,1028,NA,NA,"CO","Clinical Observation","CLINICAL SIGNS",NA,NA,"Discoloration, Ears, both, Red","Discoloration",NA,NA,NA,"Ears, both",NA,NA,NA,NA,20,"2007-07-03T09:51:54",20,NA,NA,NA,NA,NA
"GLP003","CL","107001537",NA,1029,NA,NA,"CO","Clinical Observation","CLINICAL SIGNS",NA,NA,"Haircoat, abnormal, Head","Haircoat, abnormal",NA,NA,NA,"Head",NA,NA,NA,NA,20,"2007-07-03T09:51:54",20,NA,NA,NA,NA,NA
"GLP003","CL","107001537",NA,1030,NA,NA,"CO","Clinical Observation","CLINICAL SIGNS",NA,NA,"Discoloration, Ears, both, Red","Discoloration",NA,NA,NA,"Ears, both",NA,NA,NA,NA,21,"2007-07-04T13:24:01",21,NA,NA,NA,NA,NA
"GLP003","CL","107001537",NA,1031,NA,NA,"CO","Clinical Observation","CLINICAL SIGNS",NA,NA,"Haircoat, abnormal, Head","Haircoat, abnormal",NA,NA,NA,"Head",NA,NA,NA,NA,21,"2007-07-04T13:24:01",21,NA,NA,NA,NA,NA
"GLP003","CL","107001537",NA,1032,NA,NA,"CO","Clinical Observation","CLINICAL SIGNS",NA,NA,"Haircoat, abnormal, Head","Haircoat, abnormal",NA,NA,NA,"Head",NA,NA,NA,NA,22,"2007-07-05T13:57:52",22,NA,NA,NA,NA,NA
"GLP003","CL","107001537",NA,1033,NA,NA,"CO","Clinical Observation","CLINICAL SIGNS",NA,NA,"Discoloration, Ears, both, Red","Discoloration",NA,NA,NA,"Ears, both",NA,NA,NA,NA,22,"2007-07-05T13:57:52",22,NA,NA,NA,NA,NA
"GLP003","CL","107001537",NA,1034,NA,NA,"CO","Clinical Observation","CLINICAL SIGNS",NA,NA,"Haircoat, abnormal, Head","Haircoat, abnormal",NA,NA,NA,"Head",NA,NA,NA,NA,23,"2007-07-06T10:59:56",23,NA,NA,NA,NA,NA
"GLP003","CL","107001537",NA,1035,NA,NA,"CO","Clinical Observation","CLINICAL SIGNS",NA,NA,"Discoloration, Ears, both, Red","Discoloration",NA,NA,NA,"Ears, both",NA,NA,NA,NA,23,"2007-07-06T10:59:56",23,NA,NA,NA,NA,NA
"GLP003","CL","107001537",NA,1036,NA,NA,"CO","Clinical Observation","CLINICAL SIGNS",NA,NA,"Discoloration, Ears, both, Red","Discoloration",NA,NA,NA,"Ears, both",NA,NA,NA,NA,24,"2007-07-07T13:11:24",24,NA,NA,NA,NA,NA
"GLP003","CL","107001537",NA,1037,NA,NA,"CO","Clinical Observation","CLINICAL SIGNS",NA,NA,"Haircoat, abnormal, Head","Haircoat, abnormal",NA,NA,NA,"Head",NA,NA,NA,NA,24,"2007-07-07T13:11:24",24,NA,NA,NA,NA,NA
"GLP003","CL","107001537",NA,1038,NA,NA,"CO","Clinical Observation","CLINICAL SIGNS",NA,NA,"Haircoat, abnormal, Head","Haircoat, abnormal",NA,NA,NA,"Head",NA,NA,NA,NA,25,"2007-07-08T13:26:07",25,NA,NA,NA,NA,NA
"GLP003","CL","107001537",NA,1039,NA,NA,"CO","Clinical Observation","CLINICAL SIGNS",NA,NA,"Discoloration, Ears, both, Red","Discoloration",NA,NA,NA,"Ears, both",NA,NA,NA,NA,25,"2007-07-08T13:26:07",25,NA,NA,NA,NA,NA
"GLP003","CL","107001537",NA,1040,NA,NA,"CO","Clinical Observation","CLINICAL SIGNS",NA,NA,"Discoloration, Ears, both, Red","Discoloration",NA,NA,NA,"Ears, both",NA,NA,NA,NA,26,"2007-07-09T08:49:48",26,NA,NA,NA,NA,NA
"GLP003","CL","107001537",NA,1041,NA,NA,"CO","Clinical Observation","CLINICAL SIGNS",NA,NA,"Haircoat, abnormal, Head","Haircoat, abnormal",NA,NA,NA,"Head",NA,NA,NA,NA,26,"2007-07-09T08:49:48",26,NA,NA,NA,NA,NA
"GLP003","CL","107001537",NA,1042,NA,NA,"CO","Clinical Observation","CLINICAL SIGNS",NA,NA,"Discoloration, Ears, both, Red","Discoloration",NA,NA,NA,"Ears, both",NA,NA,NA,NA,27,"2007-07-10T12:38:11",27,NA,NA,NA,NA,NA
"GLP003","CL","107001537",NA,1043,NA,NA,"CO","Clinical Observation","CLINICAL SIGNS",NA,NA,"Haircoat, abnormal, Head","Haircoat, abnormal",NA,NA,NA,"Head",NA,NA,NA,NA,27,"2007-07-10T12:38:11",27,NA,NA,NA,NA,NA
"GLP003","CL","107001537",NA,1044,NA,NA,"CO","Clinical Observation","CLINICAL SIGNS",NA,NA,"Discoloration, Ears, both, Red","Discoloration",NA,NA,NA,"Ears, both",NA,NA,NA,NA,28,"2007-07-11T13:39:04",28,NA,NA,NA,NA,NA
"GLP003","CL","107001537",NA,1045,NA,NA,"CO","Clinical Observation","CLINICAL SIGNS",NA,NA,"Haircoat, abnormal, Head","Haircoat, abnormal",NA,NA,NA,"Head",NA,NA,NA,NA,28,"2007-07-11T13:39:04",28,NA,NA,NA,NA,NA
"GLP003","CL","107001537",NA,1046,NA,NA,"CO","Clinical Observation","CLINICAL SIGNS",NA,NA,"Feces, unformed","Feces, unformed",NA,NA,NA,NA,NA,NA,NA,NA,29,"2007-07-12T06:20:00",29,NA,NA,NA,NA,NA
"GLP003","CL","107001537",NA,1047,NA,NA,"CO","Clinical Observation","CLINICAL SIGNS",NA,NA,"Discoloration, Ears, both, Red","Discoloration",NA,NA,NA,"Ears, both",NA,NA,NA,NA,29,"2007-07-12T12:52:14",29,NA,NA,NA,NA,NA
"GLP003","CL","107001537",NA,1048,NA,NA,"CO","Clinical Observation","CLINICAL SIGNS",NA,NA,"Haircoat, abnormal, Head","Haircoat, abnormal",NA,NA,NA,"Head",NA,NA,NA,NA,29,"2007-07-12T12:52:14",29,NA,NA,NA,NA,NA
"GLP003","CL","107001537",NA,1049,NA,NA,"CO","Clinical Observation","CLINICAL SIGNS",NA,NA,"End-of-Dose Necropsy","End-of-Dose Necropsy",NA,NA,NA,NA,NA,NA,NA,NA,30,"2007-07-13T10:34:45",30,NA,NA,NA,NA,NA
"GLP003","CL","107001537",NA,1050,NA,NA,"EOBS","Ophthalmologic Examinations","OPHTHALMOLOGY",NA,NA,"NORMAL","NORMAL",NA,NA,NA,NA,NA,NA,NA,NA,-7,"2007-06-07T15:34:11",-7,NA,NA,NA,NA,NA
"GLP003","CL","107001537",NA,1051,NA,NA,"EOBS","Ophthalmologic Examinations","OPHTHALMOLOGY",NA,NA,"NORMAL","NORMAL",NA,NA,NA,NA,NA,NA,NA,NA,22,"2007-07-05T11:07:10",22,NA,NA,NA,NA,NA
"GLP003","CL","107001537",NA,1052,NA,NA,"VOBS","Veterinary Examinations","PHYSICAL EXAM",NA,NA,"NORMAL","NORMAL",NA,NA,NA,NA,NA,NA,NA,NA,-7,"2007-06-07T08:15:15",-7,NA,NA,NA,NA,NA
"GLP003","CL","107001594",NA,1053,NA,NA,"CO","Clinical Observation","CLINICAL SIGNS",NA,NA,"NORMAL","NORMAL",NA,NA,NA,NA,NA,NA,NA,NA,1,"2007-06-14T15:44:54",1,NA,NA,NA,NA,NA
"GLP003","CL","107001594",NA,1054,NA,NA,"CO","Clinical Observation","CLINICAL SIGNS",NA,NA,"NORMAL","NORMAL",NA,NA,NA,NA,NA,NA,NA,NA,2,"2007-06-15T15:20:30",2,NA,NA,NA,NA,NA
"GLP003","CL","107001594",NA,1055,NA,NA,"CO","Clinical Observation","CLINICAL SIGNS",NA,NA,"NORMAL","NORMAL",NA,NA,NA,NA,NA,NA,NA,NA,3,"2007-06-16T15:04:04",3,NA,NA,NA,NA,NA
"GLP003","CL","107001594",NA,1056,NA,NA,"CO","Clinical Observation","CLINICAL SIGNS",NA,NA,"NORMAL","NORMAL",NA,NA,NA,NA,NA,NA,NA,NA,4,"2007-06-17T10:52:08",4,NA,NA,NA,NA,NA
"GLP003","CL","107001594",NA,1057,NA,NA,"CO","Clinical Observation","CLINICAL SIGNS",NA,NA,"NORMAL","NORMAL",NA,NA,NA,NA,NA,NA,NA,NA,5,"2007-06-18T10:27:47",5,NA,NA,NA,NA,NA
"GLP003","CL","107001594",NA,1058,NA,NA,"CO","Clinical Observation","CLINICAL SIGNS",NA,NA,"NORMAL","NORMAL",NA,NA,NA,NA,NA,NA,NA,NA,6,"2007-06-19T15:27:50",6,NA,NA,NA,NA,NA
"GLP003","CL","107001594",NA,1059,NA,NA,"CO","Clinical Observation","CLINICAL SIGNS",NA,NA,"NORMAL","NORMAL",NA,NA,NA,NA,NA,NA,NA,NA,7,"2007-06-20T11:45:05",7,NA,NA,NA,NA,NA
"GLP003","CL","107001594",NA,1060,NA,NA,"CO","Clinical Observation","CLINICAL SIGNS",NA,NA,"NORMAL","NORMAL",NA,NA,NA,NA,NA,NA,NA,NA,8,"2007-06-21T11:10:39",8,NA,NA,NA,NA,NA
"GLP003","CL","107001594",NA,1061,NA,NA,"CO","Clinical Observation","CLINICAL SIGNS",NA,NA,"NORMAL","NORMAL",NA,NA,NA,NA,NA,NA,NA,NA,9,"2007-06-22T12:01:35",9,NA,NA,NA,NA,NA
"GLP003","CL","107001594",NA,1062,NA,NA,"CO","Clinical Observation","CLINICAL SIGNS",NA,NA,"NORMAL","NORMAL",NA,NA,NA,NA,NA,NA,NA,NA,10,"2007-06-23T15:50:26",10,NA,NA,NA,NA,NA
"GLP003","CL","107001594",NA,1063,NA,NA,"CO","Clinical Observation","CLINICAL SIGNS",NA,NA,"NORMAL","NORMAL",NA,NA,NA,NA,NA,NA,NA,NA,11,"2007-06-24T14:34:40",11,NA,NA,NA,NA,NA
"GLP003","CL","107001594",NA,1064,NA,NA,"CO","Clinical Observation","CLINICAL SIGNS",NA,NA,"NORMAL","NORMAL",NA,NA,NA,NA,NA,NA,NA,NA,12,"2007-06-25T14:12:47",12,NA,NA,NA,NA,NA
"GLP003","CL","107001594",NA,1065,NA,NA,"CO","Clinical Observation","CLINICAL SIGNS",NA,NA,"NORMAL","NORMAL",NA,NA,NA,NA,NA,NA,NA,NA,13,"2007-06-26T13:12:33",13,NA,NA,NA,NA,NA
"GLP003","CL","107001594",NA,1066,NA,NA,"CO","Clinical Observation","CLINICAL SIGNS",NA,NA,"NORMAL","NORMAL",NA,NA,NA,NA,NA,NA,NA,NA,14,"2007-06-27T11:27:57",14,NA,NA,NA,NA,NA
"GLP003","CL","107001594",NA,1067,NA,NA,"CO","Clinical Observation","CLINICAL SIGNS",NA,NA,"NORMAL","NORMAL",NA,NA,NA,NA,NA,NA,NA,NA,15,"2007-06-28T13:59:44",15,NA,NA,NA,NA,NA
"GLP003","CL","107001594",NA,1068,NA,NA,"CO","Clinical Observation","CLINICAL SIGNS",NA,NA,"NORMAL","NORMAL",NA,NA,NA,NA,NA,NA,NA,NA,16,"2007-06-29T13:47:11",16,NA,NA,NA,NA,NA
"GLP003","CL","107001594",NA,1069,NA,NA,"CO","Clinical Observation","CLINICAL SIGNS",NA,NA,"NORMAL","NORMAL",NA,NA,NA,NA,NA,NA,NA,NA,17,"2007-06-30T13:55:40",17,NA,NA,NA,NA,NA
"GLP003","CL","107001594",NA,1070,NA,NA,"CO","Clinical Observation","CLINICAL SIGNS",NA,NA,"NORMAL","NORMAL",NA,NA,NA,NA,NA,NA,NA,NA,18,"2007-07-01T11:46:23",18,NA,NA,NA,NA,NA
"GLP003","CL","107001594",NA,1071,NA,NA,"CO","Clinical Observation","CLINICAL SIGNS",NA,NA,"NORMAL","NORMAL",NA,NA,NA,NA,NA,NA,NA,NA,19,"2007-07-02T12:01:34",19,NA,NA,NA,NA,NA
"GLP003","CL","107001594",NA,1072,NA,NA,"CO","Clinical Observation","CLINICAL SIGNS",NA,NA,"NORMAL","NORMAL",NA,NA,NA,NA,NA,NA,NA,NA,20,"2007-07-03T09:51:57",20,NA,NA,NA,NA,NA
"GLP003","CL","107001594",NA,1073,NA,NA,"CO","Clinical Observation","CLINICAL SIGNS",NA,NA,"NORMAL","NORMAL",NA,NA,NA,NA,NA,NA,NA,NA,21,"2007-07-04T13:24:02",21,NA,NA,NA,NA,NA
