"STUDYID","DOMAIN","RDOMAIN","USUBJID","POOLID","COSEQ","IDVAR","IDVARVAL","COREF","COVAL","COEVAL","CODTC","CODY"
"GLP003","CO","BW","107001381",NA,1,"BWSEQ","69",NA,"Body weight put in manually.",NA,NA,NA
"GLP003","CO","BW","107001424",NA,2,"BWSEQ","98",NA,"Body weight put in manually.",NA,NA,NA
"GLP003","CO","BW","107001404",NA,3,"BWSEQ","100",NA,"Body weight put in manually.",NA,NA,NA
"GLP003","CO","BW","107001445",NA,4,"BWSEQ","104",NA,"Body weight not yet entered.",NA,NA,NA
"GLP003","CO","BW","107001547",NA,5,"BWSEQ","109",NA,"Inadvertently entered wrong animal number.",NA,NA,NA
"GLP003","CO","BW","107001369",NA,6,"BWSEQ","126",NA,"Body weight put in manually.",NA,NA,NA
"GLP003","CO","BW","107001420",NA,7,"BWSEQ","129",NA,"Body weight put in manually.",NA,NA,NA
"GLP003","CO","BW","107001555",NA,8,"BWSEQ","149",NA,"incorect animal number entered",NA,NA,NA
"GLP003","CO","CL","107001387",NA,9,"CLSEQ","528",NA,"Head stained red.",NA,NA,NA
"GLP003","CO","CL","107001387",NA,10,"CLSEQ","529",NA,"Head stained red.",NA,NA,NA
"GLP003","CO","CL","107001387",NA,11,"CLSEQ","530",NA,"Head stained red.",NA,NA,NA
"GLP003","CO","CL","107001387",NA,12,"CLSEQ","531",NA,"Head stained red.",NA,NA,NA
"GLP003","CO","CL","107001387",NA,13,"CLSEQ","532",NA,"Head stained red.",NA,NA,NA
"GLP003","CO","CL","107001387",NA,14,"CLSEQ","533",NA,"Head stained red.",NA,NA,NA
"GLP003","CO","CL","107001387",NA,15,"CLSEQ","534",NA,"Head stained red.",NA,NA,NA
"GLP003","CO","CL","107001387",NA,16,"CLSEQ","535",NA,"Head stained red.",NA,NA,NA
"GLP003","CO","CL","107001423",NA,17,"CLSEQ","597",NA,"Broken left upper incisor. Good prognosis. Trimmed 2 lower incisors and remaining upper incisor. Please feed powdered food.",NA,NA,NA
"GLP003","CO","CL","107001423",NA,18,"CLSEQ","625",NA,"Broken top right incisor. Harcoat stained red on muzzle.",NA,NA,NA
"GLP003","CO","CL","107001423",NA,19,"CLSEQ","626",NA,"Broken top right incisor. Harcoat stained red on muzzle.",NA,NA,NA
"GLP003","CO","CL","107001423",NA,20,"CLSEQ","627",NA,"Broken top right incisor. Harcoat stained red on muzzle.",NA,NA,NA
"GLP003","CO","CL","107001423",NA,21,"CLSEQ","628",NA,"Broken top right incisor. Harcoat stained red on muzzle.",NA,NA,NA
"GLP003","CO","CL","107001423",NA,22,"CLSEQ","629",NA,"Broken top right incisor. Harcoat stained red on muzzle.",NA,NA,NA
"GLP003","CO","CL","107001423",NA,23,"CLSEQ","630",NA,"Broken top right incisor.",NA,NA,NA
"GLP003","CO","CL","107001423",NA,24,"CLSEQ","631",NA,"Broken top right incisor.",NA,NA,NA
"GLP003","CO","CL","107001423",NA,25,"CLSEQ","632",NA,"Broken top right incisor.",NA,NA,NA
"GLP003","CO","CL","107001423",NA,26,"CLSEQ","633",NA,"Broken top right incisor.",NA,NA,NA
"GLP003","CO","CL","107001423",NA,27,"CLSEQ","634",NA,"Broken top right incisor.",NA,NA,NA
"GLP003","CO","CL","107001423",NA,28,"CLSEQ","635",NA,"Broken top right incisor.",NA,NA,NA
"GLP003","CO","CL","107001423",NA,29,"CLSEQ","636",NA,"Broken top right incisor.",NA,NA,NA
"GLP003","CO","CL","107001423",NA,30,"CLSEQ","637",NA,"Broken top right incisor.",NA,NA,NA
"GLP003","CO","CL","107001423",NA,31,"CLSEQ","638",NA,"Broken top right incisor.",NA,NA,NA
"GLP003","CO","CL","107001423",NA,32,"CLSEQ","639",NA,"Broken top right incisor.",NA,NA,NA
"GLP003","CO","CL","107001423",NA,33,"CLSEQ","640",NA,"Broken top right incisor.",NA,NA,NA
"GLP003","CO","CL","107001423",NA,34,"CLSEQ","641",NA,"Broken top right incisor.",NA,NA,NA
"GLP003","CO","CL","107001423",NA,35,"CLSEQ","642",NA,"Broken top right incisor.",NA,NA,NA
"GLP003","CO","CL","107001423",NA,36,"CLSEQ","643",NA,"Broken top right incisor.",NA,NA,NA
"GLP003","CO","CL","107001423",NA,37,"CLSEQ","644",NA,"Broken top right incisor.",NA,NA,NA
"GLP003","CO","CL","107001423",NA,38,"CLSEQ","645",NA,"Broken top right incisor.",NA,NA,NA
"GLP003","CO","CL","107001423",NA,39,"CLSEQ","646",NA,"Broken top right incisor.",NA,NA,NA
"GLP003","CO","CL","107001423",NA,40,"CLSEQ","647",NA,"Broken top right incisor.",NA,NA,NA
"GLP003","CO","CL","107001423",NA,41,"CLSEQ","648",NA,"Broken top right incisor.",NA,NA,NA
"GLP003","CO","CL","107001423",NA,42,"CLSEQ","649",NA,"Broken top right incisor.",NA,NA,NA
"GLP003","CO","CL","107001423",NA,43,"CLSEQ","650",NA,"Broken top right incisor.",NA,NA,NA
"GLP003","CO","CL","107001423",NA,44,"CLSEQ","651",NA,"Broken top right incisor.",NA,NA,NA
"GLP003","CO","CL","107001423",NA,45,"CLSEQ","652",NA,"Broken top right incisor.",NA,NA,NA
"GLP003","CO","CL","107001423",NA,46,"CLSEQ","653",NA,"Broken top right incisor.",NA,NA,NA
"GLP003","CO","CL","107001423",NA,47,"CLSEQ","654",NA,"Broken top right incisor.",NA,NA,NA
"GLP003","CO","CL","107001423",NA,48,"CLSEQ","655",NA,"Broken top right incisor.",NA,NA,NA
"GLP003","CO","CL","107001423",NA,49,"CLSEQ","656",NA,"Broken top right incisor.",NA,NA,NA
"GLP003","CO","CL","107001423",NA,50,"CLSEQ","657",NA,"Broken top right incisor.",NA,NA,NA
"GLP003","CO","CL","107001423",NA,51,"CLSEQ","658",NA,"Broken top right incisor.",NA,NA,NA
"GLP003","CO","CL","107001529",NA,52,"CLSEQ","694",NA,"Haircoat stained red on head.",NA,NA,NA
"GLP003","CO","CL","107001528",NA,53,"CLSEQ","728",NA,"Haircoat stained yellow on perigenital area.",NA,NA,NA
"GLP003","CO","CL","107001528",NA,54,"CLSEQ","729",NA,"Haircoat stained yellow on perigenital area.",NA,NA,NA
"GLP003","CO","CL","107001576",NA,55,"CLSEQ","768",NA,"Haircoat stained red on head.",NA,NA,NA
"GLP003","CO","CL","107001500",NA,56,"CLSEQ","831",NA,"Haircoat stained red on head.",NA,NA,NA
"GLP003","CO","CL","107001500",NA,57,"CLSEQ","832",NA,"Haircoat stained red on head.",NA,NA,NA
"GLP003","CO","CL","107001500",NA,58,"CLSEQ","833",NA,"Haircoat stained red on head. Red substance on both ears.",NA,NA,NA
"GLP003","CO","CL","107001500",NA,59,"CLSEQ","834",NA,"Haircoat stained red on head. Red substance on both ears.",NA,NA,NA
"GLP003","CO","CL","107001500",NA,60,"CLSEQ","835",NA,"Haircoat stained red on head. Red substance on both ears.",NA,NA,NA
"GLP003","CO","CL","107001500",NA,61,"CLSEQ","836",NA,"Haircoat stained red on head. Red substance on both ears.",NA,NA,NA
"GLP003","CO","CL","107001500",NA,62,"CLSEQ","838",NA,"Haircoat stained red on head. Red substance on both ears.",NA,NA,NA
"GLP003","CO","CL","107001500",NA,63,"CLSEQ","839",NA,"Haircoat stained red on head. Red substance on both ears.",NA,NA,NA
"GLP003","CO","CL","107001500",NA,64,"CLSEQ","841",NA,"Haircoat stained red on head. Red substance on both ears.",NA,NA,NA
"GLP003","CO","CL","107001500",NA,65,"CLSEQ","842",NA,"Haircoat stained red on head. Red substance on both ears.",NA,NA,NA
"GLP003","CO","CL","107001500",NA,66,"CLSEQ","843",NA,"Haircoat stained red on head. Red substance on both ears.",NA,NA,NA
"GLP003","CO","CL","107001500",NA,67,"CLSEQ","844",NA,"Haircoat stained red on head. Red substance on both ears.",NA,NA,NA
"GLP003","CO","CL","107001537",NA,68,"CLSEQ","998",NA,"red discoloration on outside of pinnae bilateral",NA,NA,NA
"GLP003","CO","CL","107001537",NA,69,"CLSEQ","999",NA,"red discoloration on outside of pinnae bilateral",NA,NA,NA
"GLP003","CO","CL","107001537",NA,70,"CLSEQ","1000",NA,"red discoloration on outside of pinnae bilateral",NA,NA,NA
"GLP003","CO","CL","107001537",NA,71,"CLSEQ","1002",NA,"Haircoat stained red on head.",NA,NA,NA
"GLP003","CO","CL","107001537",NA,72,"CLSEQ","1004",NA,"Haircoat stained red on head.",NA,NA,NA
"GLP003","CO","CL","107001537",NA,73,"CLSEQ","1005",NA,"Red discoloration on outside of ears. Haircoat stained red on head.",NA,NA,NA
"GLP003","CO","CL","107001537",NA,74,"CLSEQ","1006",NA,"Red discoloration on outside of ears. Haircoat stained red on head.",NA,NA,NA
"GLP003","CO","CL","107001537",NA,75,"CLSEQ","1007",NA,"Red discoloration on outside of ears. Haircoat stained red on head.",NA,NA,NA
"GLP003","CO","CL","107001537",NA,76,"CLSEQ","1008",NA,"Red discoloration on outside of ears. Haircoat stained red on head.",NA,NA,NA
"GLP003","CO","CL","107001537",NA,77,"CLSEQ","1009",NA,"Red discoloration on outside of ears. Haircoat stained red on head.",NA,NA,NA
"GLP003","CO","CL","107001537",NA,78,"CLSEQ","1010",NA,"Red discoloration on outside of ears. Haircoat stained red on head.",NA,NA,NA
"GLP003","CO","CL","107001537",NA,79,"CLSEQ","1011",NA,"Red discoloration on outside of ears. Haircoat stained red on head.",NA,NA,NA
"GLP003","CO","CL","107001537",NA,80,"CLSEQ","1012",NA,"Red discoloration on outside of ears. Haircoat stained red on head.",NA,NA,NA
"GLP003","CO","CL","107001537",NA,81,"CLSEQ","1014",NA,"Red discoloration on outside of ears. Haircoat stained red on head.",NA,NA,NA
"GLP003","CO","CL","107001537",NA,82,"CLSEQ","1015",NA,"Red discoloration on outside of ears. Haircoat stained red on head.",NA,NA,NA
"GLP003","CO","CL","107001537",NA,83,"CLSEQ","1016",NA,"Red discoloration on outside of ears. Haircoat stained red on head.",NA,NA,NA
"GLP003","CO","CL","107001537",NA,84,"CLSEQ","1017",NA,"Red discoloration on outside of ears. Haircoat stained red on head.",NA,NA,NA
"GLP003","CO","CL","107001537",NA,85,"CLSEQ","1018",NA,"Red discoloration on outside of ears. Haircoat stained red on head.",NA,NA,NA
"GLP003","CO","CL","107001537",NA,86,"CLSEQ","1019",NA,"Red discoloration on outside of ears. Haircoat stained red on head.",NA,NA,NA
"GLP003","CO","CL","107001537",NA,87,"CLSEQ","1020",NA,"Red discoloration on outside of ears. Haircoat stained red on head.",NA,NA,NA
"GLP003","CO","CL","107001537",NA,88,"CLSEQ","1021",NA,"Red discoloration on outside of ears. Haircoat stained red on head.",NA,NA,NA
"GLP003","CO","CL","107001537",NA,89,"CLSEQ","1022",NA,"Red discoloration on outside of ears. Haircoat stained red on head.",NA,NA,NA
"GLP003","CO","CL","107001537",NA,90,"CLSEQ","1023",NA,"Red discoloration on outside of ears. Haircoat stained red on head.",NA,NA,NA
"GLP003","CO","CL","107001537",NA,91,"CLSEQ","1024",NA,"Red discoloration on outside of ears. Haircoat stained red on head.",NA,NA,NA
"GLP003","CO","CL","107001537",NA,92,"CLSEQ","1025",NA,"Red discoloration on outside of ears. Haircoat stained red on head.",NA,NA,NA
"GLP003","CO","CL","107001537",NA,93,"CLSEQ","1026",NA,"Red discoloration on outside of ears. Haircoat stained red on head.",NA,NA,NA
"GLP003","CO","CL","107001537",NA,94,"CLSEQ","1027",NA,"Red discoloration on outside of ears. Haircoat stained red on head.",NA,NA,NA
"GLP003","CO","CL","107001537",NA,95,"CLSEQ","1028",NA,"Red discoloration on outside of ears. Haircoat stained red on head.",NA,NA,NA
"GLP003","CO","CL","107001537",NA,96,"CLSEQ","1029",NA,"Red discoloration on outside of ears. Haircoat stained red on head.",NA,NA,NA
"GLP003","CO","CL","107001537",NA,97,"CLSEQ","1030",NA,"Red discoloration on outside of ears. Haircoat stained red on head.",NA,NA,NA
"GLP003","CO","CL","107001537",NA,98,"CLSEQ","1031",NA,"Red discoloration on outside of ears. Haircoat stained red on head.",NA,NA,NA
"GLP003","CO","CL","107001537",NA,99,"CLSEQ","1032",NA,"Red discoloration on outside of ears. Haircoat stained red on head.",NA,NA,NA
"GLP003","CO","CL","107001537",NA,100,"CLSEQ","1033",NA,"Red discoloration on outside of ears. Haircoat stained red on head.",NA,NA,NA
"GLP003","CO","CL","107001537",NA,101,"CLSEQ","1034",NA,"Red discoloration on outside of ears. Haircoat stained red on head.",NA,NA,NA
"GLP003","CO","CL","107001537",NA,102,"CLSEQ","1035",NA,"Red discoloration on outside of ears. Haircoat stained red on head.",NA,NA,NA
"GLP003","CO","CL","107001537",NA,103,"CLSEQ","1036",NA,"Red discoloration on outside of ears. Haircoat stained red on head.",NA,NA,NA
"GLP003","CO","CL","107001537",NA,104,"CLSEQ","1037",NA,"Red discoloration on outside of ears. Haircoat stained red on head.",NA,NA,NA
"GLP003","CO","CL","107001537",NA,105,"CLSEQ","1038",NA,"Red discoloration on outside of ears. Haircoat stained red on head.",NA,NA,NA
"GLP003","CO","CL","107001537",NA,106,"CLSEQ","1039",NA,"Red discoloration on outside of ears. Haircoat stained red on head.",NA,NA,NA
"GLP003","CO","CL","107001537",NA,107,"CLSEQ","1040",NA,"Red discoloration on outside of ears. Haircoat stained red on head.",NA,NA,NA
"GLP003","CO","CL","107001537",NA,108,"CLSEQ","1041",NA,"Red discoloration on outside of ears. Haircoat stained red on head.",NA,NA,NA
"GLP003","CO","CL","107001537",NA,109,"CLSEQ","1042",NA,"Red discoloration on outside of ears. Haircoat stained red on head.",NA,NA,NA
"GLP003","CO","CL","107001537",NA,110,"CLSEQ","1043",NA,"Red discoloration on outside of ears. Haircoat stained red on head.",NA,NA,NA
"GLP003","CO","CL","107001537",NA,111,"CLSEQ","1044",NA,"Red discoloration on outside of ears. Haircoat stained red on head.",NA,NA,NA
"GLP003","CO","CL","107001537",NA,112,"CLSEQ","1045",NA,"Red discoloration on outside of ears. Haircoat stained red on head.",NA,NA,NA
"GLP003","CO","CL","107001537",NA,113,"CLSEQ","1047",NA,"Red discoloration on outside of ears. Haircoat stained red on head.",NA,NA,NA
"GLP003","CO","CL","107001537",NA,114,"CLSEQ","1048",NA,"Red discoloration on outside of ears. Haircoat stained red on head.",NA,NA,NA
"GLP003","CO","CL","107001538",NA,115,"CLSEQ","1235",NA,"Haircoat stained red on head.",NA,NA,NA
"GLP003","CO","CL","107001538",NA,116,"CLSEQ","1236",NA,"Haircoat on neck is stained red.",NA,NA,NA
"GLP003","CO","CL","107001538",NA,117,"CLSEQ","1237",NA,"Haircoat on neck is stained red.",NA,NA,NA
"GLP003","CO","CL","107001538",NA,118,"CLSEQ","1238",NA,"Haircoat on neck is stained red.",NA,NA,NA
"GLP003","CO","CL","107001538",NA,119,"CLSEQ","1239",NA,"Haircoat on neck is stained red.",NA,NA,NA
"GLP003","CO","CL","107001538",NA,120,"CLSEQ","1240",NA,"Haircoat on neck is stained red.",NA,NA,NA
"GLP003","CO","CL","107001538",NA,121,"CLSEQ","1241",NA,"Haircoat on neck is stained red.",NA,NA,NA
"GLP003","CO","CL","107001538",NA,122,"CLSEQ","1242",NA,"Haircoat on neck is stained red.",NA,NA,NA
"GLP003","CO","CL","107001538",NA,123,"CLSEQ","1243",NA,"Haircoat on neck is stained red.",NA,NA,NA
"GLP003","CO","CL","107001538",NA,124,"CLSEQ","1244",NA,"Haircoat on neck is stained red.",NA,NA,NA
"GLP003","CO","CL","107001538",NA,125,"CLSEQ","1245",NA,"Haircoat on neck is stained red.",NA,NA,NA
"GLP003","CO","CL","107001581",NA,126,"CLSEQ","1294",NA,"Haircoat stained red on head.",NA,NA,NA
"GLP003","CO","CL","107001469",NA,127,"CLSEQ","1326",NA,"Haircoat stained red around mouth.",NA,NA,NA
"GLP003","CO","CL","107001469",NA,128,"CLSEQ","1327",NA,"Haircoat stained red around mouth.",NA,NA,NA
"GLP003","CO","CL","107001469",NA,129,"CLSEQ","1328",NA,"Haircoat stained red around mouth.",NA,NA,NA
"GLP003","CO","CL","107001469",NA,130,"CLSEQ","1329",NA,"Haircoat stained red around mouth.",NA,NA,NA
"GLP003","CO","CL","107001368",NA,131,"CLSEQ","1531",NA,"Animal unable to use hindlimbs to move, animal uses forelimbs only to move around cage.",NA,NA,NA
"GLP003","CO","CL","107001368",NA,132,"CLSEQ","1532",NA,"Animal unable to use hindlimbs to move, animal uses forelimbs only to move around cage.",NA,NA,NA
"GLP003","CO","CL","107001368",NA,133,"CLSEQ","1533",NA,"Animal unable to use hindlimbs to move, animal uses forelimbs only to move around cage.",NA,NA,NA
"GLP003","CO","CL","107001368",NA,134,"CLSEQ","1534",NA,"Unscheduled euthanasia with necropsy.",NA,NA,NA
"GLP003","CO","CL","107001473",NA,135,"CLSEQ","1888",NA,"Haircoat on both shoulders stained red.",NA,NA,NA
"GLP003","CO","CL","107001473",NA,136,"CLSEQ","1889",NA,"Haircoat on both shoulders stained red.",NA,NA,NA
"GLP003","CO","CL","107001473",NA,137,"CLSEQ","1890",NA,"Haircoat on both shoulders stained red.",NA,NA,NA
"GLP003","CO","CL","107001473",NA,138,"CLSEQ","1891",NA,"Haircoat on both shoulders stained red.",NA,NA,NA
"GLP003","CO","CL","107001525",NA,139,"CLSEQ","1924",NA,"Haircoat stained red on neck.",NA,NA,NA
"GLP003","CO","CL","107001525",NA,140,"CLSEQ","1925",NA,"Haircoat stained red on neck.",NA,NA,NA
"GLP003","CO","CL","107001629",NA,141,"CLSEQ","2038",NA,"Possible dosing accident. Poor prognosis. Euthanasia recommended.",NA,NA,NA
"GLP003","CO","CL","107001629",NA,142,"CLSEQ","2039",NA,"Possible dosing accident. Poor prognosis. Euthanasia recommended.",NA,NA,NA
"GLP003","CO","CL","107001629",NA,143,"CLSEQ","2040",NA,"Possible dosing accident. Poor prognosis. Euthanasia recommended.",NA,NA,NA
"GLP003","CO","CL","107001629",NA,144,"CLSEQ","2041",NA,"Possible dosing accident. Poor prognosis. Euthanasia recommended.",NA,NA,NA
"GLP003","CO","CL","107001629",NA,145,"CLSEQ","2048",NA,"Unscheduled euthanasia with necropsy.",NA,NA,NA
"GLP003","CO","CL","107001641",NA,146,"CLSEQ","2150",NA,"Head is stained red.",NA,NA,NA
"GLP003","CO","CL","107001641",NA,147,"CLSEQ","2151",NA,"Head is stained red.",NA,NA,NA
"GLP003","CO","CL","107001641",NA,148,"CLSEQ","2152",NA,"Head is stained red.",NA,NA,NA
"GLP003","CO","CL","107001641",NA,149,"CLSEQ","2153",NA,"Head is stained red.",NA,NA,NA
"GLP003","CO","CL","107001561",NA,150,"CLSEQ","2313",NA,"torn nail right forefoot, first digit.",NA,NA,NA
"GLP003","CO","CL","107001561",NA,151,"CLSEQ","2314",NA,"torn nail right forefoot, first digit.",NA,NA,NA
"GLP003","CO","CL","107001559",NA,152,"CLSEQ","2359",NA,"Blood in feces. Fair prognosis. Re-examine as needed if condition changes.",NA,NA,NA
"GLP003","CO","CL","107001559",NA,153,"CLSEQ","2360",NA,"Blood in feces (Seracult test performed).",NA,NA,NA
"GLP003","CO","CL","107001559",NA,154,"CLSEQ","2361",NA,"Blood in feces (Seracult test performed).",NA,NA,NA
"GLP003","CO","CL","107001559",NA,155,"CLSEQ","2362",NA,"Animal appears pale, whole body. Blood in feces confirmed by seracult test perfomed by technician.",NA,NA,NA
"GLP003","CO","CL","107001559",NA,156,"CLSEQ","2363",NA,"Animal appears pale, whole body. Blood in feces confirmed by seracult test perfomed by technician.",NA,NA,NA
"GLP003","CO","CL","107001559",NA,157,"CLSEQ","2364",NA,"Animal appears pale, whole body. Blood in feces confirmed by seracult test perfomed by technician.",NA,NA,NA
"GLP003","CO","CL","107001559",NA,158,"CLSEQ","2365",NA,"Animal appears pale.",NA,NA,NA
"GLP003","CO","CL","107001559",NA,159,"CLSEQ","2366",NA,"Animal appears pale.",NA,NA,NA
"GLP003","CO","CL","107001559",NA,160,"CLSEQ","2367",NA,"Animal appears pale.",NA,NA,NA
"GLP003","CO","CL","107001609",NA,161,"CLSEQ","2405",NA,"Haircoat stained red on head.",NA,NA,NA
"GLP003","CO","CL","107001609",NA,162,"CLSEQ","2406",NA,"Haircoat stained red on head.",NA,NA,NA
"GLP003","CO","CL","107001609",NA,163,"CLSEQ","2407",NA,"Head stained red.",NA,NA,NA
"GLP003","CO","CL","107001609",NA,164,"CLSEQ","2408",NA,"Head stained red.",NA,NA,NA
"GLP003","CO","CL","107001609",NA,165,"CLSEQ","2409",NA,"Head stained red.",NA,NA,NA
"GLP003","CO","CL","107001609",NA,166,"CLSEQ","2410",NA,"Head stained red.",NA,NA,NA
"GLP003","CO","CL","107001609",NA,167,"CLSEQ","2411",NA,"Head stained red.",NA,NA,NA
"GLP003","CO","CL","107001609",NA,168,"CLSEQ","2412",NA,"Head stained red.",NA,NA,NA
"GLP003","CO","CL","107001609",NA,169,"CLSEQ","2413",NA,"Head stained red.",NA,NA,NA
"GLP003","CO","CL","107001609",NA,170,"CLSEQ","2414",NA,"Head stained red.",NA,NA,NA
"GLP003","CO","CL","107001609",NA,171,"CLSEQ","2415",NA,"Head stained red.",NA,NA,NA
"GLP003","CO","CL","107001609",NA,172,"CLSEQ","2416",NA,"Head stained red.",NA,NA,NA
"GLP003","CO","CL","107001433",NA,173,"CLSEQ","2738",NA,"Negative for blood on Seracult.",NA,NA,NA
"GLP003","CO","CL","107001433",NA,174,"CLSEQ","2739",NA,"Negative for blood on Seracult.",NA,NA,NA
"GLP003","CO","CL","107001433",NA,175,"CLSEQ","2740",NA,"Negative for blood on Seracult.",NA,NA,NA
"GLP003","CO","CL","107001386",NA,176,"CLSEQ","2894",NA,"Abrasion on right forelimb.",NA,NA,NA
"GLP003","CO","CL","107001386",NA,177,"CLSEQ","2895",NA,"Abrasion on right forelimb.",NA,NA,NA
"GLP003","CO","CL","107001386",NA,178,"CLSEQ","2896",NA,"Abrasion on right forelimb.",NA,NA,NA
"GLP003","CO","CL","107001386",NA,179,"CLSEQ","2897",NA,"Abrasion on right forelimb.",NA,NA,NA
"GLP003","CO","CL","107001386",NA,180,"CLSEQ","2898",NA,"Abrasion on right forelimb.",NA,NA,NA
"GLP003","CO","CL","107001386",NA,181,"CLSEQ","2899",NA,"Abrasion on right forelimb.",NA,NA,NA
"GLP003","CO","CL","107001386",NA,182,"CLSEQ","2900",NA,"Abrasion on right forelimb.",NA,NA,NA
"GLP003","CO","CL","107001386",NA,183,"CLSEQ","2901",NA,"Abrasion on right forelimb.",NA,NA,NA
"GLP003","CO","CL","107001386",NA,184,"CLSEQ","2902",NA,"Abrasion on right forelimb.",NA,NA,NA
"GLP003","CO","CL","107001386",NA,185,"CLSEQ","2903",NA,"Abrasion on right forelimb.",NA,NA,NA
"GLP003","CO","CL","107001386",NA,186,"CLSEQ","2904",NA,"Abrasion on right and left forelimb.",NA,NA,NA
"GLP003","CO","CL","107001386",NA,187,"CLSEQ","2905",NA,"Abrasion on right and left forelimb.",NA,NA,NA
"GLP003","CO","CL","107001386",NA,188,"CLSEQ","2906",NA,"Abrasion on right and left forelimb.",NA,NA,NA
"GLP003","CO","CL","107001386",NA,189,"CLSEQ","2907",NA,"Abrasion on left forelimb.",NA,NA,NA
"GLP003","CO","CL","107001386",NA,190,"CLSEQ","2908",NA,"Abrasion on left forelimb.",NA,NA,NA
"GLP003","CO","CL","107001386",NA,191,"CLSEQ","2909",NA,"Abrasion on left forelimb.",NA,NA,NA
"GLP003","CO","CL","107001386",NA,192,"CLSEQ","2910",NA,"Abrasion on left forelimb.",NA,NA,NA
"GLP003","CO","CL","107001570",NA,193,"CLSEQ","3175",NA,"Haircoat stained red on head.",NA,NA,NA
"GLP003","CO","CL","107001570",NA,194,"CLSEQ","3176",NA,"Haircoat stained red on head.",NA,NA,NA
"GLP003","CO","CL","107001540",NA,195,"CLSEQ","3319",NA,"Haircoat stained red on neck (dorsal).",NA,NA,NA
"GLP003","CO","CL","107001540",NA,196,"CLSEQ","3320",NA,"Haircoat stained red on neck (dorsal).",NA,NA,NA
"GLP003","CO","CL","107001540",NA,197,"CLSEQ","3321",NA,"Haircoat stained red on neck (dorsal).",NA,NA,NA
"GLP003","CO","CL","107001540",NA,198,"CLSEQ","3322",NA,"Haircoat stained red on neck (dorsal).",NA,NA,NA
"GLP003","CO","CL","107001540",NA,199,"CLSEQ","3323",NA,"Haircoat stained red on neck (dorsal).",NA,NA,NA
"GLP003","CO","CL","107001540",NA,200,"CLSEQ","3324",NA,"Haircoat stained red on neck (dorsal).",NA,NA,NA
"GLP003","CO","CL","107001540",NA,201,"CLSEQ","3325",NA,"Haircoat stained red on neck (dorsal).",NA,NA,NA
"GLP003","CO","CL","107001540",NA,202,"CLSEQ","3326",NA,"Haircoat stained red on neck (dorsal).",NA,NA,NA
"GLP003","CO","CL","107001540",NA,203,"CLSEQ","3328",NA,"Haircoat stained red on neck (dorsal).",NA,NA,NA
"GLP003","CO","CL","107001540",NA,204,"CLSEQ","3330",NA,"Haircoat stained red on neck (dorsal).",NA,NA,NA
"GLP003","CO","CL","107001540",NA,205,"CLSEQ","3331",NA,"Haircoat stained red on neck (dorsal).",NA,NA,NA
"GLP003","CO","CL","107001631",NA,206,"CLSEQ","3392",NA,"Haircoat on head stained red.",NA,NA,NA
"GLP003","CO","CL","107001631",NA,207,"CLSEQ","3393",NA,"Haircoat on head stained red.",NA,NA,NA
"GLP003","CO","CL","107001631",NA,208,"CLSEQ","3394",NA,"Haircoat on head stained red.",NA,NA,NA
"GLP003","CO","CL","107001631",NA,209,"CLSEQ","3395",NA,"Haircoat on head stained red.",NA,NA,NA
"GLP003","CO","CL","107001631",NA,210,"CLSEQ","3396",NA,"Haircoat on head stained red.",NA,NA,NA
"GLP003","CO","CL","107001631",NA,211,"CLSEQ","3397",NA,"Haircoat on head stained red.",NA,NA,NA
"GLP003","CO","CL","107001631",NA,212,"CLSEQ","3398",NA,"Haircoat on head stained red.",NA,NA,NA
"GLP003","CO","CL","107001631",NA,213,"CLSEQ","3399",NA,"Haircoat on head stained red.",NA,NA,NA
"GLP003","CO","CL","107001631",NA,214,"CLSEQ","3400",NA,"Haircoat on head and neck is stained red.",NA,NA,NA
"GLP003","CO","CL","107001631",NA,215,"CLSEQ","3401",NA,"Haircoat on head and neck is stained red.",NA,NA,NA
"GLP003","CO","CL","107001631",NA,216,"CLSEQ","3402",NA,"Haircoat on head and neck is stained red.",NA,NA,NA
"GLP003","CO","CL","107001631",NA,217,"CLSEQ","3403",NA,"Haircoat on head and neck is stained red.",NA,NA,NA
"GLP003","CO","CL","107001631",NA,218,"CLSEQ","3404",NA,"Haircoat on head and neck is stained red.",NA,NA,NA
"GLP003","CO","CL","107001631",NA,219,"CLSEQ","3405",NA,"Haircoat on head and neck is stained red.",NA,NA,NA
"GLP003","CO","CL","107001631",NA,220,"CLSEQ","3406",NA,"Haircoat on neck is stained red.",NA,NA,NA
"GLP003","CO","CL","107001631",NA,221,"CLSEQ","3407",NA,"Haircoat on neck is stained red.",NA,NA,NA
"GLP003","CO","CL","107001631",NA,222,"CLSEQ","3408",NA,"Haircoat on neck is stained red.",NA,NA,NA
"GLP003","CO","CL","107001631",NA,223,"CLSEQ","3409",NA,"Haircoat on neck is stained red.",NA,NA,NA
"GLP003","CO","CL","107001631",NA,224,"CLSEQ","3410",NA,"Haircoat on neck is stained red.",NA,NA,NA
"GLP003","CO","CL","107001631",NA,225,"CLSEQ","3411",NA,"Haircoat on neck is stained red.",NA,NA,NA
"GLP003","CO","CL","107001631",NA,226,"CLSEQ","3412",NA,"Haircoat on neck is stained red.",NA,NA,NA
"GLP003","CO","CL","107001447",NA,227,"CLSEQ","3821",NA,"Haircoat stained red on muzzle.",NA,NA,NA
"GLP003","CO","CL","107001447",NA,228,"CLSEQ","3822",NA,"Haircoat stained red on muzzle.",NA,NA,NA
"GLP003","CO","CL","107001414",NA,229,"CLSEQ","3844",NA,"Fractured upper incisors. Good prognosis. Re-examine as needed to trim lower teeth. Keep on powdered feed until teeth grow back in.",NA,NA,NA
"GLP003","CO","CL","107001414",NA,230,"CLSEQ","3871",NA,"Haircoat stained yellow on perigenital area.",NA,NA,NA
"GLP003","CO","CL","107001414",NA,231,"CLSEQ","3872",NA,"Haircoat stained yellow on perigenital area.",NA,NA,NA
"GLP003","CO","CL","107001414",NA,232,"CLSEQ","3873",NA,"Haircoat stained yellow on perigenital area.",NA,NA,NA
"GLP003","CO","CL","107001414",NA,233,"CLSEQ","3874",NA,"Haircoat stained yellow on perigenital area.",NA,NA,NA
"GLP003","CO","CL","107001414",NA,234,"CLSEQ","3876",NA,"Both upper incisors broken.",NA,NA,NA
"GLP003","CO","CL","107001414",NA,235,"CLSEQ","3877",NA,"Both upper incisors broken.",NA,NA,NA
"GLP003","CO","CL","107001414",NA,236,"CLSEQ","3878",NA,"Both upper incisors broken.",NA,NA,NA
"GLP003","CO","CL","107001414",NA,237,"CLSEQ","3879",NA,"Both upper incisors broken.",NA,NA,NA
"GLP003","CO","CL","107001414",NA,238,"CLSEQ","3880",NA,"Both upper incisors broken.",NA,NA,NA
"GLP003","CO","CL","107001414",NA,239,"CLSEQ","3881",NA,"Both upper incisors broken.",NA,NA,NA
"GLP003","CO","CL","107001414",NA,240,"CLSEQ","3882",NA,"Both upper incisors broken.",NA,NA,NA
"GLP003","CO","CL","107001414",NA,241,"CLSEQ","3883",NA,"Both upper incisors broken.",NA,NA,NA
"GLP003","CO","CL","107001414",NA,242,"CLSEQ","3884",NA,"Both upper incisors broken.",NA,NA,NA
"GLP003","CO","CL","107001414",NA,243,"CLSEQ","3885",NA,"Both upper incisors broken.",NA,NA,NA
"GLP003","CO","CL","107001414",NA,244,"CLSEQ","3886",NA,"Both upper incisors broken.",NA,NA,NA
"GLP003","CO","CL","107001414",NA,245,"CLSEQ","3887",NA,"Both upper incisors broken.",NA,NA,NA
"GLP003","CO","CL","107001414",NA,246,"CLSEQ","3889",NA,"Both upper incisors broken.",NA,NA,NA
"GLP003","CO","CL","107001414",NA,247,"CLSEQ","3890",NA,"Both upper incisors broken.",NA,NA,NA
"GLP003","CO","CL","107001414",NA,248,"CLSEQ","3891",NA,"Both upper incisors broken.",NA,NA,NA
"GLP003","CO","CL","107001414",NA,249,"CLSEQ","3892",NA,"Both upper incisors broken.",NA,NA,NA
"GLP003","CO","CL","107001414",NA,250,"CLSEQ","3893",NA,"Both upper incisors broken.",NA,NA,NA
"GLP003","CO","CL","107001414",NA,251,"CLSEQ","3894",NA,"Both upper incisors broken.",NA,NA,NA
"GLP003","CO","CL","107001414",NA,252,"CLSEQ","3896",NA,"Both upper incisors broken. Haircoat stained yellow and wet on perigenital area.",NA,NA,NA
"GLP003","CO","CL","107001414",NA,253,"CLSEQ","3897",NA,"Both upper incisors broken. Haircoat stained yellow and wet on perigenital area.",NA,NA,NA
"GLP003","CO","CL","107001414",NA,254,"CLSEQ","3898",NA,"Both upper incisors broken. Haircoat stained yellow and wet on perigenital area.",NA,NA,NA
"GLP003","CO","CL","107001414",NA,255,"CLSEQ","3899",NA,"Both upper incisors broken. Haircoat stained yellow and wet on perigenital area.",NA,NA,NA
"GLP003","CO","CL","107001414",NA,256,"CLSEQ","3900",NA,"Both upper incisors broken. Haircoat stained yellow and wet on perigenital area.",NA,NA,NA
"GLP003","CO","CL","107001414",NA,257,"CLSEQ","3901",NA,"Both upper incisors broken. Haircoat stained yellow and wet on perigenital area.",NA,NA,NA
"GLP003","CO","CL","107001414",NA,258,"CLSEQ","3902",NA,"Both upper incisors broken. Haircoat stained yellow and wet on perigenital area.",NA,NA,NA
"GLP003","CO","CL","107001414",NA,259,"CLSEQ","3903",NA,"Both upper incisors broken. Haircoat stained yellow and wet on perigenital area.",NA,NA,NA
"GLP003","CO","CL","107001414",NA,260,"CLSEQ","3904",NA,"Both upper incisors broken. Haircoat stained yellow and wet on perigenital area.",NA,NA,NA
"GLP003","CO","CL","107001414",NA,261,"CLSEQ","3905",NA,"Both upper incisors broken. Haircoat stained yellow and wet on perigenital area.",NA,NA,NA
"GLP003","CO","CL","107001414",NA,262,"CLSEQ","3907",NA,"Both upper incisors broken. Haircoat stained yellow and wet on perigenital area.",NA,NA,NA
"GLP003","CO","CL","107001414",NA,263,"CLSEQ","3908",NA,"Both upper incisors broken. Haircoat stained yellow and wet on perigenital area.",NA,NA,NA
"GLP003","CO","CL","107001414",NA,264,"CLSEQ","3909",NA,"Both upper incisors broken. Haircoat stained yellow and wet on perigenital area.",NA,NA,NA
"GLP003","CO","CL","107001414",NA,265,"CLSEQ","3910",NA,"Both upper incisors broken. Haircoat stained yellow and wet on perigenital area.",NA,NA,NA
"GLP003","CO","CL","107001414",NA,266,"CLSEQ","3911",NA,"Both upper incisors broken. Haircoat stained yellow and wet on perigenital area.",NA,NA,NA
"GLP003","CO","CL","107001414",NA,267,"CLSEQ","3912",NA,"Both upper incisors broken. Haircoat stained yellow and wet on perigenital area.",NA,NA,NA
"GLP003","CO","CL","107001414",NA,268,"CLSEQ","3913",NA,"Both upper incisors broken. Haircoat stained yellow and wet on perigenital area.",NA,NA,NA
"GLP003","CO","CL","107001414",NA,269,"CLSEQ","3914",NA,"Both upper incisors broken. Haircoat stained yellow and wet on perigenital area.",NA,NA,NA
"GLP003","CO","CL","107001414",NA,270,"CLSEQ","3915",NA,"Both upper incisors broken. Haircoat stained yellow and wet on perigenital area.",NA,NA,NA
"GLP003","CO","CL","107001414",NA,271,"CLSEQ","3916",NA,"Both upper incisors broken. Haircoat stained yellow and wet on perigenital area.",NA,NA,NA
"GLP003","CO","CL","107001414",NA,272,"CLSEQ","3917",NA,"Both upper incisors broken. Haircoat stained yellow and wet on perigenital area.",NA,NA,NA
"GLP003","CO","CL","107001414",NA,273,"CLSEQ","3918",NA,"Both upper incisors broken. Haircoat stained yellow and wet on perigenital area.",NA,NA,NA
"GLP003","CO","CL","107001414",NA,274,"CLSEQ","3919",NA,"Both upper incisors broken. Haircoat stained yellow and wet on perigenital area.",NA,NA,NA
"GLP003","CO","CL","107001414",NA,275,"CLSEQ","3920",NA,"Both upper incisors broken. Haircoat stained yellow and wet on perigenital area.",NA,NA,NA
"GLP003","CO","CL","107001414",NA,276,"CLSEQ","3921",NA,"Both upper incisors broken. Haircoat stained yellow and wet on perigenital area.",NA,NA,NA
"GLP003","CO","CL","107001414",NA,277,"CLSEQ","3922",NA,"Both upper incisors broken. Haircoat stained yellow and wet on perigenital area.",NA,NA,NA
"GLP003","CO","CL","107001414",NA,278,"CLSEQ","3923",NA,"Both upper incisors broken. Haircoat stained yellow and wet on perigenital area.",NA,NA,NA
"GLP003","CO","CL","107001414",NA,279,"CLSEQ","3924",NA,"Both upper incisors broken. Haircoat stained yellow and wet on perigenital area.",NA,NA,NA
"GLP003","CO","CL","107001414",NA,280,"CLSEQ","3925",NA,"Both upper incisors broken. Haircoat stained yellow and wet on perigenital area.",NA,NA,NA
"GLP003","CO","CL","107001414",NA,281,"CLSEQ","3926",NA,"Both upper incisors broken. Haircoat stained yellow and wet on perigenital area.",NA,NA,NA
"GLP003","CO","CL","107001414",NA,282,"CLSEQ","3927",NA,"Both upper incisors broken. Haircoat stained yellow and wet on perigenital area.",NA,NA,NA
"GLP003","CO","CL","107001414",NA,283,"CLSEQ","3928",NA,"Both upper incisors broken. Haircoat stained yellow and wet on perigenital area.",NA,NA,NA
"GLP003","CO","CL","107001414",NA,284,"CLSEQ","3929",NA,"Both upper incisors broken. Haircoat stained yellow and wet on perigenital area.",NA,NA,NA
"GLP003","CO","CL","107001414",NA,285,"CLSEQ","3930",NA,"Both upper incisors broken. Haircoat stained yellow and wet on perigenital area.",NA,NA,NA
"GLP003","CO","CL","107001414",NA,286,"CLSEQ","3931",NA,"Both upper incisors broken. Haircoat stained yellow and wet on perigenital area.",NA,NA,NA
"GLP003","CO","CL","107001414",NA,287,"CLSEQ","3932",NA,"Both upper incisors broken. Haircoat stained yellow and wet on perigenital area.",NA,NA,NA
"GLP003","CO","CL","107001414",NA,288,"CLSEQ","3933",NA,"Both upper incisors broken. Haircoat stained yellow and wet on perigenital area.",NA,NA,NA
"GLP003","CO","CL","107001414",NA,289,"CLSEQ","3934",NA,"Both upper incisors broken. Haircoat stained yellow and wet on perigenital area.",NA,NA,NA
"GLP003","CO","CL","107001414",NA,290,"CLSEQ","3935",NA,"Both upper incisors broken. Haircoat stained yellow and wet on perigenital area.",NA,NA,NA
"GLP003","CO","CL","107001414",NA,291,"CLSEQ","3936",NA,"Both upper incisors broken. Haircoat stained yellow and wet on perigenital area.",NA,NA,NA
"GLP003","CO","CL","107001414",NA,292,"CLSEQ","3937",NA,"Both upper incisors broken.",NA,NA,NA
"GLP003","CO","CL","107001414",NA,293,"CLSEQ","3938",NA,"Both upper incisors broken.",NA,NA,NA
"GLP003","CO","CL","107001414",NA,294,"CLSEQ","3939",NA,"Both upper incisors broken.",NA,NA,NA
"GLP003","CO","CL","107001414",NA,295,"CLSEQ","3940",NA,"Both upper incisors broken.",NA,NA,NA
"GLP003","CO","CL","107001414",NA,296,"CLSEQ","3941",NA,"Both upper incisors broken.",NA,NA,NA
"GLP003","CO","CL","107001414",NA,297,"CLSEQ","3942",NA,"Both upper incisors broken.",NA,NA,NA
"GLP003","CO","CL","107001414",NA,298,"CLSEQ","3943",NA,"Both upper incisors broken.",NA,NA,NA
"GLP003","CO","CL","107001414",NA,299,"CLSEQ","3944",NA,"Both upper incisors broken.",NA,NA,NA
"GLP003","CO","CL","107001414",NA,300,"CLSEQ","3945",NA,"Both upper incisors broken.",NA,NA,NA
"GLP003","CO","CL","107001414",NA,301,"CLSEQ","3946",NA,"Both upper incisors broken.",NA,NA,NA
"GLP003","CO","CL","107001414",NA,302,"CLSEQ","3947",NA,"Both upper incisors broken.",NA,NA,NA
"GLP003","CO","CL","107001414",NA,303,"CLSEQ","3948",NA,"Both upper incisors broken.",NA,NA,NA
"GLP003","CO","CL","107001414",NA,304,"CLSEQ","3949",NA,"Both upper incisors broken.",NA,NA,NA
"GLP003","CO","CL","107001414",NA,305,"CLSEQ","3950",NA,"Both upper incisors broken.",NA,NA,NA
"GLP003","CO","CL","107001414",NA,306,"CLSEQ","3951",NA,"Both upper incisors broken.",NA,NA,NA
"GLP003","CO","CL","107001414",NA,307,"CLSEQ","3952",NA,"Both upper incisors broken.",NA,NA,NA
"GLP003","CO","CL","107001414",NA,308,"CLSEQ","3953",NA,"Both upper incisors broken.",NA,NA,NA
"GLP003","CO","CL","107001454",NA,309,"CLSEQ","4023",NA,"Wet haircoat around mouth.",NA,NA,NA
"GLP003","CO","CL","107001355",NA,310,"CLSEQ","4098",NA,"Wet haircoat around mouth.",NA,NA,NA
"GLP003","CO","CL","107001424",NA,311,"CLSEQ","4173",NA,"Haircoat stained red around mouth.",NA,NA,NA
"GLP003","CO","CL","107001438",NA,312,"CLSEQ","4194",NA,"multiple abrasions on both forelimbs",NA,NA,NA
"GLP003","CO","CL","107001438",NA,313,"CLSEQ","4195",NA,"multiple abrasions on both forelimbs",NA,NA,NA
"GLP003","CO","CL","107001438",NA,314,"CLSEQ","4204",NA,"Multiple abrasions on both forelimbs.",NA,NA,NA
"GLP003","CO","CL","107001438",NA,315,"CLSEQ","4205",NA,"Multiple abrasions on both forelimbs.",NA,NA,NA
"GLP003","CO","CL","107001438",NA,316,"CLSEQ","4206",NA,"Multiple abrasions on both forelimbs.",NA,NA,NA
"GLP003","CO","CL","107001438",NA,317,"CLSEQ","4207",NA,"Multiple abrasions on both forelimbs.",NA,NA,NA
"GLP003","CO","CL","107001438",NA,318,"CLSEQ","4208",NA,"Multiple abrasions on both forelimbs.",NA,NA,NA
"GLP003","CO","CL","107001438",NA,319,"CLSEQ","4209",NA,"Multiple abrasions on both forelimbs.",NA,NA,NA
"GLP003","CO","CL","107001438",NA,320,"CLSEQ","4210",NA,"Multiple abrasions on both forelimbs.",NA,NA,NA
"GLP003","CO","CL","107001438",NA,321,"CLSEQ","4211",NA,"Multiple abrasions on both forelimbs.",NA,NA,NA
"GLP003","CO","CL","107001438",NA,322,"CLSEQ","4212",NA,"Multiple abrasions on both forelimbs.",NA,NA,NA
"GLP003","CO","CL","107001398",NA,323,"CLSEQ","4408",NA,"Wet haircoat around mouth.",NA,NA,NA
"GLP003","CO","CL","107001398",NA,324,"CLSEQ","4409",NA,"Wet haircoat around mouth.",NA,NA,NA
"GLP003","CO","CL","107001517",NA,325,"CLSEQ","4588",NA,"Haircoat wet and stained yellow on perigenital area.",NA,NA,NA
"GLP003","CO","CL","107001517",NA,326,"CLSEQ","4589",NA,"Haircoat wet and stained yellow on perigenital area.",NA,NA,NA
"GLP003","CO","CL","107001517",NA,327,"CLSEQ","4591",NA,"Haircoat stained red on muzzle and yellow, perigenital.",NA,NA,NA
"GLP003","CO","CL","107001517",NA,328,"CLSEQ","4592",NA,"Haircoat stained red on muzzle and yellow, perigenital.",NA,NA,NA
"GLP003","CO","CL","107001517",NA,329,"CLSEQ","4593",NA,"Haircoat stained yellow and wet on perigenital area.",NA,NA,NA
"GLP003","CO","CL","107001517",NA,330,"CLSEQ","4594",NA,"Haircoat stained yellow and wet on perigenital area.",NA,NA,NA
"GLP003","CO","CL","107001545",NA,331,"CLSEQ","4609",NA,"Haircoat stained red on head.",NA,NA,NA
"GLP003","CO","CL","107001545",NA,332,"CLSEQ","4610",NA,"Haircoat stained red on head.",NA,NA,NA
"GLP003","CO","CL","107001545",NA,333,"CLSEQ","4611",NA,"Haircoat stained red on head.",NA,NA,NA
"GLP003","CO","CL","107001545",NA,334,"CLSEQ","4612",NA,"Haircoat stained red on head.",NA,NA,NA
"GLP003","CO","CL","107001545",NA,335,"CLSEQ","4613",NA,"Haircoat stained red on head.",NA,NA,NA
"GLP003","CO","CL","107001545",NA,336,"CLSEQ","4614",NA,"Haircoat stained red on head.",NA,NA,NA
"GLP003","CO","CL","107001545",NA,337,"CLSEQ","4615",NA,"Haircoat stained red on head.",NA,NA,NA
"GLP003","CO","CL","107001545",NA,338,"CLSEQ","4616",NA,"Haircoat stained red on head.",NA,NA,NA
"GLP003","CO","CL","107001545",NA,339,"CLSEQ","4617",NA,"Haircoat stained red on head.",NA,NA,NA
"GLP003","CO","CL","107001545",NA,340,"CLSEQ","4618",NA,"Haircoat stained red on head.",NA,NA,NA
"GLP003","CO","CL","107001545",NA,341,"CLSEQ","4619",NA,"Haircoat stained red on head.",NA,NA,NA
"GLP003","CO","CL","107001545",NA,342,"CLSEQ","4620",NA,"Haircoat stained red on head.",NA,NA,NA
"GLP003","CO","CL","107001545",NA,343,"CLSEQ","4621",NA,"Haircoat stained red on head.",NA,NA,NA
"GLP003","CO","CL","107001545",NA,344,"CLSEQ","4622",NA,"Haircoat stained red on head.",NA,NA,NA
"GLP003","CO","CL","107001545",NA,345,"CLSEQ","4623",NA,"Haircoat stained red on head.",NA,NA,NA
"GLP003","CO","CL","107001545",NA,346,"CLSEQ","4624",NA,"Haircoat stained red on head.",NA,NA,NA
"GLP003","CO","CL","107001545",NA,347,"CLSEQ","4625",NA,"Haircoat stained red on head.",NA,NA,NA
"GLP003","CO","CL","107001545",NA,348,"CLSEQ","4626",NA,"Haircoat stained red on head.",NA,NA,NA
"GLP003","CO","CL","107001545",NA,349,"CLSEQ","4627",NA,"Haircoat stained red on head.",NA,NA,NA
"GLP003","CO","CL","107001545",NA,350,"CLSEQ","4628",NA,"Haircoat stained red on head.",NA,NA,NA
"GLP003","CO","CL","107001545",NA,351,"CLSEQ","4629",NA,"Haircoat stained red on head.",NA,NA,NA
"GLP003","CO","CL","107001545",NA,352,"CLSEQ","4630",NA,"Haircoat stained red on head.",NA,NA,NA
"GLP003","CO","CL","107001545",NA,353,"CLSEQ","4631",NA,"Haircoat stained red on head.",NA,NA,NA
"GLP003","CO","CL","107001545",NA,354,"CLSEQ","4632",NA,"Haircoat stained red on head.",NA,NA,NA
"GLP003","CO","CL","107001545",NA,355,"CLSEQ","4633",NA,"Haircoat stained red on head.",NA,NA,NA
"GLP003","CO","CL","107001545",NA,356,"CLSEQ","4634",NA,"Ears stained red.",NA,NA,NA
"GLP003","CO","CL","107001545",NA,357,"CLSEQ","4635",NA,"Ears stained red.",NA,NA,NA
"GLP003","CO","CL","107001545",NA,358,"CLSEQ","4636",NA,"Ears stained red.",NA,NA,NA
"GLP003","CO","CL","107001545",NA,359,"CLSEQ","4637",NA,"Ears stained red.",NA,NA,NA
"GLP003","CO","CL","107001545",NA,360,"CLSEQ","4638",NA,"Ears stained red.",NA,NA,NA
"GLP003","CO","CL","107001545",NA,361,"CLSEQ","4639",NA,"Ears stained red.",NA,NA,NA
"GLP003","CO","CL","107001643",NA,362,"CLSEQ","4781",NA,"Haircoat stained red around mouth.",NA,NA,NA
"GLP003","CO","CL","107001643",NA,363,"CLSEQ","4784",NA,"Haircoat stained red on muzzle.",NA,NA,NA
"GLP003","CO","CL","107001643",NA,364,"CLSEQ","4785",NA,"Haircoat stained red on muzzle.",NA,NA,NA
"GLP003","CO","CL","107001515",NA,365,"CLSEQ","4817",NA,"Haircoat wet and stained yellow on perigenital area.",NA,NA,NA
"GLP003","CO","CL","107001515",NA,366,"CLSEQ","4818",NA,"Haircoat wet and stained yellow on perigenital area.",NA,NA,NA
"GLP003","CO","CL","107001515",NA,367,"CLSEQ","4819",NA,"Haircoat stained red on muzzle.",NA,NA,NA
"GLP003","CO","CL","107001521",NA,368,"CLSEQ","4853",NA,"Haircoat stained red around mouth.",NA,NA,NA
"GLP003","CO","CL","107001521",NA,369,"CLSEQ","4854",NA,"Haircoat stained red around mouth.",NA,NA,NA
"GLP003","CO","CL","107001521",NA,370,"CLSEQ","4855",NA,"Haircoat stained red around mouth.",NA,NA,NA
"GLP003","CO","CL","107001521",NA,371,"CLSEQ","4856",NA,"Haircoat stained red around mouth.",NA,NA,NA
"GLP003","CO","CL","107001521",NA,372,"CLSEQ","4857",NA,"Haircoat stained red around mouth.",NA,NA,NA
"GLP003","CO","CL","107001521",NA,373,"CLSEQ","4858",NA,"Haircoat stained red around mouth.",NA,NA,NA
"GLP003","CO","CL","107001521",NA,374,"CLSEQ","4859",NA,"Haircoat stained red around mouth.",NA,NA,NA
"GLP003","CO","CL","107001521",NA,375,"CLSEQ","4860",NA,"Haircoat stained red around mouth.",NA,NA,NA
"GLP003","CO","CL","107001521",NA,376,"CLSEQ","4862",NA,"Haircoat stained red around mouth.",NA,NA,NA
"GLP003","CO","CL","107001521",NA,377,"CLSEQ","4863",NA,"Haircoat stained red around mouth.",NA,NA,NA
"GLP003","CO","CL","107001566",NA,378,"CLSEQ","4966",NA,"focal scab right commisure of mouth",NA,NA,NA
"GLP003","CO","CL","107001566",NA,379,"CLSEQ","4967",NA,"focal scab right commisure of mouth",NA,NA,NA
"GLP003","CO","CL","107001566",NA,380,"CLSEQ","4968",NA,"focal scab right commisure of mouth",NA,NA,NA
"GLP003","CO","CL","107001566",NA,381,"CLSEQ","4978",NA,"Scab located on lower right corner of mouth.",NA,NA,NA
"GLP003","CO","CL","107001566",NA,382,"CLSEQ","4979",NA,"Scab located on lower right corner of mouth.",NA,NA,NA
"GLP003","CO","CL","107001566",NA,383,"CLSEQ","4980",NA,"Scab located on lower right corner of mouth.",NA,NA,NA
"GLP003","CO","CL","107001566",NA,384,"CLSEQ","4981",NA,"Scab located on lower right corner of mouth.",NA,NA,NA
"GLP003","CO","CL","107001566",NA,385,"CLSEQ","4982",NA,"Scab located on lower right corner of mouth.",NA,NA,NA
"GLP003","CO","CL","107001566",NA,386,"CLSEQ","4983",NA,"Scab located on lower right corner of mouth.",NA,NA,NA
"GLP003","CO","CL","107001566",NA,387,"CLSEQ","4984",NA,"Scab located on lower right corner of mouth.",NA,NA,NA
"GLP003","CO","CL","107001566",NA,388,"CLSEQ","4985",NA,"Scab located on lower right corner of mouth.",NA,NA,NA
"GLP003","CO","CL","107001566",NA,389,"CLSEQ","4986",NA,"Scab located on lower right corner of mouth.",NA,NA,NA
"GLP003","CO","CL","107001566",NA,390,"CLSEQ","4987",NA,"Scab located on lower right corner of mouth.",NA,NA,NA
"GLP003","CO","CL","107001566",NA,391,"CLSEQ","4988",NA,"Scab located on lower right corner of mouth.",NA,NA,NA
"GLP003","CO","CL","107001566",NA,392,"CLSEQ","4989",NA,"Scab located on lower right corner of mouth.",NA,NA,NA
"GLP003","CO","CL","107001566",NA,393,"CLSEQ","4990",NA,"Scab located on lower right corner of mouth. Haircoat stained red on left shoulder.",NA,NA,NA
"GLP003","CO","CL","107001566",NA,394,"CLSEQ","4991",NA,"Scab located on lower right corner of mouth. Haircoat stained red on left shoulder.",NA,NA,NA
"GLP003","CO","CL","107001566",NA,395,"CLSEQ","4992",NA,"Scab located on lower right corner of mouth. Haircoat stained red on left shoulder.",NA,NA,NA
"GLP003","CO","CL","107001566",NA,396,"CLSEQ","4993",NA,"Scab located on lower right corner of mouth. Haircoat stained red on left shoulder.",NA,NA,NA
"GLP003","CO","CL","107001566",NA,397,"CLSEQ","4994",NA,"Scab located on lower right corner of mouth. Haircoat stained red on left shoulder.",NA,NA,NA
"GLP003","CO","CL","107001566",NA,398,"CLSEQ","4995",NA,"Scab located on lower right corner of mouth. Haircoat stained red on left shoulder.",NA,NA,NA
"GLP003","CO","CL","107001566",NA,399,"CLSEQ","4996",NA,"Scab located on lower right corner of mouth. Haircoat stained red on left shoulder.",NA,NA,NA
"GLP003","CO","CL","107001566",NA,400,"CLSEQ","4997",NA,"Scab located on lower right corner of mouth. Haircoat stained red on left shoulder.",NA,NA,NA
"GLP003","CO","CL","107001566",NA,401,"CLSEQ","4998",NA,"Scab located on lower right corner of mouth. Haircoat stained red on left shoulder.",NA,NA,NA
"GLP003","CO","CL","107001566",NA,402,"CLSEQ","4999",NA,"Scab located on lower right corner of mouth. Haircoat stained red on left shoulder.",NA,NA,NA
"GLP003","CO","CL","107001566",NA,403,"CLSEQ","5000",NA,"Scab located on lower right corner of mouth. Haircoat stained red on left shoulder.",NA,NA,NA
"GLP003","CO","CL","107001566",NA,404,"CLSEQ","5001",NA,"Scab located on lower right corner of mouth. Haircoat stained red on left shoulder.",NA,NA,NA
"GLP003","CO","CL","107001566",NA,405,"CLSEQ","5002",NA,"Haircoat stained red on left shoulder.",NA,NA,NA
"GLP003","CO","CL","107001566",NA,406,"CLSEQ","5003",NA,"Haircoat stained red on left shoulder.",NA,NA,NA
"GLP003","CO","CL","107001566",NA,407,"CLSEQ","5004",NA,"Haircoat stained red on left shoulder.",NA,NA,NA
"GLP003","CO","CL","107001566",NA,408,"CLSEQ","5005",NA,"Haircoat stained red on left shoulder.",NA,NA,NA
"GLP003","CO","CL","107001566",NA,409,"CLSEQ","5006",NA,"Haircoat stained red on left shoulder.",NA,NA,NA
"GLP003","CO","CL","107001566",NA,410,"CLSEQ","5007",NA,"Haircoat stained red on left shoulder.",NA,NA,NA
"GLP003","CO","CL","107001566",NA,411,"CLSEQ","5008",NA,"Haircoat stained red on left shoulder.",NA,NA,NA
"GLP003","CO","CL","107001566",NA,412,"CLSEQ","5009",NA,"Haircoat stained red on left shoulder.",NA,NA,NA
"GLP003","CO","CL","107001566",NA,413,"CLSEQ","5010",NA,"Haircoat stained red on left shoulder.",NA,NA,NA
"GLP003","CO","CL","107001566",NA,414,"CLSEQ","5011",NA,"Haircoat stained red on left shoulder.",NA,NA,NA
"GLP003","CO","CL","107001566",NA,415,"CLSEQ","5012",NA,"Haircoat stained red on left shoulder.",NA,NA,NA
"GLP003","CO","CL","107001566",NA,416,"CLSEQ","5013",NA,"Haircoat stained red on left shoulder.",NA,NA,NA
"GLP003","CO","CL","107001566",NA,417,"CLSEQ","5014",NA,"Haircoat stained red on left shoulder.",NA,NA,NA
"GLP003","CO","CL","107001566",NA,418,"CLSEQ","5015",NA,"Haircoat stained red on left shoulder.",NA,NA,NA
"GLP003","CO","CL","107001566",NA,419,"CLSEQ","5016",NA,"Haircoat stained red on left shoulder.",NA,NA,NA
"GLP003","CO","CL","107001566",NA,420,"CLSEQ","5017",NA,"Haircoat stained red on left shoulder.",NA,NA,NA
"GLP003","CO","CL","107001566",NA,421,"CLSEQ","5018",NA,"Haircoat stained red on left shoulder.",NA,NA,NA
"GLP003","CO","CL","107001566",NA,422,"CLSEQ","5019",NA,"Haircoat stained red on left shoulder.",NA,NA,NA
"GLP003","CO","CL","107001566",NA,423,"CLSEQ","5020",NA,"Haircoat stained red on left shoulder.",NA,NA,NA
"GLP003","CO","CL","107001566",NA,424,"CLSEQ","5021",NA,"Haircoat stained red on left shoulder.",NA,NA,NA
"GLP003","CO","CL","107001566",NA,425,"CLSEQ","5022",NA,"Haircoat stained red on left shoulder.",NA,NA,NA
"GLP003","CO","CL","107001566",NA,426,"CLSEQ","5023",NA,"Haircoat stained red on left shoulder.",NA,NA,NA
"GLP003","CO","CL","107001566",NA,427,"CLSEQ","5024",NA,"Haircoat stained red on left shoulder.",NA,NA,NA
"GLP003","CO","CL","107001566",NA,428,"CLSEQ","5025",NA,"Haircoat stained red on left shoulder.",NA,NA,NA
"GLP003","CO","CL","107001566",NA,429,"CLSEQ","5026",NA,"Haircoat stained red on left shoulder.",NA,NA,NA
"GLP003","CO","CL","107001566",NA,430,"CLSEQ","5027",NA,"Haircoat stained red on left shoulder.",NA,NA,NA
"GLP003","CO","CL","107001566",NA,431,"CLSEQ","5028",NA,"Haircoat stained red on left shoulder.",NA,NA,NA
"GLP003","CO","CL","107001566",NA,432,"CLSEQ","5029",NA,"Haircoat stained red on left shoulder.",NA,NA,NA
"GLP003","CO","CL","107001566",NA,433,"CLSEQ","5030",NA,"Haircoat stained red on left shoulder.",NA,NA,NA
"GLP003","CO","CL","107001566",NA,434,"CLSEQ","5031",NA,"Haircoat stained red on left shoulder.",NA,NA,NA
"GLP003","CO","CL","107001566",NA,435,"CLSEQ","5032",NA,"Haircoat stained red on left shoulder.",NA,NA,NA
"GLP003","CO","CL","107001566",NA,436,"CLSEQ","5033",NA,"Haircoat stained red on left shoulder.",NA,NA,NA
"GLP003","CO","CL","107001566",NA,437,"CLSEQ","5034",NA,"Haircoat stained red on left shoulder.",NA,NA,NA
"GLP003","CO","CL","107001566",NA,438,"CLSEQ","5035",NA,"Haircoat stained red on both shoulders.",NA,NA,NA
"GLP003","CO","CL","107001566",NA,439,"CLSEQ","5036",NA,"Haircoat stained red on both shoulders.",NA,NA,NA
"GLP003","CO","CL","107001566",NA,440,"CLSEQ","5037",NA,"Haircoat stained red on both shoulders.",NA,NA,NA
"GLP003","CO","CL","107001566",NA,441,"CLSEQ","5038",NA,"Haircoat stained red on both shoulders.",NA,NA,NA
"GLP003","CO","CL","107001566",NA,442,"CLSEQ","5039",NA,"Haircoat stained red on both shoulders.",NA,NA,NA
"GLP003","CO","CL","107001566",NA,443,"CLSEQ","5040",NA,"Haircoat stained red on both shoulders.",NA,NA,NA
"GLP003","CO","CL","107001566",NA,444,"CLSEQ","5041",NA,"Haircoat stained red on both shoulders.",NA,NA,NA
"GLP003","CO","CL","107001566",NA,445,"CLSEQ","5042",NA,"Haircoat stained red on both shoulders.",NA,NA,NA
"GLP003","CO","CL","107001566",NA,446,"CLSEQ","5043",NA,"Haircoat stained red on both shoulders.",NA,NA,NA
"GLP003","CO","CL","107001566",NA,447,"CLSEQ","5044",NA,"Haircoat stained red on both shoulders.",NA,NA,NA
"GLP003","CO","CL","107001566",NA,448,"CLSEQ","5045",NA,"Haircoat stained red on both shoulders.",NA,NA,NA
"GLP003","CO","CL","107001566",NA,449,"CLSEQ","5046",NA,"Haircoat stained red on both shoulders.",NA,NA,NA
"GLP003","CO","CL","107001566",NA,450,"CLSEQ","5047",NA,"Haircoat stained red on both shoulders.",NA,NA,NA
"GLP003","CO","CL","107001566",NA,451,"CLSEQ","5048",NA,"Haircoat stained red on both shoulders.",NA,NA,NA
"GLP003","CO","CL","107001566",NA,452,"CLSEQ","5049",NA,"Haircoat stained red on both shoulders.",NA,NA,NA
"GLP003","CO","CL","107001566",NA,453,"CLSEQ","5050",NA,"Haircoat stained red on both shoulders.",NA,NA,NA
"GLP003","CO","CL","107001566",NA,454,"CLSEQ","5051",NA,"Haircoat stained red on both shoulders.",NA,NA,NA
"GLP003","CO","CL","107001566",NA,455,"CLSEQ","5052",NA,"Haircoat stained red on both shoulders.",NA,NA,NA
"GLP003","CO","CL","107001566",NA,456,"CLSEQ","5053",NA,"Haircoat stained red on both shoulders.",NA,NA,NA
"GLP003","CO","CL","107001566",NA,457,"CLSEQ","5054",NA,"Haircoat stained red on both shoulders.",NA,NA,NA
"GLP003","CO","CL","107001566",NA,458,"CLSEQ","5055",NA,"Haircoat stained red on both shoulders.",NA,NA,NA
"GLP003","CO","CL","107001638",NA,459,"CLSEQ","5182",NA,"Haircoat stained red on dorsal neck.",NA,NA,NA
"GLP003","CO","CL","107001638",NA,460,"CLSEQ","5183",NA,"Haircoat stained red on dorsal neck.",NA,NA,NA
"GLP003","CO","CL","107001638",NA,461,"CLSEQ","5184",NA,"Haircoat stained red on dorsal neck.",NA,NA,NA
"GLP003","CO","CL","107001638",NA,462,"CLSEQ","5185",NA,"Haircoat stained red on dorsal neck.",NA,NA,NA
"GLP003","CO","CL","107001638",NA,463,"CLSEQ","5186",NA,"Haircoat stained red on dorsal neck.",NA,NA,NA
"GLP003","CO","CL","107001638",NA,464,"CLSEQ","5187",NA,"Haircoat stained red on dorsal neck.",NA,NA,NA
"GLP003","CO","CL","107001638",NA,465,"CLSEQ","5188",NA,"Haircoat stained red on dorsal neck.",NA,NA,NA
"GLP003","CO","CL","107001638",NA,466,"CLSEQ","5191",NA,"Haircoat stained red on dorsal neck.",NA,NA,NA
"GLP003","CO","CL","107001638",NA,467,"CLSEQ","5192",NA,"Haircoat stained red on dorsal neck.",NA,NA,NA
"GLP003","CO","CL","107001638",NA,468,"CLSEQ","5193",NA,"Haircoat stained red on dorsal neck.",NA,NA,NA
"GLP003","CO","CL","107001638",NA,469,"CLSEQ","5194",NA,"Haircoat stained red on dorsal neck.",NA,NA,NA
"GLP003","CO","CL","107001638",NA,470,"CLSEQ","5195",NA,"Haircoat stained red on dorsal neck.",NA,NA,NA
"GLP003","CO","CL","107001638",NA,471,"CLSEQ","5196",NA,"Haircoat stained red on dorsal neck.",NA,NA,NA
"GLP003","CO","CL","107001638",NA,472,"CLSEQ","5197",NA,"Haircoat stained red on dorsal neck.",NA,NA,NA
"GLP003","CO","CL","107001638",NA,473,"CLSEQ","5198",NA,"Haircoat stained red on dorsal neck.",NA,NA,NA
"GLP003","CO","CL","107001638",NA,474,"CLSEQ","5199",NA,"Haircoat stained red on dorsal neck.",NA,NA,NA
"GLP003","CO","CL","107001638",NA,475,"CLSEQ","5200",NA,"Haircoat stained red on dorsal neck.",NA,NA,NA
"GLP003","CO","CL","107001638",NA,476,"CLSEQ","5201",NA,"Haircoat stained red on dorsal neck.",NA,NA,NA
"GLP003","CO","CL","107001638",NA,477,"CLSEQ","5202",NA,"Haircoat stained red on dorsal neck.",NA,NA,NA
"GLP003","CO","CL","107001638",NA,478,"CLSEQ","5203",NA,"Haircoat stained red on dorsal neck.",NA,NA,NA
"GLP003","CO","CL","107001449",NA,479,"CLSEQ","5239",NA,"Haircoat stained red around muzzle.",NA,NA,NA
"GLP003","CO","CL","107001477",NA,480,"CLSEQ","5387",NA,"Haircoat stained red around mouth.",NA,NA,NA
"GLP003","CO","CL","107001477",NA,481,"CLSEQ","5388",NA,"Haircoat stained red around mouth.",NA,NA,NA
"GLP003","CO","CL","107001369",NA,482,"CLSEQ","5422",NA,"Wet haircoat around mouth.",NA,NA,NA
"GLP003","CO","CL","107001350",NA,483,"CLSEQ","5564",NA,"Haircoat thin right lateral side of abdomen",NA,NA,NA
"GLP003","CO","CL","107001350",NA,484,"CLSEQ","5565",NA,"Thin haircoat on right lateral side of abdomen.",NA,NA,NA
"GLP003","CO","CL","107001350",NA,485,"CLSEQ","5566",NA,"Thin haircoat on right lateral side of abdomen.",NA,NA,NA
"GLP003","CO","CL","107001350",NA,486,"CLSEQ","5567",NA,"Thin haircoat on right lateral side of abdomen.",NA,NA,NA
"GLP003","CO","CL","107001350",NA,487,"CLSEQ","5568",NA,"Thin haircoat on right lateral side of abdomen.",NA,NA,NA
"GLP003","CO","CL","107001350",NA,488,"CLSEQ","5569",NA,"Thin haircoat on right lateral side of abdomen.",NA,NA,NA
"GLP003","CO","CL","107001350",NA,489,"CLSEQ","5570",NA,"Thin haircoat on right lateral side of abdomen.",NA,NA,NA
"GLP003","CO","CL","107001350",NA,490,"CLSEQ","5571",NA,"Thin haircoat on right lateral side of abdomen.",NA,NA,NA
"GLP003","CO","CL","107001350",NA,491,"CLSEQ","5572",NA,"Thin haircoat on right lateral side of abdomen.",NA,NA,NA
"GLP003","CO","CL","107001350",NA,492,"CLSEQ","5574",NA,"Thin haircoat on right lateral side of abdomen.",NA,NA,NA
"GLP003","CO","CL","107001350",NA,493,"CLSEQ","5575",NA,"Thin haircoat on right lateral side of abdomen.",NA,NA,NA
"GLP003","CO","CL","107001350",NA,494,"CLSEQ","5576",NA,"Thin haircoat on right lateral side of abdomen.",NA,NA,NA
"GLP003","CO","CL","107001350",NA,495,"CLSEQ","5577",NA,"Thin haircoat on right lateral side of abdomen.",NA,NA,NA
"GLP003","CO","CL","107001350",NA,496,"CLSEQ","5578",NA,"Thin haircoat on right lateral side of abdomen.",NA,NA,NA
"GLP003","CO","CL","107001350",NA,497,"CLSEQ","5579",NA,"Thin haircoat on right lateral side of abdomen.",NA,NA,NA
"GLP003","CO","CL","107001350",NA,498,"CLSEQ","5580",NA,"Thin haircoat on right lateral side of abdomen.",NA,NA,NA
"GLP003","CO","CL","107001350",NA,499,"CLSEQ","5581",NA,"Thin haircoat on right lateral side of abdomen.",NA,NA,NA
"GLP003","CO","CL","107001350",NA,500,"CLSEQ","5583",NA,"Thin haircoat on right lateral side of abdomen.",NA,NA,NA
"GLP003","CO","CL","107001350",NA,501,"CLSEQ","5584",NA,"Thin haircoat on right lateral side of abdomen.",NA,NA,NA
"GLP003","CO","CL","107001350",NA,502,"CLSEQ","5585",NA,"Thin haircoat on right lateral side of abdomen.",NA,NA,NA
"GLP003","CO","CL","107001350",NA,503,"CLSEQ","5586",NA,"Thin haircoat on right lateral side of abdomen.",NA,NA,NA
"GLP003","CO","CL","107001350",NA,504,"CLSEQ","5587",NA,"Thin haircoat on right lateral side of abdomen.",NA,NA,NA
"GLP003","CO","CL","107001350",NA,505,"CLSEQ","5588",NA,"Thin haircoat on right lateral side of abdomen.",NA,NA,NA
"GLP003","CO","CL","107001350",NA,506,"CLSEQ","5589",NA,"Thin haircoat on right lateral side of abdomen.",NA,NA,NA
"GLP003","CO","CL","107001485",NA,507,"CLSEQ","5734",NA,"Head stained red.",NA,NA,NA
"GLP003","CO","CL","107001485",NA,508,"CLSEQ","5735",NA,"Head stained red.",NA,NA,NA
"GLP003","CO","CL","107001485",NA,509,"CLSEQ","5736",NA,"Head stained red.",NA,NA,NA
"GLP003","CO","CL","107001485",NA,510,"CLSEQ","5737",NA,"Head stained red.",NA,NA,NA
"GLP003","CO","CL","107001485",NA,511,"CLSEQ","5738",NA,"Head stained red.",NA,NA,NA
"GLP003","CO","CL","107001485",NA,512,"CLSEQ","5739",NA,"Head stained red.",NA,NA,NA
"GLP003","CO","CL","107001485",NA,513,"CLSEQ","5740",NA,"Head stained red.",NA,NA,NA
"GLP003","CO","CL","107001485",NA,514,"CLSEQ","5741",NA,"Head stained red.",NA,NA,NA
"GLP003","CO","CL","107001485",NA,515,"CLSEQ","5742",NA,"Head stained red.",NA,NA,NA
"GLP003","CO","CL","107001435",NA,516,"CLSEQ","5756",NA,"scabs present on head behind both pinnae. Left pinnae also has multifocal scabs and right pinnae has focal scab.",NA,NA,NA
"GLP003","CO","CL","107001435",NA,517,"CLSEQ","5757",NA,"scabs present on head behind both pinnae. Left pinnae also has multifocal scabs and right pinnae has focal scab.",NA,NA,NA
"GLP003","CO","CL","107001435",NA,518,"CLSEQ","5758",NA,"scabs present on head behind both pinnae. Left pinnae also has multifocal scabs and right pinnae has focal scab.",NA,NA,NA
"GLP003","CO","CL","107001435",NA,519,"CLSEQ","5759",NA,"scabs present on head behind both pinnae. Left pinnae also has multifocal scabs and right pinnae has focal scab.",NA,NA,NA
"GLP003","CO","CL","107001435",NA,520,"CLSEQ","5760",NA,"scabs present on head behind both pinnae. Left pinnae also has multifocal scabs and right pinnae has focal scab.",NA,NA,NA
"GLP003","CO","CL","107001435",NA,521,"CLSEQ","5776",NA,"Multifocal scabs on head, around left ear.",NA,NA,NA
"GLP003","CO","CL","107001435",NA,522,"CLSEQ","5777",NA,"Multifocal scabs on head, around left ear.",NA,NA,NA
"GLP003","CO","CL","107001435",NA,523,"CLSEQ","5778",NA,"Multifocal scabs on head, around left ear.",NA,NA,NA
"GLP003","CO","CL","107001435",NA,524,"CLSEQ","5779",NA,"Multifocal scabs on head, around left ear.",NA,NA,NA
"GLP003","CO","CL","107001435",NA,525,"CLSEQ","5780",NA,"Multifocal scabs on head, around left ear.",NA,NA,NA
"GLP003","CO","CL","107001435",NA,526,"CLSEQ","5781",NA,"Multifocal scabs on head, around left ear.",NA,NA,NA
"GLP003","CO","CL","107001435",NA,527,"CLSEQ","5782",NA,"Multifocal scabs on head, around left ear.",NA,NA,NA
"GLP003","CO","CL","107001435",NA,528,"CLSEQ","5783",NA,"Multifocal scabs on head, around left ear.",NA,NA,NA
"GLP003","CO","CL","107001435",NA,529,"CLSEQ","5784",NA,"Multifocal scabs on head, around left ear.",NA,NA,NA
"GLP003","CO","CL","107001435",NA,530,"CLSEQ","5785",NA,"Multifocal scabs on head, around left ear.",NA,NA,NA
"GLP003","CO","CL","107001435",NA,531,"CLSEQ","5786",NA,"Multifocal scabs on head, around left ear.",NA,NA,NA
"GLP003","CO","CL","107001435",NA,532,"CLSEQ","5787",NA,"Multifocal scabs on head, around left ear.",NA,NA,NA
"GLP003","CO","CL","107001435",NA,533,"CLSEQ","5788",NA,"Multifocal scabs on head, around right ear.",NA,NA,NA
"GLP003","CO","CL","107001435",NA,534,"CLSEQ","5789",NA,"Multifocal scabs on head, around right ear.",NA,NA,NA
"GLP003","CO","CL","107001435",NA,535,"CLSEQ","5790",NA,"Multifocal scabs on head, around right ear.",NA,NA,NA
"GLP003","CO","CL","107001435",NA,536,"CLSEQ","5791",NA,"Multifocal scabs on head, around right ear.",NA,NA,NA
"GLP003","CO","CL","107001435",NA,537,"CLSEQ","5792",NA,"Multifocal scabs on head, around right ear.",NA,NA,NA
"GLP003","CO","CL","107001435",NA,538,"CLSEQ","5793",NA,"Multifocal scabs on head, around right ear.",NA,NA,NA
"GLP003","CO","CL","107001435",NA,539,"CLSEQ","5794",NA,"Multifocal scabs on head, around right ear.",NA,NA,NA
"GLP003","CO","CL","107001435",NA,540,"CLSEQ","5795",NA,"Multifocal scabs on head, around right ear.",NA,NA,NA
"GLP003","CO","CL","107001435",NA,541,"CLSEQ","5796",NA,"Multifocal scabs on head, around right ear.",NA,NA,NA
"GLP003","CO","CL","107001435",NA,542,"CLSEQ","5797",NA,"Multifocal scabs on head, around right ear.",NA,NA,NA
"GLP003","CO","CL","107001435",NA,543,"CLSEQ","5798",NA,"Multifocal scabs on head, around right ear.",NA,NA,NA
"GLP003","CO","CL","107001435",NA,544,"CLSEQ","5799",NA,"Multifocal scabs on head, around right ear.",NA,NA,NA
"GLP003","CO","CL","107001435",NA,545,"CLSEQ","5800",NA,"Multifocal scabs on head, around right ear.",NA,NA,NA
"GLP003","CO","CL","107001435",NA,546,"CLSEQ","5807",NA,"Haicoat stained red on muzzle.",NA,NA,NA
"GLP003","CO","CL","107001435",NA,547,"CLSEQ","5808",NA,"Haicoat stained red on muzzle.",NA,NA,NA
"GLP003","CO","CL","107001435",NA,548,"CLSEQ","5809",NA,"Haicoat stained red on muzzle.",NA,NA,NA
"GLP003","CO","CL","107001435",NA,549,"CLSEQ","5810",NA,"Haicoat stained red on muzzle.",NA,NA,NA
"GLP003","CO","CL","107001435",NA,550,"CLSEQ","5811",NA,"Haicoat stained red on muzzle.",NA,NA,NA
"GLP003","CO","CL","107001435",NA,551,"CLSEQ","5812",NA,"Haicoat stained red on muzzle.",NA,NA,NA
"GLP003","CO","CL","107001383",NA,552,"CLSEQ","5904",NA,"Wet haircoat around mouth.",NA,NA,NA
"GLP003","CO","CL","107001617",NA,553,"CLSEQ","5973",NA,"Haircoat stained red on mouth and both forefeet.",NA,NA,NA
"GLP003","CO","CL","107001617",NA,554,"CLSEQ","5974",NA,"Haircoat stained red on mouth and both forefeet.",NA,NA,NA
"GLP003","CO","CL","107001617",NA,555,"CLSEQ","5975",NA,"Haircoat stained red on mouth and both forefeet.",NA,NA,NA
"GLP003","CO","CL","107001617",NA,556,"CLSEQ","5976",NA,"Haircoat stained red on mouth and both forefeet.",NA,NA,NA
"GLP003","CO","CL","107001617",NA,557,"CLSEQ","5977",NA,"Haircoat stained red on mouth and both forefeet.",NA,NA,NA
"GLP003","CO","CL","107001617",NA,558,"CLSEQ","5978",NA,"Haircoat stained red on mouth and both forefeet.",NA,NA,NA
"GLP003","CO","CL","107001617",NA,559,"CLSEQ","5979",NA,"Haircoat stained red on mouth and both forefeet.",NA,NA,NA
"GLP003","CO","CL","107001617",NA,560,"CLSEQ","5980",NA,"Haircoat stained red on mouth and both forefeet.",NA,NA,NA
"GLP003","CO","CL","107001578",NA,561,"CLSEQ","6011",NA,"haircoat stained red on muzzle.",NA,NA,NA
"GLP003","CO","CL","107001578",NA,562,"CLSEQ","6012",NA,"Focal scab on left side of mouth.",NA,NA,NA
"GLP003","CO","CL","107001578",NA,563,"CLSEQ","6013",NA,"Focal scab on left side of mouth.",NA,NA,NA
"GLP003","CO","CL","107001571",NA,564,"CLSEQ","6048",NA,"Haircoat wet and stained yellow on perigenital area.",NA,NA,NA
"GLP003","CO","CL","107001571",NA,565,"CLSEQ","6049",NA,"Haircoat wet and stained yellow on perigenital area.",NA,NA,NA
"GLP003","CO","CL","107001571",NA,566,"CLSEQ","6050",NA,"Haircoat wet and stained yellow on perigenital area.",NA,NA,NA
"GLP003","CO","CL","107001571",NA,567,"CLSEQ","6051",NA,"Haircoat wet and stained yellow on perigenital area.",NA,NA,NA
"GLP003","CO","CL","107001532",NA,568,"CLSEQ","6079",NA,"Scab located on right lower corner of mouth.",NA,NA,NA
"GLP003","CO","CL","107001532",NA,569,"CLSEQ","6080",NA,"Scab located on right lower corner of mouth.",NA,NA,NA
"GLP003","CO","CL","107001532",NA,570,"CLSEQ","6081",NA,"Scab located on right lower corner of mouth.",NA,NA,NA
"GLP003","CO","CL","107001532",NA,571,"CLSEQ","6082",NA,"Scab located on right lower corner of mouth.",NA,NA,NA
"GLP003","CO","CL","107001532",NA,572,"CLSEQ","6083",NA,"Scab located on right lower corner of mouth.",NA,NA,NA
"GLP003","CO","CL","107001532",NA,573,"CLSEQ","6084",NA,"Scab located on right lower corner of mouth.",NA,NA,NA
"GLP003","CO","CL","107001522",NA,574,"CLSEQ","6118",NA,"Wet haircoat around mouth.",NA,NA,NA
"GLP003","CO","CL","107001522",NA,575,"CLSEQ","6119",NA,"Wet haircoat around mouth.",NA,NA,NA
"GLP003","CO","CL","107001610",NA,576,"CLSEQ","6149",NA,"Haircoat on head stained red.",NA,NA,NA
"GLP003","CO","CL","107001610",NA,577,"CLSEQ","6150",NA,"Haircoat on head stained red.",NA,NA,NA
"GLP003","CO","CL","107001610",NA,578,"CLSEQ","6151",NA,"Haircoat on head stained red.",NA,NA,NA
"GLP003","CO","CL","107001610",NA,579,"CLSEQ","6152",NA,"Haircoat on head stained red.",NA,NA,NA
"GLP003","CO","CL","107001610",NA,580,"CLSEQ","6153",NA,"Haircoat on head stained red.",NA,NA,NA
"GLP003","CO","CL","107001610",NA,581,"CLSEQ","6154",NA,"Haircoat stained red on head.",NA,NA,NA
"GLP003","CO","CL","107001610",NA,582,"CLSEQ","6155",NA,"Haircoat stained red on head.",NA,NA,NA
"GLP003","CO","CL","107001610",NA,583,"CLSEQ","6157",NA,"Haircoat stained red on head. Haircoat wet around mouth.",NA,NA,NA
"GLP003","CO","CL","107001610",NA,584,"CLSEQ","6158",NA,"Haircoat stained red on head. Haircoat wet around mouth.",NA,NA,NA
"GLP003","CO","CL","107001504",NA,585,"CLSEQ","6177",NA,"Head stained red.",NA,NA,NA
"GLP003","CO","CL","107001504",NA,586,"CLSEQ","6178",NA,"Head stained red.",NA,NA,NA
"GLP003","CO","CL","107001504",NA,587,"CLSEQ","6179",NA,"Haircoat on head stained red.",NA,NA,NA
"GLP003","CO","CL","107001504",NA,588,"CLSEQ","6180",NA,"Haircoat on head stained red.",NA,NA,NA
"GLP003","CO","CL","107001504",NA,589,"CLSEQ","6181",NA,"Haircoat on head stained red.",NA,NA,NA
"GLP003","CO","CL","107001504",NA,590,"CLSEQ","6182",NA,"Haircoat on head stained red.",NA,NA,NA
"GLP003","CO","CL","107001504",NA,591,"CLSEQ","6183",NA,"Haircoat on head stained red.",NA,NA,NA
"GLP003","CO","CL","107001504",NA,592,"CLSEQ","6184",NA,"Haircoat on head stained red.",NA,NA,NA
"GLP003","CO","CL","107001504",NA,593,"CLSEQ","6185",NA,"Haircoat on head stained red.",NA,NA,NA
"GLP003","CO","CL","107001504",NA,594,"CLSEQ","6186",NA,"Haircoat on head stained red.",NA,NA,NA
"GLP003","CO","CL","107001504",NA,595,"CLSEQ","6187",NA,"Haircoat on head stained red.",NA,NA,NA
"GLP003","CO","CL","107001504",NA,596,"CLSEQ","6188",NA,"Haircoat on head stained red.",NA,NA,NA
"GLP003","CO","CL","107001504",NA,597,"CLSEQ","6189",NA,"Haircoat on head stained red.",NA,NA,NA
"GLP003","CO","CL","107001504",NA,598,"CLSEQ","6190",NA,"Haircoat on head stained red.",NA,NA,NA
"GLP003","CO","CL","107001504",NA,599,"CLSEQ","6191",NA,"Haircoat on head stained red.",NA,NA,NA
"GLP003","CO","CL","107001504",NA,600,"CLSEQ","6192",NA,"Haircoat on head stained red.",NA,NA,NA
"GLP003","CO","CL","107001504",NA,601,"CLSEQ","6193",NA,"Haircoat on head, muzzle, and both forefeet stained red.",NA,NA,NA
"GLP003","CO","CL","107001504",NA,602,"CLSEQ","6194",NA,"Haircoat on head, muzzle, and both forefeet stained red.",NA,NA,NA
"GLP003","CO","CL","107001504",NA,603,"CLSEQ","6195",NA,"Haircoat on head, muzzle, and both forefeet stained red.",NA,NA,NA
"GLP003","CO","CL","107001504",NA,604,"CLSEQ","6196",NA,"Haircoat on head, muzzle, and both forefeet stained red.",NA,NA,NA
"GLP003","CO","CL","107001504",NA,605,"CLSEQ","6197",NA,"Haircoat on head, muzzle, and both forefeet stained red.",NA,NA,NA
"GLP003","CO","CL","107001504",NA,606,"CLSEQ","6198",NA,"Haircoat on head, muzzle, and both forefeet stained red.",NA,NA,NA
"GLP003","CO","CL","107001504",NA,607,"CLSEQ","6199",NA,"Haircoat on head, muzzle, and both forefeet stained red.",NA,NA,NA
"GLP003","CO","CL","107001504",NA,608,"CLSEQ","6200",NA,"Haircoat on head, muzzle, and both forefeet stained red.",NA,NA,NA
"GLP003","CO","CL","107001504",NA,609,"CLSEQ","6201",NA,"Haircoat on head stained red.",NA,NA,NA
"GLP003","CO","CL","107001504",NA,610,"CLSEQ","6203",NA,"Haircoat on head stained red.",NA,NA,NA
"GLP003","CO","CL","107001504",NA,611,"CLSEQ","6204",NA,"Haircoat on head stained red.",NA,NA,NA
"GLP003","CO","CL","107001504",NA,612,"CLSEQ","6205",NA,"Haircoat on head stained red. Haircoat wet around mouth.",NA,NA,NA
"GLP003","CO","CL","107001504",NA,613,"CLSEQ","6206",NA,"Haircoat on head stained red. Haircoat wet around mouth.",NA,NA,NA
"GLP003","CO","CL","107001536",NA,614,"CLSEQ","6236",NA,"Scab located on middle of lower lip.",NA,NA,NA
"GLP003","CO","CL","107001536",NA,615,"CLSEQ","6237",NA,"Scab located on middle of lower lip.",NA,NA,NA
"GLP003","CO","CL","107001633",NA,616,"CLSEQ","6263",NA,"Haircoat wet and stained yellow on perigenital area.",NA,NA,NA
"GLP003","CO","CL","107001633",NA,617,"CLSEQ","6264",NA,"Haircoat wet and stained yellow on perigenital area.",NA,NA,NA
"GLP003","CO","CL","107001633",NA,618,"CLSEQ","6265",NA,"Haircoat stained yellow around perigenital area.",NA,NA,NA
"GLP003","CO","CL","107001633",NA,619,"CLSEQ","6266",NA,"Haircoat stained yellow around perigenital area.",NA,NA,NA
"GLP003","CO","CL","107001633",NA,620,"CLSEQ","6267",NA,"Haircoat stained yellow around perigenital area.",NA,NA,NA
"GLP003","CO","CL","107001633",NA,621,"CLSEQ","6268",NA,"Haircoat stained yellow around perigenital area.",NA,NA,NA
"GLP003","CO","CL","107001633",NA,622,"CLSEQ","6269",NA,"Haircoat stained yellow around perigenital area.",NA,NA,NA
"GLP003","CO","CL","107001633",NA,623,"CLSEQ","6270",NA,"Haircoat stained yellow around perigenital area.",NA,NA,NA
"GLP003","CO","CL","107001633",NA,624,"CLSEQ","6271",NA,"Haircoat stained yellow around perigenital area.",NA,NA,NA
"GLP003","CO","CL","107001633",NA,625,"CLSEQ","6272",NA,"Haircoat stained yellow around perigenital area.",NA,NA,NA
"GLP003","CO","CL","107001633",NA,626,"CLSEQ","6273",NA,"Haircoat stained yellow around perigenital area.",NA,NA,NA
"GLP003","CO","CL","107001633",NA,627,"CLSEQ","6274",NA,"Haircoat stained yellow around perigenital area.",NA,NA,NA
"GLP003","CO","CL","107001633",NA,628,"CLSEQ","6275",NA,"Haircoat stained yellow around perigenital area.",NA,NA,NA
"GLP003","CO","CL","107001633",NA,629,"CLSEQ","6276",NA,"Haircoat stained yellow around perigenital area.",NA,NA,NA
"GLP003","CO","CL","107001633",NA,630,"CLSEQ","6277",NA,"Haircoat stained yellow around perigenital area.",NA,NA,NA
"GLP003","CO","CL","107001633",NA,631,"CLSEQ","6278",NA,"Haircoat stained yellow around perigenital area.",NA,NA,NA
"GLP003","CO","CL","107001633",NA,632,"CLSEQ","6279",NA,"Haircoat wet and stained yellow on perigenital area.",NA,NA,NA
"GLP003","CO","CL","107001633",NA,633,"CLSEQ","6280",NA,"Haircoat wet and stained yellow on perigenital area.",NA,NA,NA
"GLP003","CO","CL","107001633",NA,634,"CLSEQ","6282",NA,"Haircoat stained red on both forefeet.",NA,NA,NA
"GLP003","CO","CL","107001633",NA,635,"CLSEQ","6283",NA,"Haircoat stained red on both forefeet.",NA,NA,NA
"GLP003","CO","CL","107001633",NA,636,"CLSEQ","6285",NA,"Haircoat wet and stained yellow on perigenital area.",NA,NA,NA
"GLP003","CO","CL","107001633",NA,637,"CLSEQ","6286",NA,"Haircoat wet and stained yellow on perigenital area.",NA,NA,NA
"GLP003","CO","CL","107001633",NA,638,"CLSEQ","6287",NA,"Haircoat wet and stained yellow on perigenital area.",NA,NA,NA
"GLP003","CO","CL","107001633",NA,639,"CLSEQ","6288",NA,"Haircoat wet and stained yellow on perigenital area.",NA,NA,NA
"GLP003","CO","CL","107001633",NA,640,"CLSEQ","6289",NA,"Wet haircoat around mouth.",NA,NA,NA
"GLP003","CO","CL","107001554",NA,641,"CLSEQ","6381",NA,"Haircoat stained red around mouth.",NA,NA,NA
"GLP003","CO","CL","107001554",NA,642,"CLSEQ","6382",NA,"Haircoat stained red around mouth.",NA,NA,NA
"GLP003","CO","CL","107001554",NA,643,"CLSEQ","6384",NA,"Haircoat stained red on muzzle.",NA,NA,NA
"GLP003","CO","CL","107001554",NA,644,"CLSEQ","6385",NA,"Haircoat stained red on muzzle.",NA,NA,NA
"GLP003","CO","CL","107001554",NA,645,"CLSEQ","6386",NA,"Haircoat stained red on muzzle.",NA,NA,NA
"GLP003","CO","CL","107001554",NA,646,"CLSEQ","6387",NA,"Haircoat stained red and wet on muzzle.",NA,NA,NA
"GLP003","CO","CL","107001554",NA,647,"CLSEQ","6388",NA,"Haircoat stained red and wet on muzzle.",NA,NA,NA
"GLP003","CO","CL","107001554",NA,648,"CLSEQ","6389",NA,"Haircoat wet on muzzle.",NA,NA,NA
"GLP003","CO","CL","107001598",NA,649,"CLSEQ","6435",NA,"Haircoat stained red around mouth.",NA,NA,NA
"GLP003","CO","CL","107001598",NA,650,"CLSEQ","6437",NA,"Wet haircoat around mouth.",NA,NA,NA
"GLP003","CO","CL","107001555",NA,651,"CLSEQ","6472",NA,"Haircoat stained red on both forefeet.",NA,NA,NA
"GLP003","CO","CL","107001555",NA,652,"CLSEQ","6473",NA,"Haircoat stained red on both forefeet.",NA,NA,NA
"GLP003","CO","CL","107001555",NA,653,"CLSEQ","6474",NA,"Haircoat stained red on both forefeet.",NA,NA,NA
"GLP003","CO","CL","107001555",NA,654,"CLSEQ","6475",NA,"Haircoat stained red on both forefeet.",NA,NA,NA
"GLP003","CO","CL","107001555",NA,655,"CLSEQ","6476",NA,"Haircoat stained red on both forefeet.",NA,NA,NA
"GLP003","CO","CL","107001555",NA,656,"CLSEQ","6477",NA,"Haircoat stained red on both forefeet.",NA,NA,NA
"GLP003","CO","CL","107001555",NA,657,"CLSEQ","6478",NA,"Haircoat stained red on both forefeet.",NA,NA,NA
"GLP003","CO","CL","107001555",NA,658,"CLSEQ","6479",NA,"Haircoat stained red on both forefeet.",NA,NA,NA
"GLP003","CO","CL","107001555",NA,659,"CLSEQ","6480",NA,"Haircoat stained red on both forefeet.",NA,NA,NA
"GLP003","CO","CL","107001555",NA,660,"CLSEQ","6481",NA,"Haircoat stained red on both forefeet.",NA,NA,NA
"GLP003","CO","CL","107001555",NA,661,"CLSEQ","6482",NA,"Haircoat stained red on both forefeet.",NA,NA,NA
"GLP003","CO","CL","107001555",NA,662,"CLSEQ","6483",NA,"Haircoat stained red on both forefeet.",NA,NA,NA
"GLP003","CO","CL","107001555",NA,663,"CLSEQ","6484",NA,"Haircoat stained red on both forefeet.",NA,NA,NA
"GLP003","CO","CL","107001555",NA,664,"CLSEQ","6485",NA,"Haircoat stained red on both forefeet.",NA,NA,NA
"GLP003","CO","CL","107001555",NA,665,"CLSEQ","6486",NA,"Haircoat stained red on both forefeet.",NA,NA,NA
"GLP003","CO","CL","107001555",NA,666,"CLSEQ","6487",NA,"Haircoat stained red on both forefeet.",NA,NA,NA
"GLP003","CO","CL","107001555",NA,667,"CLSEQ","6488",NA,"Haircoat stained red on both forefeet.",NA,NA,NA
"GLP003","CO","CL","107001555",NA,668,"CLSEQ","6489",NA,"Haircoat stained red on both forefeet.",NA,NA,NA
"GLP003","CO","CL","107001588",NA,669,"CLSEQ","6542",NA,"Haircoat stained red on both forefeet.",NA,NA,NA
"GLP003","CO","CL","107001588",NA,670,"CLSEQ","6543",NA,"Haircoat stained red on both forefeet.",NA,NA,NA
"GLP003","CO","CL","107001374",NA,671,"CLSEQ","6551",NA,"Missing both top incisors. Missing teeth from trauma. Good prognosis. Re-examine as needed to trim lower incisors. Please feed powdered feed",NA,NA,NA
"GLP003","CO","CL","107001614",NA,672,"CLSEQ","6585",NA,"Unscheduled euthanasia with necropsy.",NA,NA,NA
"GLP003","CO","LB","107001350",NA,673,"LBSEQ","52",NA,"4+ECHI,2+ACAN",NA,NA,NA
"GLP003","CO","LB","107001351",NA,674,"LBSEQ","119",NA,"3+ECHI, 3+ACAN",NA,NA,NA
"GLP003","CO","LB","107001351",NA,675,"LBSEQ","189",NA,"3+ACAN,1+ECHI",NA,NA,NA
"GLP003","CO","LB","107001355",NA,676,"LBSEQ","259",NA,"4+ECHI,2+ACAN",NA,NA,NA
"GLP003","CO","LB","107001362",NA,677,"LBSEQ","326",NA,"4+ACAN,3+ECHI",NA,NA,NA
"GLP003","CO","LB","107001362",NA,678,"LBSEQ","396",NA,"3+ACAN",NA,NA,NA
"GLP003","CO","LB","107001363",NA,679,"LBSEQ","423",NA,"Platelet clumping. Qualitative estimate = ADEQ",NA,NA,NA
"GLP003","CO","LB","107001363",NA,680,"LBSEQ","462",NA,"Platelet clumping",NA,NA,NA
"GLP003","CO","LB","107001363",NA,681,"LBSEQ","463",NA,"3+ECHI,2+ACAN",NA,NA,NA
"GLP003","CO","LB","107001363",NA,682,"LBSEQ","533",NA,"2+ACAN, 1+ECHI",NA,NA,NA
"GLP003","CO","LB","107001369",NA,683,"LBSEQ","603",NA,"3+ECHI,3+ACAN",NA,NA,NA
"GLP003","CO","LB","107001375",NA,684,"LBSEQ","673",NA,"2+ACAN",NA,NA,NA
"GLP003","CO","LB","107001376",NA,685,"LBSEQ","743",NA,"4+ECHI,2+ACAN",NA,NA,NA
"GLP003","CO","LB","107001377",NA,686,"LBSEQ","813",NA,"2+ACAN",NA,NA,NA
"GLP003","CO","LB","107001379",NA,687,"LBSEQ","880",NA,"2+ACAN",NA,NA,NA
"GLP003","CO","LB","107001381",NA,688,"LBSEQ","1020",NA,"2+ECHI,2+ACAN",NA,NA,NA
"GLP003","CO","LB","107001382",NA,689,"LBSEQ","1087",NA,"3+ECHI,3+ACAN",NA,NA,NA
"GLP003","CO","LB","107001382",NA,690,"LBSEQ","1157",NA,"1+ACAN",NA,NA,NA
"GLP003","CO","LB","107001383",NA,691,"LBSEQ","1224",NA,"3+ECHI,3+ACAN",NA,NA,NA
"GLP003","CO","LB","107001384",NA,692,"LBSEQ","1361",NA,"4+ECHI,4+ACAN",NA,NA,NA
"GLP003","CO","LB","107001384",NA,693,"LBSEQ","1431",NA,"3+ACAN, 2+ECHI",NA,NA,NA
"GLP003","CO","LB","107001386",NA,694,"LBSEQ","1498",NA,"2+ECHI,2+ACAN",NA,NA,NA
"GLP003","CO","LB","107001386",NA,695,"LBSEQ","1568",NA,"1+ACAN",NA,NA,NA
"GLP003","CO","LB","107001387",NA,696,"LBSEQ","1635",NA,"1+ACAN",NA,NA,NA
"GLP003","CO","LB","107001387",NA,697,"LBSEQ","1705",NA,"1+ACAN",NA,NA,NA
"GLP003","CO","LB","107001389",NA,698,"LBSEQ","1732",NA,"Platelet clumping. Qualitative estimate = ADEQ",NA,NA,NA
"GLP003","CO","LB","107001389",NA,699,"LBSEQ","1774",NA,"Platelet clumping",NA,NA,NA
"GLP003","CO","LB","107001389",NA,700,"LBSEQ","1775",NA,"1+ECHI,1+ACAN",NA,NA,NA
"GLP003","CO","LB","107001391",NA,701,"LBSEQ","1845",NA,"3+ECHI,3+ACAN",NA,NA,NA
"GLP003","CO","LB","107001392",NA,702,"LBSEQ","1915",NA,"1+ACAN",NA,NA,NA
"GLP003","CO","LB","107001393",NA,703,"LBSEQ","1985",NA,"4+ECHI,2+ACAN",NA,NA,NA
"GLP003","CO","LB","107001394",NA,704,"LBSEQ","2055",NA,"4+ECHI,4+ACAN",NA,NA,NA
"GLP003","CO","LB","107001397",NA,705,"LBSEQ","2122",NA,"4+ECHI,2+ACAN",NA,NA,NA
"GLP003","CO","LB","107001397",NA,706,"LBSEQ","2192",NA,"3+ ACAN,2+ECHI",NA,NA,NA
"GLP003","CO","LB","107001398",NA,707,"LBSEQ","2259",NA,"2+ECHI,1+ACAN",NA,NA,NA
"GLP003","CO","LB","107001398",NA,708,"LBSEQ","2278",NA,"Specimen clotted",NA,NA,NA
"GLP003","CO","LB","107001398",NA,709,"LBSEQ","2279",NA,"Specimen clotted",NA,NA,NA
"GLP003","CO","LB","107001398",NA,710,"LBSEQ","2280",NA,"Specimen clotted",NA,NA,NA
"GLP003","CO","LB","107001398",NA,711,"LBSEQ","2281",NA,"Specimen clotted",NA,NA,NA
"GLP003","CO","LB","107001398",NA,712,"LBSEQ","2282",NA,"Specimen clotted",NA,NA,NA
"GLP003","CO","LB","107001398",NA,713,"LBSEQ","2283",NA,"Specimen clotted",NA,NA,NA
"GLP003","CO","LB","107001398",NA,714,"LBSEQ","2284",NA,"Specimen clotted",NA,NA,NA
"GLP003","CO","LB","107001398",NA,715,"LBSEQ","2285",NA,"Specimen clotted",NA,NA,NA
"GLP003","CO","LB","107001398",NA,716,"LBSEQ","2286",NA,"Specimen clotted",NA,NA,NA
"GLP003","CO","LB","107001398",NA,717,"LBSEQ","2287",NA,"Specimen clotted",NA,NA,NA
"GLP003","CO","LB","107001398",NA,718,"LBSEQ","2288",NA,"Specimen clotted",NA,NA,NA
"GLP003","CO","LB","107001398",NA,719,"LBSEQ","2289",NA,"Specimen clotted",NA,NA,NA
"GLP003","CO","LB","107001398",NA,720,"LBSEQ","2290",NA,"Specimen clotted",NA,NA,NA
"GLP003","CO","LB","107001398",NA,721,"LBSEQ","2291",NA,"Specimen clotted",NA,NA,NA
"GLP003","CO","LB","107001398",NA,722,"LBSEQ","2292",NA,"Specimen clotted",NA,NA,NA
"GLP003","CO","LB","107001398",NA,723,"LBSEQ","2293",NA,"Specimen clotted",NA,NA,NA
"GLP003","CO","LB","107001398",NA,724,"LBSEQ","2294",NA,"Specimen clotted",NA,NA,NA
"GLP003","CO","LB","107001399",NA,725,"LBSEQ","2389",NA,"4+ECHI,2+ACAN",NA,NA,NA
"GLP003","CO","LB","107001399",NA,726,"LBSEQ","2459",NA,"2+ACAN",NA,NA,NA
"GLP003","CO","LB","107001400",NA,727,"LBSEQ","2529",NA,"3+ECHI,3+ACAN",NA,NA,NA
"GLP003","CO","LB","107001401",NA,728,"LBSEQ","2599",NA,"1+ACAN",NA,NA,NA
"GLP003","CO","LB","107001404",NA,729,"LBSEQ","2669",NA,"4+ECHI,3+ACAN",NA,NA,NA
"GLP003","CO","LB","107001411",NA,730,"LBSEQ","2739",NA,"4+ECHI,2+ACAN",NA,NA,NA
"GLP003","CO","LB","107001414",NA,731,"LBSEQ","2809",NA,"4+ECHI,2+ACAN",NA,NA,NA
"GLP003","CO","LB","107001415",NA,732,"LBSEQ","2879",NA,"3+ACAN",NA,NA,NA
"GLP003","CO","LB","107001416",NA,733,"LBSEQ","2949",NA,"3+ACAN",NA,NA,NA
"GLP003","CO","LB","107001419",NA,734,"LBSEQ","3019",NA,"2+ECHI,2+ACAN",NA,NA,NA
"GLP003","CO","LB","107001420",NA,735,"LBSEQ","3089",NA,"1+ECHI,1+ACAN",NA,NA,NA
"GLP003","CO","LB","107001423",NA,736,"LBSEQ","3156",NA,"4+ACAN,2+ECHI",NA,NA,NA
"GLP003","CO","LB","107001423",NA,737,"LBSEQ","3226",NA,"1+ACAN",NA,NA,NA
"GLP003","CO","LB","107001424",NA,738,"LBSEQ","3245",NA,"Specimen clotted",NA,NA,NA
"GLP003","CO","LB","107001424",NA,739,"LBSEQ","3246",NA,"Specimen clotted",NA,NA,NA
"GLP003","CO","LB","107001424",NA,740,"LBSEQ","3247",NA,"Specimen clotted",NA,NA,NA
"GLP003","CO","LB","107001424",NA,741,"LBSEQ","3248",NA,"Specimen clotted",NA,NA,NA
"GLP003","CO","LB","107001424",NA,742,"LBSEQ","3249",NA,"Specimen clotted",NA,NA,NA
"GLP003","CO","LB","107001424",NA,743,"LBSEQ","3250",NA,"Specimen clotted",NA,NA,NA
"GLP003","CO","LB","107001424",NA,744,"LBSEQ","3251",NA,"Specimen clotted",NA,NA,NA
"GLP003","CO","LB","107001424",NA,745,"LBSEQ","3252",NA,"Specimen clotted",NA,NA,NA
"GLP003","CO","LB","107001424",NA,746,"LBSEQ","3253",NA,"Specimen clotted",NA,NA,NA
"GLP003","CO","LB","107001424",NA,747,"LBSEQ","3254",NA,"Specimen clotted",NA,NA,NA
"GLP003","CO","LB","107001424",NA,748,"LBSEQ","3255",NA,"Specimen clotted",NA,NA,NA
"GLP003","CO","LB","107001424",NA,749,"LBSEQ","3256",NA,"Specimen clotted",NA,NA,NA
"GLP003","CO","LB","107001424",NA,750,"LBSEQ","3257",NA,"Specimen clotted",NA,NA,NA
"GLP003","CO","LB","107001424",NA,751,"LBSEQ","3258",NA,"Specimen clotted",NA,NA,NA
"GLP003","CO","LB","107001424",NA,752,"LBSEQ","3259",NA,"Specimen clotted",NA,NA,NA
"GLP003","CO","LB","107001424",NA,753,"LBSEQ","3260",NA,"Specimen clotted",NA,NA,NA
"GLP003","CO","LB","107001424",NA,754,"LBSEQ","3261",NA,"Specimen clotted",NA,NA,NA
"GLP003","CO","LB","107001424",NA,755,"LBSEQ","3293",NA,"Specimen clotted",NA,NA,NA
"GLP003","CO","LB","107001424",NA,756,"LBSEQ","3294",NA,"Specimen clotted",NA,NA,NA
"GLP003","CO","LB","107001424",NA,757,"LBSEQ","3295",NA,"Specimen clotted",NA,NA,NA
"GLP003","CO","LB","107001424",NA,758,"LBSEQ","3296",NA,"Specimen clotted",NA,NA,NA
"GLP003","CO","LB","107001424",NA,759,"LBSEQ","3297",NA,"Specimen clotted",NA,NA,NA
"GLP003","CO","LB","107001424",NA,760,"LBSEQ","3298",NA,"Specimen clotted",NA,NA,NA
"GLP003","CO","LB","107001424",NA,761,"LBSEQ","3314",NA,"Specimen clotted",NA,NA,NA
"GLP003","CO","LB","107001425",NA,762,"LBSEQ","3366",NA,"3+ACAN",NA,NA,NA
"GLP003","CO","LB","107001426",NA,763,"LBSEQ","3436",NA,"3+ECHI,3+ACAN",NA,NA,NA
"GLP003","CO","LB","107001427",NA,764,"LBSEQ","3506",NA,"2+ACAN",NA,NA,NA
"GLP003","CO","LB","107001428",NA,765,"LBSEQ","3576",NA,"2+ACAN,1+ECHI",NA,NA,NA
"GLP003","CO","LB","107001431",NA,766,"LBSEQ","3646",NA,"3+ACAN,2+ECHI",NA,NA,NA
"GLP003","CO","LB","107001432",NA,767,"LBSEQ","3713",NA,"1+ACAN",NA,NA,NA
"GLP003","CO","LB","107001433",NA,768,"LBSEQ","3810",NA,"Platelet clumping. Qualitative estimate = ADEQ",NA,NA,NA
"GLP003","CO","LB","107001433",NA,769,"LBSEQ","3852",NA,"Platelet clumping",NA,NA,NA
"GLP003","CO","LB","107001433",NA,770,"LBSEQ","3853",NA,"4+ECHI,3+ACAN",NA,NA,NA
"GLP003","CO","LB","107001435",NA,771,"LBSEQ","3920",NA,"3+ECHI,3+ACAN",NA,NA,NA
"GLP003","CO","LB","107001435",NA,772,"LBSEQ","3990",NA,"1+ACAN",NA,NA,NA
"GLP003","CO","LB","107001437",NA,773,"LBSEQ","4060",NA,"1+ECHI,1+ACAN",NA,NA,NA
"GLP003","CO","LB","107001438",NA,774,"LBSEQ","4130",NA,"2+ECHI,2+ACAN",NA,NA,NA
"GLP003","CO","LB","107001440",NA,775,"LBSEQ","4157",NA,"Platelet clumping. Qualitative estimate = ADEQ",NA,NA,NA
"GLP003","CO","LB","107001440",NA,776,"LBSEQ","4199",NA,"Platelet clumping",NA,NA,NA
"GLP003","CO","LB","107001440",NA,777,"LBSEQ","4200",NA,"4+ECHI,1+ACAN",NA,NA,NA
"GLP003","CO","LB","107001441",NA,778,"LBSEQ","4270",NA,"4+ECHI,4+ACAN",NA,NA,NA
"GLP003","CO","LB","107001445",NA,779,"LBSEQ","4356",NA,"Specimen clotted",NA,NA,NA
"GLP003","CO","LB","107001445",NA,780,"LBSEQ","4357",NA,"Specimen clotted",NA,NA,NA
"GLP003","CO","LB","107001445",NA,781,"LBSEQ","4358",NA,"Specimen clotted",NA,NA,NA
"GLP003","CO","LB","107001445",NA,782,"LBSEQ","4359",NA,"Specimen clotted",NA,NA,NA
"GLP003","CO","LB","107001445",NA,783,"LBSEQ","4360",NA,"Specimen clotted",NA,NA,NA
"GLP003","CO","LB","107001445",NA,784,"LBSEQ","4361",NA,"Specimen clotted",NA,NA,NA
"GLP003","CO","LB","107001445",NA,785,"LBSEQ","4362",NA,"Specimen clotted",NA,NA,NA
"GLP003","CO","LB","107001445",NA,786,"LBSEQ","4363",NA,"Specimen clotted",NA,NA,NA
"GLP003","CO","LB","107001445",NA,787,"LBSEQ","4364",NA,"Specimen clotted",NA,NA,NA
"GLP003","CO","LB","107001445",NA,788,"LBSEQ","4365",NA,"Specimen clotted",NA,NA,NA
"GLP003","CO","LB","107001445",NA,789,"LBSEQ","4366",NA,"Specimen clotted",NA,NA,NA
"GLP003","CO","LB","107001445",NA,790,"LBSEQ","4367",NA,"Specimen clotted",NA,NA,NA
"GLP003","CO","LB","107001445",NA,791,"LBSEQ","4368",NA,"Specimen clotted",NA,NA,NA
"GLP003","CO","LB","107001445",NA,792,"LBSEQ","4369",NA,"Specimen clotted",NA,NA,NA
"GLP003","CO","LB","107001445",NA,793,"LBSEQ","4370",NA,"Specimen clotted",NA,NA,NA
"GLP003","CO","LB","107001445",NA,794,"LBSEQ","4371",NA,"Specimen clotted",NA,NA,NA
"GLP003","CO","LB","107001445",NA,795,"LBSEQ","4372",NA,"Specimen clotted",NA,NA,NA
"GLP003","CO","LB","107001446",NA,796,"LBSEQ","4467",NA,"4+ECHI,4+ACAN",NA,NA,NA
"GLP003","CO","LB","107001446",NA,797,"LBSEQ","4481",NA,"1+ Calcium Phosphate Crystals",NA,NA,NA
"GLP003","CO","LB","107001446",NA,798,"LBSEQ","4537",NA,"1+ACAN",NA,NA,NA
"GLP003","CO","LB","107001447",NA,799,"LBSEQ","4607",NA,"2+ECHI,2+ACAN",NA,NA,NA
"GLP003","CO","LB","107001449",NA,800,"LBSEQ","4677",NA,"1+ECHI,1+ACAN",NA,NA,NA
"GLP003","CO","LB","107001454",NA,801,"LBSEQ","4747",NA,"4+ECHI,2+ACAN",NA,NA,NA
"GLP003","CO","LB","107001455",NA,802,"LBSEQ","4817",NA,"3+ACAN",NA,NA,NA
"GLP003","CO","LB","107001456",NA,803,"LBSEQ","4887",NA,"3+ECHI,3+ACAN",NA,NA,NA
"GLP003","CO","LB","107001458",NA,804,"LBSEQ","4906",NA,"Specimen clotted",NA,NA,NA
"GLP003","CO","LB","107001458",NA,805,"LBSEQ","4907",NA,"Specimen clotted",NA,NA,NA
"GLP003","CO","LB","107001458",NA,806,"LBSEQ","4908",NA,"Specimen clotted",NA,NA,NA
"GLP003","CO","LB","107001458",NA,807,"LBSEQ","4909",NA,"Specimen clotted",NA,NA,NA
"GLP003","CO","LB","107001458",NA,808,"LBSEQ","4910",NA,"Specimen clotted",NA,NA,NA
"GLP003","CO","LB","107001458",NA,809,"LBSEQ","4911",NA,"Specimen clotted",NA,NA,NA
"GLP003","CO","LB","107001458",NA,810,"LBSEQ","4912",NA,"Specimen clotted",NA,NA,NA
"GLP003","CO","LB","107001458",NA,811,"LBSEQ","4913",NA,"Specimen clotted",NA,NA,NA
"GLP003","CO","LB","107001458",NA,812,"LBSEQ","4914",NA,"Specimen clotted",NA,NA,NA
"GLP003","CO","LB","107001458",NA,813,"LBSEQ","4915",NA,"Specimen clotted",NA,NA,NA
"GLP003","CO","LB","107001458",NA,814,"LBSEQ","4916",NA,"Specimen clotted",NA,NA,NA
"GLP003","CO","LB","107001458",NA,815,"LBSEQ","4917",NA,"Specimen clotted",NA,NA,NA
"GLP003","CO","LB","107001458",NA,816,"LBSEQ","4918",NA,"Specimen clotted",NA,NA,NA
"GLP003","CO","LB","107001458",NA,817,"LBSEQ","4919",NA,"Specimen clotted",NA,NA,NA
"GLP003","CO","LB","107001458",NA,818,"LBSEQ","4920",NA,"Specimen clotted",NA,NA,NA
"GLP003","CO","LB","107001458",NA,819,"LBSEQ","4921",NA,"Specimen clotted",NA,NA,NA
"GLP003","CO","LB","107001458",NA,820,"LBSEQ","4922",NA,"Specimen clotted",NA,NA,NA
"GLP003","CO","LB","107001458",NA,821,"LBSEQ","4954",NA,"Specimen clotted",NA,NA,NA
"GLP003","CO","LB","107001458",NA,822,"LBSEQ","4955",NA,"Specimen clotted",NA,NA,NA
"GLP003","CO","LB","107001458",NA,823,"LBSEQ","4956",NA,"Specimen clotted",NA,NA,NA
"GLP003","CO","LB","107001458",NA,824,"LBSEQ","4957",NA,"Specimen clotted",NA,NA,NA
"GLP003","CO","LB","107001458",NA,825,"LBSEQ","4958",NA,"Specimen clotted",NA,NA,NA
"GLP003","CO","LB","107001458",NA,826,"LBSEQ","4959",NA,"Specimen clotted",NA,NA,NA
"GLP003","CO","LB","107001458",NA,827,"LBSEQ","4975",NA,"Specimen clotted",NA,NA,NA
"GLP003","CO","LB","107001461",NA,828,"LBSEQ","5027",NA,"3+ECHI,3+ACAN",NA,NA,NA
"GLP003","CO","LB","107001466",NA,829,"LBSEQ","5097",NA,"1+ACAN",NA,NA,NA
"GLP003","CO","LB","107001467",NA,830,"LBSEQ","5164",NA,"2+ECHI,2+ACAN",NA,NA,NA
"GLP003","CO","LB","107001467",NA,831,"LBSEQ","5234",NA,"2+ACAN, 1+ECHI",NA,NA,NA
"GLP003","CO","LB","107001469",NA,832,"LBSEQ","5304",NA,"2+ECHI,2+ACAN",NA,NA,NA
"GLP003","CO","LB","107001470",NA,833,"LBSEQ","5374",NA,"3+ACAN,1+ECHI",NA,NA,NA
"GLP003","CO","LB","107001472",NA,834,"LBSEQ","5444",NA,"3+ECHI,3+ACAN",NA,NA,NA
"GLP003","CO","LB","107001473",NA,835,"LBSEQ","5511",NA,"4+ACAN,2+ECHI",NA,NA,NA
"GLP003","CO","LB","107001473",NA,836,"LBSEQ","5581",NA,"2+ACAN",NA,NA,NA
"GLP003","CO","LB","107001474",NA,837,"LBSEQ","5648",NA,"3+ECHI,3+ACAN",NA,NA,NA
"GLP003","CO","LB","107001474",NA,838,"LBSEQ","5718",NA,"1+ACAN,1+ECHI",NA,NA,NA
"GLP003","CO","LB","107001477",NA,839,"LBSEQ","5788",NA,"4+ECHI,3+ACAN",NA,NA,NA
"GLP003","CO","LB","107001478",NA,840,"LBSEQ","5855",NA,"3+ACAN",NA,NA,NA
"GLP003","CO","LB","107001480",NA,841,"LBSEQ","5995",NA,"4+ACAN,2+ECHI",NA,NA,NA
"GLP003","CO","LB","107001482",NA,842,"LBSEQ","6062",NA,"4+ECHI,2+ACAN",NA,NA,NA
"GLP003","CO","LB","107001483",NA,843,"LBSEQ","6202",NA,"2+ECHI,2+ACAN",NA,NA,NA
"GLP003","CO","LB","107001485",NA,844,"LBSEQ","6269",NA,"3+ECHI,3+ACAN",NA,NA,NA
"GLP003","CO","LB","107001486",NA,845,"LBSEQ","6406",NA,"4+ECHI,3+ACAN",NA,NA,NA
"GLP003","CO","LB","107001486",NA,846,"LBSEQ","6476",NA,"1+ACAN",NA,NA,NA
"GLP003","CO","LB","107001488",NA,847,"LBSEQ","6546",NA,"3+ECHI,3+ACAN",NA,NA,NA
"GLP003","CO","LB","107001491",NA,848,"LBSEQ","6613",NA,"3+ECHI,3+ACAN",NA,NA,NA
"GLP003","CO","LB","107001491",NA,849,"LBSEQ","6632",NA,"Specimen clotted",NA,NA,NA
"GLP003","CO","LB","107001491",NA,850,"LBSEQ","6633",NA,"Specimen clotted",NA,NA,NA
"GLP003","CO","LB","107001491",NA,851,"LBSEQ","6634",NA,"Specimen clotted",NA,NA,NA
"GLP003","CO","LB","107001491",NA,852,"LBSEQ","6635",NA,"Specimen clotted",NA,NA,NA
"GLP003","CO","LB","107001491",NA,853,"LBSEQ","6636",NA,"Specimen clotted",NA,NA,NA
"GLP003","CO","LB","107001491",NA,854,"LBSEQ","6637",NA,"Specimen clotted",NA,NA,NA
"GLP003","CO","LB","107001491",NA,855,"LBSEQ","6638",NA,"Specimen clotted",NA,NA,NA
"GLP003","CO","LB","107001491",NA,856,"LBSEQ","6639",NA,"Specimen clotted",NA,NA,NA
"GLP003","CO","LB","107001491",NA,857,"LBSEQ","6640",NA,"Specimen clotted",NA,NA,NA
"GLP003","CO","LB","107001491",NA,858,"LBSEQ","6641",NA,"Specimen clotted",NA,NA,NA
"GLP003","CO","LB","107001491",NA,859,"LBSEQ","6642",NA,"Specimen clotted",NA,NA,NA
"GLP003","CO","LB","107001491",NA,860,"LBSEQ","6643",NA,"Specimen clotted",NA,NA,NA
"GLP003","CO","LB","107001491",NA,861,"LBSEQ","6644",NA,"Specimen clotted",NA,NA,NA
"GLP003","CO","LB","107001491",NA,862,"LBSEQ","6645",NA,"Specimen clotted",NA,NA,NA
"GLP003","CO","LB","107001491",NA,863,"LBSEQ","6646",NA,"Specimen clotted",NA,NA,NA
"GLP003","CO","LB","107001491",NA,864,"LBSEQ","6647",NA,"Specimen clotted",NA,NA,NA
"GLP003","CO","LB","107001491",NA,865,"LBSEQ","6648",NA,"Specimen clotted",NA,NA,NA
"GLP003","CO","LB","107001493",NA,866,"LBSEQ","6746",NA,"1+ECHI,1+ACAN",NA,NA,NA
"GLP003","CO","LB","107001493",NA,867,"LBSEQ","6749",NA,"Below recommended volume for uniform results",NA,NA,NA
"GLP003","CO","LB","107001493",NA,868,"LBSEQ","6750",NA,"Below recommended volume for uniform results",NA,NA,NA
"GLP003","CO","LB","107001493",NA,869,"LBSEQ","6751",NA,"Below recommended volume for uniform results",NA,NA,NA
"GLP003","CO","LB","107001493",NA,870,"LBSEQ","6752",NA,"Below recommended volume for uniform results",NA,NA,NA
"GLP003","CO","LB","107001493",NA,871,"LBSEQ","6753",NA,"Below recommended volume for uniform results",NA,NA,NA
"GLP003","CO","LB","107001493",NA,872,"LBSEQ","6754",NA,"Below recommended volume for uniform results",NA,NA,NA
"GLP003","CO","LB","107001493",NA,873,"LBSEQ","6755",NA,"Below recommended volume for uniform results",NA,NA,NA
"GLP003","CO","LB","107001493",NA,874,"LBSEQ","6756",NA,"Below recommended volume for uniform results",NA,NA,NA
"GLP003","CO","LB","107001493",NA,875,"LBSEQ","6757",NA,"Below recommended volume for uniform results",NA,NA,NA
"GLP003","CO","LB","107001493",NA,876,"LBSEQ","6758",NA,"Below recommended volume for uniform results",NA,NA,NA
"GLP003","CO","LB","107001493",NA,877,"LBSEQ","6759",NA,"Below recommended volume for uniform results",NA,NA,NA
"GLP003","CO","LB","107001493",NA,878,"LBSEQ","6760",NA,"Below recommended volume for uniform results",NA,NA,NA
"GLP003","CO","LB","107001495",NA,879,"LBSEQ","6816",NA,"4+ECHI,2+ACAN",NA,NA,NA
"GLP003","CO","LB","107001499",NA,880,"LBSEQ","6886",NA,"4+ECHI,1+ACAN",NA,NA,NA
"GLP003","CO","LB","107001500",NA,881,"LBSEQ","6956",NA,"4+ECHI,1+ACAN",NA,NA,NA
"GLP003","CO","LB","107001504",NA,882,"LBSEQ","7026",NA,"4+ECHI,4+ACAN",NA,NA,NA
"GLP003","CO","LB","107001505",NA,883,"LBSEQ","7096",NA,"3+ECHI,1+ACAN",NA,NA,NA
"GLP003","CO","LB","107001508",NA,884,"LBSEQ","7166",NA,"4+ECHI,2+ACAN",NA,NA,NA
"GLP003","CO","LB","107001511",NA,885,"LBSEQ","7236",NA,"4+ECHI,2+ACAN",NA,NA,NA
"GLP003","CO","LB","107001513",NA,886,"LBSEQ","7306",NA,"2+ECHI,2+ACAN",NA,NA,NA
"GLP003","CO","LB","107001515",NA,887,"LBSEQ","7325",NA,"Specimen clotted",NA,NA,NA
"GLP003","CO","LB","107001515",NA,888,"LBSEQ","7326",NA,"Specimen clotted",NA,NA,NA
"GLP003","CO","LB","107001515",NA,889,"LBSEQ","7327",NA,"Specimen clotted",NA,NA,NA
"GLP003","CO","LB","107001515",NA,890,"LBSEQ","7328",NA,"Specimen clotted",NA,NA,NA
"GLP003","CO","LB","107001515",NA,891,"LBSEQ","7329",NA,"Specimen clotted",NA,NA,NA
"GLP003","CO","LB","107001515",NA,892,"LBSEQ","7330",NA,"Specimen clotted",NA,NA,NA
"GLP003","CO","LB","107001515",NA,893,"LBSEQ","7331",NA,"Specimen clotted",NA,NA,NA
"GLP003","CO","LB","107001515",NA,894,"LBSEQ","7332",NA,"Specimen clotted",NA,NA,NA
"GLP003","CO","LB","107001515",NA,895,"LBSEQ","7333",NA,"Specimen clotted",NA,NA,NA
"GLP003","CO","LB","107001515",NA,896,"LBSEQ","7334",NA,"Specimen clotted",NA,NA,NA
"GLP003","CO","LB","107001515",NA,897,"LBSEQ","7335",NA,"Specimen clotted",NA,NA,NA
"GLP003","CO","LB","107001515",NA,898,"LBSEQ","7336",NA,"Specimen clotted",NA,NA,NA
"GLP003","CO","LB","107001515",NA,899,"LBSEQ","7337",NA,"Specimen clotted",NA,NA,NA
"GLP003","CO","LB","107001515",NA,900,"LBSEQ","7338",NA,"Specimen clotted",NA,NA,NA
"GLP003","CO","LB","107001515",NA,901,"LBSEQ","7339",NA,"Specimen clotted",NA,NA,NA
"GLP003","CO","LB","107001515",NA,902,"LBSEQ","7340",NA,"Specimen clotted",NA,NA,NA
"GLP003","CO","LB","107001515",NA,903,"LBSEQ","7341",NA,"Specimen clotted",NA,NA,NA
"GLP003","CO","LB","107001515",NA,904,"LBSEQ","7373",NA,"Specimen clotted",NA,NA,NA
"GLP003","CO","LB","107001515",NA,905,"LBSEQ","7374",NA,"Specimen clotted",NA,NA,NA
"GLP003","CO","LB","107001515",NA,906,"LBSEQ","7375",NA,"Specimen clotted",NA,NA,NA
"GLP003","CO","LB","107001515",NA,907,"LBSEQ","7376",NA,"Specimen clotted",NA,NA,NA
"GLP003","CO","LB","107001515",NA,908,"LBSEQ","7377",NA,"Specimen clotted",NA,NA,NA
"GLP003","CO","LB","107001515",NA,909,"LBSEQ","7378",NA,"Specimen clotted",NA,NA,NA
"GLP003","CO","LB","107001515",NA,910,"LBSEQ","7394",NA,"Specimen clotted",NA,NA,NA
"GLP003","CO","LB","107001517",NA,911,"LBSEQ","7446",NA,"2+ACAN,1+ECHI",NA,NA,NA
"GLP003","CO","LB","107001518",NA,912,"LBSEQ","7513",NA,"4+ECHI,2+ACAN",NA,NA,NA
"GLP003","CO","LB","107001518",NA,913,"LBSEQ","7583",NA,"1+ACAN, 1+ECHI",NA,NA,NA
"GLP003","CO","LB","107001519",NA,914,"LBSEQ","7650",NA,"3+ECHI,3+ACAN",NA,NA,NA
"GLP003","CO","LB","107001519",NA,915,"LBSEQ","7720",NA,"1+ACAN",NA,NA,NA
"GLP003","CO","LB","107001520",NA,916,"LBSEQ","7790",NA,"3+ECHI,3+ACAN",NA,NA,NA
"GLP003","CO","LB","107001521",NA,917,"LBSEQ","7860",NA,"3+ECHI,3+ACAN",NA,NA,NA
"GLP003","CO","LB","107001522",NA,918,"LBSEQ","7930",NA,"1+ECHI,1+ACAN",NA,NA,NA
"GLP003","CO","LB","107001525",NA,919,"LBSEQ","8000",NA,"3+ECHI,3+ACAN",NA,NA,NA
"GLP003","CO","LB","107001528",NA,920,"LBSEQ","8070",NA,"4+ECHI,3+ACAN",NA,NA,NA
"GLP003","CO","LB","107001529",NA,921,"LBSEQ","8140",NA,"3+ECHI,1+ACAN",NA,NA,NA
"GLP003","CO","LB","107001532",NA,922,"LBSEQ","8210",NA,"4+ECHI,3+ACAN",NA,NA,NA
"GLP003","CO","LB","107001533",NA,923,"LBSEQ","8280",NA,"4+ECHI,2+ACAN",NA,NA,NA
"GLP003","CO","LB","107001534",NA,924,"LBSEQ","8350",NA,"4+ECHI,3+ACAN",NA,NA,NA
"GLP003","CO","LB","107001536",NA,925,"LBSEQ","8490",NA,"4+ECHI,3+ACAN",NA,NA,NA
"GLP003","CO","LB","107001537",NA,926,"LBSEQ","8560",NA,"1+ECHI,1+ACAN",NA,NA,NA
"GLP003","CO","LB","107001538",NA,927,"LBSEQ","8627",NA,"1+ECHI,1+ACAN",NA,NA,NA
"GLP003","CO","LB","107001540",NA,928,"LBSEQ","8767",NA,"3+ECHI,1+ACAN",NA,NA,NA
"GLP003","CO","LB","107001541",NA,929,"LBSEQ","8837",NA,"3+ECHI,3+ACAN",NA,NA,NA
"GLP003","CO","LB","107001545",NA,930,"LBSEQ","8907",NA,"4+ECHI,4+ACAN",NA,NA,NA
"GLP003","CO","LB","107001547",NA,931,"LBSEQ","8977",NA,"1+ACAN",NA,NA,NA
"GLP003","CO","LB","107001552",NA,932,"LBSEQ","9047",NA,"1+ECHI,1+ACAN",NA,NA,NA
"GLP003","CO","LB","107001553",NA,933,"LBSEQ","9117",NA,"4+ECHI,2+ACAN",NA,NA,NA
"GLP003","CO","LB","107001554",NA,934,"LBSEQ","9184",NA,"4+ECHI,3+ACAN",NA,NA,NA
"GLP003","CO","LB","107001554",NA,935,"LBSEQ","9254",NA,"1+ECHI",NA,NA,NA
"GLP003","CO","LB","107001555",NA,936,"LBSEQ","9321",NA,"3+ACAN,1+ECHI",NA,NA,NA
"GLP003","CO","LB","107001556",NA,937,"LBSEQ","9458",NA,"3+ECHI,1+ACAN",NA,NA,NA
"GLP003","CO","LB","107001556",NA,938,"LBSEQ","9485",NA,"Platelet clumping. Qualitative estimate = ADEQ",NA,NA,NA
"GLP003","CO","LB","107001556",NA,939,"LBSEQ","9527",NA,"Platelet clumping",NA,NA,NA
"GLP003","CO","LB","107001556",NA,940,"LBSEQ","9528",NA,"1+ACAN",NA,NA,NA
"GLP003","CO","LB","107001559",NA,941,"LBSEQ","9595",NA,"3+ECHI,1+ACAN",NA,NA,NA
"GLP003","CO","LB","107001559",NA,942,"LBSEQ","9662",NA,"3+MAC,2+MIC",NA,NA,NA
"GLP003","CO","LB","107001559",NA,943,"LBSEQ","9664",NA,"INCR",NA,NA,NA
"GLP003","CO","LB","107001561",NA,944,"LBSEQ","9732",NA,"2+ECHI,1+ACAN",NA,NA,NA
"GLP003","CO","LB","107001561",NA,945,"LBSEQ","9802",NA,"1+ACAN",NA,NA,NA
"GLP003","CO","LB","107001562",NA,946,"LBSEQ","9872",NA,"1+ACAN",NA,NA,NA
"GLP003","CO","LB","107001563",NA,947,"LBSEQ","9891",NA,"Specimen clotted",NA,NA,NA
"GLP003","CO","LB","107001563",NA,948,"LBSEQ","9892",NA,"Specimen clotted",NA,NA,NA
"GLP003","CO","LB","107001563",NA,949,"LBSEQ","9893",NA,"Specimen clotted",NA,NA,NA
"GLP003","CO","LB","107001563",NA,950,"LBSEQ","9894",NA,"Specimen clotted",NA,NA,NA
"GLP003","CO","LB","107001563",NA,951,"LBSEQ","9895",NA,"Specimen clotted",NA,NA,NA
"GLP003","CO","LB","107001563",NA,952,"LBSEQ","9896",NA,"Specimen clotted",NA,NA,NA
"GLP003","CO","LB","107001563",NA,953,"LBSEQ","9897",NA,"Specimen clotted",NA,NA,NA
"GLP003","CO","LB","107001563",NA,954,"LBSEQ","9898",NA,"Specimen clotted",NA,NA,NA
"GLP003","CO","LB","107001563",NA,955,"LBSEQ","9899",NA,"Specimen clotted",NA,NA,NA
"GLP003","CO","LB","107001563",NA,956,"LBSEQ","9900",NA,"Specimen clotted",NA,NA,NA
"GLP003","CO","LB","107001563",NA,957,"LBSEQ","9901",NA,"Specimen clotted",NA,NA,NA
"GLP003","CO","LB","107001563",NA,958,"LBSEQ","9902",NA,"Specimen clotted",NA,NA,NA
"GLP003","CO","LB","107001563",NA,959,"LBSEQ","9903",NA,"Specimen clotted",NA,NA,NA
"GLP003","CO","LB","107001563",NA,960,"LBSEQ","9904",NA,"Specimen clotted",NA,NA,NA
"GLP003","CO","LB","107001563",NA,961,"LBSEQ","9905",NA,"Specimen clotted",NA,NA,NA
"GLP003","CO","LB","107001563",NA,962,"LBSEQ","9906",NA,"Specimen clotted",NA,NA,NA
"GLP003","CO","LB","107001563",NA,963,"LBSEQ","9907",NA,"Specimen clotted",NA,NA,NA
"GLP003","CO","LB","107001563",NA,964,"LBSEQ","9936",NA,"Specimen clotted",NA,NA,NA
"GLP003","CO","LB","107001563",NA,965,"LBSEQ","9937",NA,"Specimen clotted",NA,NA,NA
"GLP003","CO","LB","107001563",NA,966,"LBSEQ","9938",NA,"Specimen clotted",NA,NA,NA
"GLP003","CO","LB","107001563",NA,967,"LBSEQ","9939",NA,"Specimen clotted",NA,NA,NA
"GLP003","CO","LB","107001563",NA,968,"LBSEQ","9940",NA,"Specimen clotted",NA,NA,NA
"GLP003","CO","LB","107001563",NA,969,"LBSEQ","9941",NA,"Specimen clotted",NA,NA,NA
"GLP003","CO","LB","107001563",NA,970,"LBSEQ","9957",NA,"Specimen clotted",NA,NA,NA
"GLP003","CO","LB","107001563",NA,971,"LBSEQ","9966",NA,"Platelet clumping. Qualitative estimate = ADEQ",NA,NA,NA
"GLP003","CO","LB","107001563",NA,972,"LBSEQ","10008",NA,"Platelet clumping",NA,NA,NA
"GLP003","CO","LB","107001565",NA,973,"LBSEQ","10079",NA,"1+ACAN",NA,NA,NA
"GLP003","CO","LB","107001566",NA,974,"LBSEQ","10098",NA,"Specimen clotted",NA,NA,NA
"GLP003","CO","LB","107001566",NA,975,"LBSEQ","10099",NA,"Specimen clotted",NA,NA,NA
"GLP003","CO","LB","107001566",NA,976,"LBSEQ","10100",NA,"Specimen clotted",NA,NA,NA
"GLP003","CO","LB","107001566",NA,977,"LBSEQ","10101",NA,"Specimen clotted",NA,NA,NA
"GLP003","CO","LB","107001566",NA,978,"LBSEQ","10102",NA,"Specimen clotted",NA,NA,NA
"GLP003","CO","LB","107001566",NA,979,"LBSEQ","10103",NA,"Specimen clotted",NA,NA,NA
"GLP003","CO","LB","107001566",NA,980,"LBSEQ","10104",NA,"Specimen clotted",NA,NA,NA
"GLP003","CO","LB","107001566",NA,981,"LBSEQ","10105",NA,"Specimen clotted",NA,NA,NA
"GLP003","CO","LB","107001566",NA,982,"LBSEQ","10106",NA,"Specimen clotted",NA,NA,NA
"GLP003","CO","LB","107001566",NA,983,"LBSEQ","10107",NA,"Specimen clotted",NA,NA,NA
"GLP003","CO","LB","107001566",NA,984,"LBSEQ","10108",NA,"Specimen clotted",NA,NA,NA
"GLP003","CO","LB","107001566",NA,985,"LBSEQ","10109",NA,"Specimen clotted",NA,NA,NA
"GLP003","CO","LB","107001566",NA,986,"LBSEQ","10110",NA,"Specimen clotted",NA,NA,NA
"GLP003","CO","LB","107001566",NA,987,"LBSEQ","10111",NA,"Specimen clotted",NA,NA,NA
"GLP003","CO","LB","107001566",NA,988,"LBSEQ","10112",NA,"Specimen clotted",NA,NA,NA
"GLP003","CO","LB","107001566",NA,989,"LBSEQ","10113",NA,"Specimen clotted",NA,NA,NA
"GLP003","CO","LB","107001566",NA,990,"LBSEQ","10114",NA,"Specimen clotted",NA,NA,NA
"GLP003","CO","LB","107001566",NA,991,"LBSEQ","10143",NA,"Specimen clotted",NA,NA,NA
"GLP003","CO","LB","107001566",NA,992,"LBSEQ","10144",NA,"Specimen clotted",NA,NA,NA
"GLP003","CO","LB","107001566",NA,993,"LBSEQ","10145",NA,"Specimen clotted",NA,NA,NA
"GLP003","CO","LB","107001566",NA,994,"LBSEQ","10146",NA,"Specimen clotted",NA,NA,NA
"GLP003","CO","LB","107001566",NA,995,"LBSEQ","10147",NA,"Specimen clotted",NA,NA,NA
"GLP003","CO","LB","107001566",NA,996,"LBSEQ","10148",NA,"Specimen clotted",NA,NA,NA
"GLP003","CO","LB","107001566",NA,997,"LBSEQ","10164",NA,"Specimen clotted",NA,NA,NA
"GLP003","CO","LB","107001569",NA,998,"LBSEQ","10286",NA,"2+ECHI,1+ACAN",NA,NA,NA
"GLP003","CO","LB","107001570",NA,999,"LBSEQ","10356",NA,"1+ACAN",NA,NA,NA
"GLP003","CO","LB","107001571",NA,1000,"LBSEQ","10426",NA,"3+ECHI,2+ACAN",NA,NA,NA
"GLP003","CO","LB","107001574",NA,1001,"LBSEQ","10493",NA,"4+ECHI,1+ACAN",NA,NA,NA
"GLP003","CO","LB","107001576",NA,1002,"LBSEQ","10582",NA,"Specimen clotted",NA,NA,NA
"GLP003","CO","LB","107001576",NA,1003,"LBSEQ","10583",NA,"Specimen clotted",NA,NA,NA
"GLP003","CO","LB","107001576",NA,1004,"LBSEQ","10584",NA,"Specimen clotted",NA,NA,NA
"GLP003","CO","LB","107001576",NA,1005,"LBSEQ","10585",NA,"Specimen clotted",NA,NA,NA
"GLP003","CO","LB","107001576",NA,1006,"LBSEQ","10586",NA,"Specimen clotted",NA,NA,NA
"GLP003","CO","LB","107001576",NA,1007,"LBSEQ","10587",NA,"Specimen clotted",NA,NA,NA
"GLP003","CO","LB","107001576",NA,1008,"LBSEQ","10588",NA,"Specimen clotted",NA,NA,NA
"GLP003","CO","LB","107001576",NA,1009,"LBSEQ","10589",NA,"Specimen clotted",NA,NA,NA
"GLP003","CO","LB","107001576",NA,1010,"LBSEQ","10590",NA,"Specimen clotted",NA,NA,NA
"GLP003","CO","LB","107001576",NA,1011,"LBSEQ","10591",NA,"Specimen clotted",NA,NA,NA
"GLP003","CO","LB","107001576",NA,1012,"LBSEQ","10592",NA,"Specimen clotted",NA,NA,NA
"GLP003","CO","LB","107001576",NA,1013,"LBSEQ","10593",NA,"Specimen clotted",NA,NA,NA
"GLP003","CO","LB","107001576",NA,1014,"LBSEQ","10594",NA,"Specimen clotted",NA,NA,NA
"GLP003","CO","LB","107001576",NA,1015,"LBSEQ","10595",NA,"Specimen clotted",NA,NA,NA
"GLP003","CO","LB","107001576",NA,1016,"LBSEQ","10596",NA,"Specimen clotted",NA,NA,NA
"GLP003","CO","LB","107001576",NA,1017,"LBSEQ","10597",NA,"Specimen clotted",NA,NA,NA
"GLP003","CO","LB","107001576",NA,1018,"LBSEQ","10598",NA,"Specimen clotted",NA,NA,NA
"GLP003","CO","LB","107001576",NA,1019,"LBSEQ","10630",NA,"Specimen clotted",NA,NA,NA
"GLP003","CO","LB","107001576",NA,1020,"LBSEQ","10631",NA,"Specimen clotted",NA,NA,NA
"GLP003","CO","LB","107001576",NA,1021,"LBSEQ","10632",NA,"Specimen clotted",NA,NA,NA
"GLP003","CO","LB","107001576",NA,1022,"LBSEQ","10633",NA,"Specimen clotted",NA,NA,NA
"GLP003","CO","LB","107001576",NA,1023,"LBSEQ","10634",NA,"Specimen clotted",NA,NA,NA
"GLP003","CO","LB","107001576",NA,1024,"LBSEQ","10635",NA,"Specimen clotted",NA,NA,NA
"GLP003","CO","LB","107001576",NA,1025,"LBSEQ","10651",NA,"Specimen clotted",NA,NA,NA
"GLP003","CO","LB","107001578",NA,1026,"LBSEQ","10703",NA,"4+ECHI,2+ACAN",NA,NA,NA
"GLP003","CO","LB","107001579",NA,1027,"LBSEQ","10773",NA,"3+ACAN,1+ECHI",NA,NA,NA
"GLP003","CO","LB","107001581",NA,1028,"LBSEQ","10840",NA,"4+ECHI,2+ACAN",NA,NA,NA
"GLP003","CO","LB","107001581",NA,1029,"LBSEQ","10910",NA,"1+ACAN,1+ECHI",NA,NA,NA
"GLP003","CO","LB","107001583",NA,1030,"LBSEQ","10980",NA,"1+ACAN",NA,NA,NA
"GLP003","CO","LB","107001584",NA,1031,"LBSEQ","11047",NA,"4+ECHI,2+ACAN",NA,NA,NA
"GLP003","CO","LB","107001587",NA,1032,"LBSEQ","11184",NA,"3+ACAN,1+ECHI",NA,NA,NA
"GLP003","CO","LB","107001588",NA,1033,"LBSEQ","11273",NA,"Specimen clotted",NA,NA,NA
"GLP003","CO","LB","107001588",NA,1034,"LBSEQ","11274",NA,"Specimen clotted",NA,NA,NA
"GLP003","CO","LB","107001588",NA,1035,"LBSEQ","11275",NA,"Specimen clotted",NA,NA,NA
"GLP003","CO","LB","107001588",NA,1036,"LBSEQ","11276",NA,"Specimen clotted",NA,NA,NA
"GLP003","CO","LB","107001588",NA,1037,"LBSEQ","11277",NA,"Specimen clotted",NA,NA,NA
"GLP003","CO","LB","107001588",NA,1038,"LBSEQ","11278",NA,"Specimen clotted",NA,NA,NA
"GLP003","CO","LB","107001588",NA,1039,"LBSEQ","11279",NA,"Specimen clotted",NA,NA,NA
"GLP003","CO","LB","107001588",NA,1040,"LBSEQ","11280",NA,"Specimen clotted",NA,NA,NA
"GLP003","CO","LB","107001588",NA,1041,"LBSEQ","11281",NA,"Specimen clotted",NA,NA,NA
"GLP003","CO","LB","107001588",NA,1042,"LBSEQ","11282",NA,"Specimen clotted",NA,NA,NA
"GLP003","CO","LB","107001588",NA,1043,"LBSEQ","11283",NA,"Specimen clotted",NA,NA,NA
"GLP003","CO","LB","107001588",NA,1044,"LBSEQ","11284",NA,"Specimen clotted",NA,NA,NA
"GLP003","CO","LB","107001588",NA,1045,"LBSEQ","11285",NA,"Specimen clotted",NA,NA,NA
"GLP003","CO","LB","107001588",NA,1046,"LBSEQ","11286",NA,"Specimen clotted",NA,NA,NA
"GLP003","CO","LB","107001588",NA,1047,"LBSEQ","11287",NA,"Specimen clotted",NA,NA,NA
"GLP003","CO","LB","107001588",NA,1048,"LBSEQ","11288",NA,"Specimen clotted",NA,NA,NA
"GLP003","CO","LB","107001588",NA,1049,"LBSEQ","11289",NA,"Specimen clotted",NA,NA,NA
"GLP003","CO","LB","107001588",NA,1050,"LBSEQ","11318",NA,"Specimen clotted",NA,NA,NA
"GLP003","CO","LB","107001588",NA,1051,"LBSEQ","11319",NA,"Specimen clotted",NA,NA,NA
"GLP003","CO","LB","107001588",NA,1052,"LBSEQ","11320",NA,"Specimen clotted",NA,NA,NA
"GLP003","CO","LB","107001588",NA,1053,"LBSEQ","11321",NA,"Specimen clotted",NA,NA,NA
"GLP003","CO","LB","107001588",NA,1054,"LBSEQ","11322",NA,"Specimen clotted",NA,NA,NA
"GLP003","CO","LB","107001588",NA,1055,"LBSEQ","11323",NA,"Specimen clotted",NA,NA,NA
"GLP003","CO","LB","107001588",NA,1056,"LBSEQ","11339",NA,"Specimen clotted",NA,NA,NA
"GLP003","CO","LB","107001588",NA,1057,"LBSEQ","11391",NA,"1+ECHI",NA,NA,NA
"GLP003","CO","LB","107001589",NA,1058,"LBSEQ","11458",NA,"1+ECHI,1+ACAN",NA,NA,NA
"GLP003","CO","LB","107001589",NA,1059,"LBSEQ","11528",NA,"1+ACAN",NA,NA,NA
"GLP003","CO","LB","107001592",NA,1060,"LBSEQ","11598",NA,"4+ECHI,2+ACAN",NA,NA,NA
"GLP003","CO","LB","107001594",NA,1061,"LBSEQ","11665",NA,"1+ECHI,1+ACAN",NA,NA,NA
"GLP003","CO","LB","107001598",NA,1062,"LBSEQ","11792",NA,"4+ECHI,2+ACAN",NA,NA,NA
"GLP003","CO","LB","107001598",NA,1063,"LBSEQ","11861",NA,"1+ECHI",NA,NA,NA
"GLP003","CO","LB","107001602",NA,1064,"LBSEQ","11931",NA,"4+ECHI,4+ACAN",NA,NA,NA
"GLP003","CO","LB","107001609",NA,1065,"LBSEQ","11998",NA,"4+ECHI,2+ACAN",NA,NA,NA
"GLP003","CO","LB","107001609",NA,1066,"LBSEQ","12068",NA,"2+ACAN",NA,NA,NA
"GLP003","CO","LB","107001610",NA,1067,"LBSEQ","12138",NA,"4+ECHI,3+ACAN",NA,NA,NA
"GLP003","CO","LB","107001612",NA,1068,"LBSEQ","12205",NA,"1+ECHI,1+ACAN",NA,NA,NA
"GLP003","CO","LB","107001612",NA,1069,"LBSEQ","12274",NA,"Platelet clumping",NA,NA,NA
"GLP003","CO","LB","107001616",NA,1070,"LBSEQ","12345",NA,"4+ECHI,1+ACAN",NA,NA,NA
"GLP003","CO","LB","107001617",NA,1071,"LBSEQ","12415",NA,"4+ECHI,3+ACAN",NA,NA,NA
"GLP003","CO","LB","107001618",NA,1072,"LBSEQ","12485",NA,"2+ECHI,1+ACAN",NA,NA,NA
"GLP003","CO","LB","107001619",NA,1073,"LBSEQ","12552",NA,"1+ECHI,1+ACAN",NA,NA,NA
"GLP003","CO","LB","107001619",NA,1074,"LBSEQ","12622",NA,"1+ACAN",NA,NA,NA
"GLP003","CO","LB","107001620",NA,1075,"LBSEQ","12692",NA,"1+ECHI,1+ACAN",NA,NA,NA
"GLP003","CO","LB","107001627",NA,1076,"LBSEQ","12762",NA,"4+ECHI,2+ACAN",NA,NA,NA
"GLP003","CO","LB","107001628",NA,1077,"LBSEQ","12829",NA,"4+ECHI,3+ACAN",NA,NA,NA
"GLP003","CO","LB","107001631",NA,1078,"LBSEQ","12969",NA,"1+ACAN",NA,NA,NA
"GLP003","CO","LB","107001633",NA,1079,"LBSEQ","13039",NA,"4+ECHI,3+ACAN",NA,NA,NA
"GLP003","CO","LB","107001637",NA,1080,"LBSEQ","13106",NA,"3+ECHI,1+ACAN",NA,NA,NA
"GLP003","CO","LB","107001638",NA,1081,"LBSEQ","13243",NA,"1+ECHI,1+ACAN",NA,NA,NA
"GLP003","CO","LB","107001638",NA,1082,"LBSEQ","13262",NA,"Specimen clotted",NA,NA,NA
"GLP003","CO","LB","107001638",NA,1083,"LBSEQ","13263",NA,"Specimen clotted",NA,NA,NA
"GLP003","CO","LB","107001638",NA,1084,"LBSEQ","13264",NA,"Specimen clotted",NA,NA,NA
"GLP003","CO","LB","107001638",NA,1085,"LBSEQ","13265",NA,"Specimen clotted",NA,NA,NA
"GLP003","CO","LB","107001638",NA,1086,"LBSEQ","13266",NA,"Specimen clotted",NA,NA,NA
"GLP003","CO","LB","107001638",NA,1087,"LBSEQ","13267",NA,"Specimen clotted",NA,NA,NA
"GLP003","CO","LB","107001638",NA,1088,"LBSEQ","13268",NA,"Specimen clotted",NA,NA,NA
"GLP003","CO","LB","107001638",NA,1089,"LBSEQ","13269",NA,"Specimen clotted",NA,NA,NA
"GLP003","CO","LB","107001638",NA,1090,"LBSEQ","13270",NA,"Specimen clotted",NA,NA,NA
"GLP003","CO","LB","107001638",NA,1091,"LBSEQ","13271",NA,"Specimen clotted",NA,NA,NA
"GLP003","CO","LB","107001638",NA,1092,"LBSEQ","13272",NA,"Specimen clotted",NA,NA,NA
"GLP003","CO","LB","107001638",NA,1093,"LBSEQ","13273",NA,"Specimen clotted",NA,NA,NA
"GLP003","CO","LB","107001638",NA,1094,"LBSEQ","13274",NA,"Specimen clotted",NA,NA,NA
"GLP003","CO","LB","107001638",NA,1095,"LBSEQ","13275",NA,"Specimen clotted",NA,NA,NA
"GLP003","CO","LB","107001638",NA,1096,"LBSEQ","13276",NA,"Specimen clotted",NA,NA,NA
"GLP003","CO","LB","107001638",NA,1097,"LBSEQ","13277",NA,"Specimen clotted",NA,NA,NA
"GLP003","CO","LB","107001638",NA,1098,"LBSEQ","13278",NA,"Specimen clotted",NA,NA,NA
"GLP003","CO","LB","107001641",NA,1099,"LBSEQ","13376",NA,"4+ECHI,4+ACAN",NA,NA,NA
"GLP003","CO","LB","107001643",NA,1100,"LBSEQ","13446",NA,"4+ECHi,2+ACAN",NA,NA,NA
"GLP003","CO","LB","107001644",NA,1101,"LBSEQ","13473",NA,"Platelet clumping. Qualitative estimate = ADEQ",NA,NA,NA
"GLP003","CO","LB","107001644",NA,1102,"LBSEQ","13512",NA,"Platelet clumping",NA,NA,NA
"GLP003","CO","LB","107001644",NA,1103,"LBSEQ","13513",NA,"4+ECHI,2+ACAN",NA,NA,NA
"GLP003","CO","LB","107001647",NA,1104,"LBSEQ","13653",NA,"4+ECHI,1+ACAN",NA,NA,NA
"GLP003","CO","MA","107001423",NA,1105,"MASEQ","547",NA,"corresponds to antemortem observation(s)",NA,NA,NA
"GLP003","CO","MA","107001437",NA,1106,"MASEQ","1327",NA,"corresponds to antemortem observation(s)",NA,NA,NA
"GLP003","CO","MA","107001368",NA,1107,"MASEQ","1405",NA,"dorsal and ventral surfaces",NA,NA,NA
"GLP003","CO","MA","107001368",NA,1108,"MASEQ","1406",NA,"soft tissue mass at base of skull, intracranially and anterior to the pituitary, enlarged (0.3x0.4 cm)",NA,NA,NA
"GLP003","CO","MA","107001629",NA,1109,"MASEQ","1913",NA,"corresponds to antemortem observation(s), all clinical signs due to dosing error. ventral thorax/leg edema present. food material in subcutaneous tissue of the neck. process as routine section",NA,NA,NA
"GLP003","CO","MA","107001574",NA,1110,"MASEQ","3396",NA,"all lobes. several areas of multifocal dark-red foci on both surfaces. process as routine section",NA,NA,NA
"GLP003","CO","MA","107001566",NA,1111,"MASEQ","4527",NA,"corresponds to antemortem observation(s), scabs on left side. also alopecia present on shoulders and forelimbs",NA,NA,NA
"GLP003","CO","MA","107001376",NA,1112,"MASEQ","4957",NA,"approximately 1.5x",NA,NA,NA
"GLP003","CO","MA","107001420",NA,1113,"MASEQ","4997",NA,"2 pinpoint foci",NA,NA,NA
"GLP003","CO","MA","107001435",NA,1114,"MASEQ","5192",NA,"corresponds to antemortem observation(s), 2 small wounds on the back",NA,NA,NA
"GLP003","CO","OM","107001641",NA,1115,"OMSEQ","580",NA,"Organ excluded because upon review of data, it was apparent that weight was incorrect.",NA,NA,NA
"GLP003","CO","OM","107001584",NA,1116,"OMSEQ","1274",NA,"Organ excluded because upon review of data, it was apparent that weight was incorrect.",NA,NA,NA
"GLP003","CO","MA","107001437",NA,1117,"MASEQ","1327",NA,"No microscopic finding corresponding to necropsy observation",NA,NA,NA
"GLP003","CO","MA","107001438",NA,1118,"MASEQ","3825",NA,"No microscopic finding corresponding to necropsy observation",NA,NA,NA
"GLP003","CO","MA","107001461",NA,1119,"MASEQ","4918",NA,"No microscopic finding corresponding to necropsy observation",NA,NA,NA
"GLP003","CO","MA","107001376",NA,1120,"MASEQ","4957",NA,"No microscopic finding corresponding to necropsy observation",NA,NA,NA
"GLP003","CO","MA","107001420",NA,1121,"MASEQ","4997",NA,"No microscopic finding corresponding to necropsy observation",NA,NA,NA
