"STUDYID","DOMAIN","USUBJID","DDSEQ","DDTESTCD","DDTEST","DDORRES","DDSTRESC","DDRESCAT","DDEVAL","DDDTC","DDDY"
"GLP003","DD","107001368",1,"DEATHD","Death Diagnosis","SYSTEMIC NEOPLASMS:Lymphoma (malignant neoplasm, definitely fatal)","LYMPHOMA, MALIGNANT","","","",NA
