<?xml version="1.0" encoding="ISO-8859-1"?>
<?xml-stylesheet type="text/xsl" href="define1-0-0.xsl"?>
<ODM CreationDateTime="2016-01-06T13:21:53"
     FileOID="Example Sponsor Inc..STUDY.GLP003" FileType="Snapshot"
     ODMVersion="1.2" Originator="Example Sponsor Inc."
     SourceSystem="SAS" SourceSystemVersion="9.2"
     xmlns="http://www.cdisc.org/ns/odm/v1.2"
     xmlns:def="http://www.cdisc.org/ns/def/v1.0"
     xmlns:xlink="http://www.w3.org/1999/xlink"
     xmlns:xsi="http://www.w3.org/2001/XMLSchema-instance" xsi:schemaLocation="http://www.cdisc.org/ns/odm/v1.2 http://www.cdisc.org/schema/def/v1.0/define1-0-0.xsd">
     <Study OID="STUDY.GLP003">
          <GlobalVariables>
               <StudyName>GLP003</StudyName>
               <StudyDescription>XYZ-12345 One-Month Oral Toxicity Study in Rats with a Two-Week Recovery</StudyDescription>
               <ProtocolName>GLP003</ProtocolName>
          </GlobalVariables>
          <MetaDataVersion
               Description="CDISC SEND 3.0 Data for Study GLP003.GLP003"
               Name="CDISC SEND 3.0 Data for Study GLP003.GLP003"
               OID="CDISC.SEND.3.0" def:DefineVersion="1.0.0"
               def:StandardName="CDISC SEND" def:StandardVersion="3.0">
               <def:ComputationMethod OID="COMPMETHOD.COMPAGE">If birth date is collected, this animal's start date on the dosing phase (RFSTDTC) minus Birth date+1, otherwise this is the age of the animal at the start of the study if that is defined in the study protocol.</def:ComputationMethod>
               <def:ComputationMethod OID="COMPMETHOD.COMPBLFL">Y for last non missing record on or before the first dose date (RFSTDTC); otherwise Null</def:ComputationMethod>
               <def:ComputationMethod OID="COMPMETHOD.COMPDOSE">Actual amount of test article in the dose administered: EXVAMT * Dose concentration</def:ComputationMethod>
               <def:ComputationMethod OID="COMPMETHOD.COMPDY">"--DTC minus RFSTDTC plus 1 if --DTC is on or after RFSTDTC. --DTC minus RFSTDTC if --DTC precedes RFSTDTC."</def:ComputationMethod>
               <def:ComputationMethod OID="COMPMETHOD.COMPENDY">"--ENDTC minus RFSTDTC plus 1 if --ENDTC is on or after RFSTDTC. --ENDTC minus RFSTDTC if --ENDTC precedes RFSTDTC."</def:ComputationMethod>
               <def:ComputationMethod OID="COMPMETHOD.COMPFWPERDAY">The total amount of food consumed during the interval divided by the number of animals in the cage * number of cage days in the interval</def:ComputationMethod>
               <def:ComputationMethod OID="COMPMETHOD.COMPSEQ">Sequential number identifying records within a dataset</def:ComputationMethod>
               <def:ComputationMethod OID="COMPMETHOD.COMPSTDY">"--STDTC minus RFSTDTC plus 1 if --STDTC is on or after RFSTDTC. --STDTC minus RFSTDTC if --STDTC precedes RFSTDTC"</def:ComputationMethod>
               <def:ComputationMethod OID="COMPMETHOD.COMPSTRESC">Copy of --ORRES</def:ComputationMethod>
               <def:ComputationMethod OID="COMPMETHOD.COMPSTRESN">When --STRESC contains a numeric result, the numeric equivalent is reported in --STRESN</def:ComputationMethod>
               <def:ComputationMethod OID="COMPMETHOD.COMPSTRESU">WHEN --STRESC contains a numeric result, --ORRESU is reported in --STRESU</def:ComputationMethod>
               <def:ComputationMethod OID="COMPMETHOD.COMPTFDETECT">Earliest day of any study finding that is correlated to the tumor finding</def:ComputationMethod>
               <def:ComputationMethod OID="COMPMETHOD.COMPTISSUE">Derived from the organ/tissue name used during sample collection.</def:ComputationMethod>
               <def:ComputationMethod OID="COMPMETHOD.COMPTPTNUM">A value assigned to each unique session name that is reported in --TPT.</def:ComputationMethod>
               <def:ComputationMethod OID="COMPMETHOD.COMPUSUBJID">Concatenation of STUDYID-SUBJID</def:ComputationMethod>
               <def:ComputationMethod OID="COMPMETHOD.COMPVISITDY">Set equal to associated domain --DY except when activity was performed on a different day than planned or activity was unscheduled.</def:ComputationMethod>
               <def:ValueListDef OID="ValueList.BG.BGTESTCD">
                    <ItemRef ItemOID="BG.BGTESTCD.BWGAIN" Mandatory="No"
                         OrderNumber="1" Role="Topic" RoleCodeListOID="ROLECODELIST"/>
               </def:ValueListDef>
               <def:ValueListDef OID="ValueList.BW.BWTESTCD">
                    <ItemRef ItemOID="BW.BWTESTCD.BW" Mandatory="No"
                         OrderNumber="1" Role="Topic" RoleCodeListOID="ROLECODELIST"/>
                    <ItemRef ItemOID="BW.BWTESTCD.TERMBW" Mandatory="No"
                         OrderNumber="2" Role="Topic" RoleCodeListOID="ROLECODELIST"/>
               </def:ValueListDef>
               <def:ValueListDef OID="ValueList.CL.CLCAT">
                    <ItemRef ItemOID="CL.CLCAT.CLINICAL SIGNS"
                         Mandatory="No" OrderNumber="1"
                         Role="Grouping Qualifier" RoleCodeListOID="ROLECODELIST"/>
                    <ItemRef ItemOID="CL.CLCAT.OPHTHALMOLOGY"
                         Mandatory="No" OrderNumber="2"
                         Role="Grouping Qualifier" RoleCodeListOID="ROLECODELIST"/>
                    <ItemRef ItemOID="CL.CLCAT.PHYSICAL EXAM"
                         Mandatory="No" OrderNumber="3"
                         Role="Grouping Qualifier" RoleCodeListOID="ROLECODELIST"/>
               </def:ValueListDef>
               <def:ValueListDef OID="ValueList.CL.CLCAT.CLINICAL SIGNS.CLTESTCD">
                    <ItemRef
                         ItemOID="CL.CLCAT.CLINICAL SIGNS.CLTESTCD.CO"
                         Mandatory="No" OrderNumber="1" Role="Topic" RoleCodeListOID="ROLECODELIST"/>
                    <ItemRef
                         ItemOID="CL.CLCAT.CLINICAL SIGNS.CLTESTCD.UVBS"
                         Mandatory="No" OrderNumber="2" Role="Topic" RoleCodeListOID="ROLECODELIST"/>
               </def:ValueListDef>
               <def:ValueListDef OID="ValueList.CL.CLCAT.OPHTHALMOLOGY.CLTESTCD">
                    <ItemRef
                         ItemOID="CL.CLCAT.OPHTHALMOLOGY.CLTESTCD.EOBS"
                         Mandatory="No" OrderNumber="1" Role="Topic" RoleCodeListOID="ROLECODELIST"/>
               </def:ValueListDef>
               <def:ValueListDef OID="ValueList.CL.CLCAT.PHYSICAL EXAM.CLTESTCD">
                    <ItemRef
                         ItemOID="CL.CLCAT.PHYSICAL EXAM.CLTESTCD.VOBS"
                         Mandatory="No" OrderNumber="1" Role="Topic" RoleCodeListOID="ROLECODELIST"/>
               </def:ValueListDef>
               <def:ValueListDef OID="ValueList.DD.DDTESTCD">
                    <ItemRef ItemOID="DD.DDTESTCD.DEATHD" Mandatory="No"
                         OrderNumber="1" Role="Topic" RoleCodeListOID="ROLECODELIST"/>
               </def:ValueListDef>
               <def:ValueListDef OID="ValueList.FW.FWTESTCD">
                    <ItemRef ItemOID="FW.FWTESTCD.FC" Mandatory="No"
                         OrderNumber="1" Role="Topic" RoleCodeListOID="ROLECODELIST"/>
                    <ItemRef ItemOID="FW.FWTESTCD.WC" Mandatory="No"
                         OrderNumber="2" Role="Topic" RoleCodeListOID="ROLECODELIST"/>
               </def:ValueListDef>
               <def:ValueListDef OID="ValueList.LB.LBCAT">
                    <ItemRef ItemOID="LB.LBCAT.COAGULATION"
                         Mandatory="No" OrderNumber="1"
                         Role="Grouping Qualifier" RoleCodeListOID="ROLECODELIST"/>
                    <ItemRef ItemOID="LB.LBCAT.HEMATOLOGY"
                         Mandatory="No" OrderNumber="2"
                         Role="Grouping Qualifier" RoleCodeListOID="ROLECODELIST"/>
                    <ItemRef ItemOID="LB.LBCAT.SERUM CHEMISTRY"
                         Mandatory="No" OrderNumber="3"
                         Role="Grouping Qualifier" RoleCodeListOID="ROLECODELIST"/>
                    <ItemRef ItemOID="LB.LBCAT.URINALYSIS"
                         Mandatory="No" OrderNumber="4"
                         Role="Grouping Qualifier" RoleCodeListOID="ROLECODELIST"/>
               </def:ValueListDef>
               <def:ValueListDef OID="ValueList.LB.LBCAT.COAGULATION.LBTESTCD">
                    <ItemRef
                         ItemOID="LB.LBCAT.COAGULATION.LBTESTCD.APTT"
                         Mandatory="No" OrderNumber="1" Role="Topic" RoleCodeListOID="ROLECODELIST"/>
                    <ItemRef
                         ItemOID="LB.LBCAT.COAGULATION.LBTESTCD.FIBRINO"
                         Mandatory="No" OrderNumber="2" Role="Topic" RoleCodeListOID="ROLECODELIST"/>
                    <ItemRef ItemOID="LB.LBCAT.COAGULATION.LBTESTCD.PT"
                         Mandatory="No" OrderNumber="3" Role="Topic" RoleCodeListOID="ROLECODELIST"/>
               </def:ValueListDef>
               <def:ValueListDef OID="ValueList.LB.LBCAT.HEMATOLOGY.LBTESTCD">
                    <ItemRef
                         ItemOID="LB.LBCAT.HEMATOLOGY.LBTESTCD.ANISO"
                         Mandatory="No" OrderNumber="1" Role="Topic" RoleCodeListOID="ROLECODELIST"/>
                    <ItemRef ItemOID="LB.LBCAT.HEMATOLOGY.LBTESTCD.BASO"
                         Mandatory="No" OrderNumber="2" Role="Topic" RoleCodeListOID="ROLECODELIST"/>
                    <ItemRef ItemOID="LB.LBCAT.HEMATOLOGY.LBTESTCD.EOS"
                         Mandatory="No" OrderNumber="3" Role="Topic" RoleCodeListOID="ROLECODELIST"/>
                    <ItemRef ItemOID="LB.LBCAT.HEMATOLOGY.LBTESTCD.HCT"
                         Mandatory="No" OrderNumber="4" Role="Topic" RoleCodeListOID="ROLECODELIST"/>
                    <ItemRef ItemOID="LB.LBCAT.HEMATOLOGY.LBTESTCD.HGB"
                         Mandatory="No" OrderNumber="5" Role="Topic" RoleCodeListOID="ROLECODELIST"/>
                    <ItemRef
                         ItemOID="LB.LBCAT.HEMATOLOGY.LBTESTCD.LGUNSCE"
                         Mandatory="No" OrderNumber="6" Role="Topic" RoleCodeListOID="ROLECODELIST"/>
                    <ItemRef ItemOID="LB.LBCAT.HEMATOLOGY.LBTESTCD.LYM"
                         Mandatory="No" OrderNumber="7" Role="Topic" RoleCodeListOID="ROLECODELIST"/>
                    <ItemRef ItemOID="LB.LBCAT.HEMATOLOGY.LBTESTCD.MCH"
                         Mandatory="No" OrderNumber="8" Role="Topic" RoleCodeListOID="ROLECODELIST"/>
                    <ItemRef ItemOID="LB.LBCAT.HEMATOLOGY.LBTESTCD.MCHC"
                         Mandatory="No" OrderNumber="9" Role="Topic" RoleCodeListOID="ROLECODELIST"/>
                    <ItemRef ItemOID="LB.LBCAT.HEMATOLOGY.LBTESTCD.MCV"
                         Mandatory="No" OrderNumber="10" Role="Topic" RoleCodeListOID="ROLECODELIST"/>
                    <ItemRef ItemOID="LB.LBCAT.HEMATOLOGY.LBTESTCD.MONO"
                         Mandatory="No" OrderNumber="11" Role="Topic" RoleCodeListOID="ROLECODELIST"/>
                    <ItemRef ItemOID="LB.LBCAT.HEMATOLOGY.LBTESTCD.NEUT"
                         Mandatory="No" OrderNumber="12" Role="Topic" RoleCodeListOID="ROLECODELIST"/>
                    <ItemRef ItemOID="LB.LBCAT.HEMATOLOGY.LBTESTCD.PLAT"
                         Mandatory="No" OrderNumber="13" Role="Topic" RoleCodeListOID="ROLECODELIST"/>
                    <ItemRef
                         ItemOID="LB.LBCAT.HEMATOLOGY.LBTESTCD.PLATM"
                         Mandatory="No" OrderNumber="14" Role="Topic" RoleCodeListOID="ROLECODELIST"/>
                    <ItemRef
                         ItemOID="LB.LBCAT.HEMATOLOGY.LBTESTCD.POIKILO"
                         Mandatory="No" OrderNumber="15" Role="Topic" RoleCodeListOID="ROLECODELIST"/>
                    <ItemRef
                         ItemOID="LB.LBCAT.HEMATOLOGY.LBTESTCD.POLYCHR"
                         Mandatory="No" OrderNumber="16" Role="Topic" RoleCodeListOID="ROLECODELIST"/>
                    <ItemRef ItemOID="LB.LBCAT.HEMATOLOGY.LBTESTCD.RBC"
                         Mandatory="No" OrderNumber="17" Role="Topic" RoleCodeListOID="ROLECODELIST"/>
                    <ItemRef
                         ItemOID="LB.LBCAT.HEMATOLOGY.LBTESTCD.RBCINCL"
                         Mandatory="No" OrderNumber="18" Role="Topic" RoleCodeListOID="ROLECODELIST"/>
                    <ItemRef
                         ItemOID="LB.LBCAT.HEMATOLOGY.LBTESTCD.RBCMORPH"
                         Mandatory="No" OrderNumber="19" Role="Topic" RoleCodeListOID="ROLECODELIST"/>
                    <ItemRef ItemOID="LB.LBCAT.HEMATOLOGY.LBTESTCD.RDW"
                         Mandatory="No" OrderNumber="20" Role="Topic" RoleCodeListOID="ROLECODELIST"/>
                    <ItemRef ItemOID="LB.LBCAT.HEMATOLOGY.LBTESTCD.RETI"
                         Mandatory="No" OrderNumber="21" Role="Topic" RoleCodeListOID="ROLECODELIST"/>
                    <ItemRef
                         ItemOID="LB.LBCAT.HEMATOLOGY.LBTESTCD.RETIRBC"
                         Mandatory="No" OrderNumber="22" Role="Topic" RoleCodeListOID="ROLECODELIST"/>
                    <ItemRef ItemOID="LB.LBCAT.HEMATOLOGY.LBTESTCD.WBC"
                         Mandatory="No" OrderNumber="23" Role="Topic" RoleCodeListOID="ROLECODELIST"/>
                    <ItemRef
                         ItemOID="LB.LBCAT.HEMATOLOGY.LBTESTCD.WBCMORPH"
                         Mandatory="No" OrderNumber="24" Role="Topic" RoleCodeListOID="ROLECODELIST"/>
               </def:ValueListDef>
               <def:ValueListDef OID="ValueList.LB.LBCAT.SERUM CHEMISTRY.LBTESTCD">
                    <ItemRef
                         ItemOID="LB.LBCAT.SERUM CHEMISTRY.LBTESTCD.ALB"
                         Mandatory="No" OrderNumber="1" Role="Topic" RoleCodeListOID="ROLECODELIST"/>
                    <ItemRef
                         ItemOID="LB.LBCAT.SERUM CHEMISTRY.LBTESTCD.ALBGLOB"
                         Mandatory="No" OrderNumber="2" Role="Topic" RoleCodeListOID="ROLECODELIST"/>
                    <ItemRef
                         ItemOID="LB.LBCAT.SERUM CHEMISTRY.LBTESTCD.ALP"
                         Mandatory="No" OrderNumber="3" Role="Topic" RoleCodeListOID="ROLECODELIST"/>
                    <ItemRef
                         ItemOID="LB.LBCAT.SERUM CHEMISTRY.LBTESTCD.ALT"
                         Mandatory="No" OrderNumber="4" Role="Topic" RoleCodeListOID="ROLECODELIST"/>
                    <ItemRef
                         ItemOID="LB.LBCAT.SERUM CHEMISTRY.LBTESTCD.AST"
                         Mandatory="No" OrderNumber="5" Role="Topic" RoleCodeListOID="ROLECODELIST"/>
                    <ItemRef
                         ItemOID="LB.LBCAT.SERUM CHEMISTRY.LBTESTCD.BICARB"
                         Mandatory="No" OrderNumber="6" Role="Topic" RoleCodeListOID="ROLECODELIST"/>
                    <ItemRef
                         ItemOID="LB.LBCAT.SERUM CHEMISTRY.LBTESTCD.BILI"
                         Mandatory="No" OrderNumber="7" Role="Topic" RoleCodeListOID="ROLECODELIST"/>
                    <ItemRef
                         ItemOID="LB.LBCAT.SERUM CHEMISTRY.LBTESTCD.BUN"
                         Mandatory="No" OrderNumber="8" Role="Topic" RoleCodeListOID="ROLECODELIST"/>
                    <ItemRef
                         ItemOID="LB.LBCAT.SERUM CHEMISTRY.LBTESTCD.CA"
                         Mandatory="No" OrderNumber="9" Role="Topic" RoleCodeListOID="ROLECODELIST"/>
                    <ItemRef
                         ItemOID="LB.LBCAT.SERUM CHEMISTRY.LBTESTCD.CHOL"
                         Mandatory="No" OrderNumber="10" Role="Topic" RoleCodeListOID="ROLECODELIST"/>
                    <ItemRef
                         ItemOID="LB.LBCAT.SERUM CHEMISTRY.LBTESTCD.CL"
                         Mandatory="No" OrderNumber="11" Role="Topic" RoleCodeListOID="ROLECODELIST"/>
                    <ItemRef
                         ItemOID="LB.LBCAT.SERUM CHEMISTRY.LBTESTCD.CREAT"
                         Mandatory="No" OrderNumber="12" Role="Topic" RoleCodeListOID="ROLECODELIST"/>
                    <ItemRef
                         ItemOID="LB.LBCAT.SERUM CHEMISTRY.LBTESTCD.GLOBUL"
                         Mandatory="No" OrderNumber="13" Role="Topic" RoleCodeListOID="ROLECODELIST"/>
                    <ItemRef
                         ItemOID="LB.LBCAT.SERUM CHEMISTRY.LBTESTCD.GLUC"
                         Mandatory="No" OrderNumber="14" Role="Topic" RoleCodeListOID="ROLECODELIST"/>
                    <ItemRef
                         ItemOID="LB.LBCAT.SERUM CHEMISTRY.LBTESTCD.K"
                         Mandatory="No" OrderNumber="15" Role="Topic" RoleCodeListOID="ROLECODELIST"/>
                    <ItemRef
                         ItemOID="LB.LBCAT.SERUM CHEMISTRY.LBTESTCD.PHOS"
                         Mandatory="No" OrderNumber="16" Role="Topic" RoleCodeListOID="ROLECODELIST"/>
                    <ItemRef
                         ItemOID="LB.LBCAT.SERUM CHEMISTRY.LBTESTCD.PROT"
                         Mandatory="No" OrderNumber="17" Role="Topic" RoleCodeListOID="ROLECODELIST"/>
                    <ItemRef
                         ItemOID="LB.LBCAT.SERUM CHEMISTRY.LBTESTCD.SODIUM"
                         Mandatory="No" OrderNumber="18" Role="Topic" RoleCodeListOID="ROLECODELIST"/>
                    <ItemRef
                         ItemOID="LB.LBCAT.SERUM CHEMISTRY.LBTESTCD.TRIG"
                         Mandatory="No" OrderNumber="19" Role="Topic" RoleCodeListOID="ROLECODELIST"/>
               </def:ValueListDef>
               <def:ValueListDef OID="ValueList.LB.LBCAT.URINALYSIS.LBTESTCD">
                    <ItemRef ItemOID="LB.LBCAT.URINALYSIS.LBTESTCD.BACT"
                         Mandatory="No" OrderNumber="1" Role="Topic" RoleCodeListOID="ROLECODELIST"/>
                    <ItemRef ItemOID="LB.LBCAT.URINALYSIS.LBTESTCD.BILI"
                         Mandatory="No" OrderNumber="2" Role="Topic" RoleCodeListOID="ROLECODELIST"/>
                    <ItemRef
                         ItemOID="LB.LBCAT.URINALYSIS.LBTESTCD.CASTS"
                         Mandatory="No" OrderNumber="3" Role="Topic" RoleCodeListOID="ROLECODELIST"/>
                    <ItemRef
                         ItemOID="LB.LBCAT.URINALYSIS.LBTESTCD.CLARITY"
                         Mandatory="No" OrderNumber="4" Role="Topic" RoleCodeListOID="ROLECODELIST"/>
                    <ItemRef
                         ItemOID="LB.LBCAT.URINALYSIS.LBTESTCD.COLOR"
                         Mandatory="No" OrderNumber="5" Role="Topic" RoleCodeListOID="ROLECODELIST"/>
                    <ItemRef
                         ItemOID="LB.LBCAT.URINALYSIS.LBTESTCD.CRYOTHER"
                         Mandatory="No" OrderNumber="6" Role="Topic" RoleCodeListOID="ROLECODELIST"/>
                    <ItemRef
                         ItemOID="LB.LBCAT.URINALYSIS.LBTESTCD.CYAMORPH"
                         Mandatory="No" OrderNumber="7" Role="Topic" RoleCodeListOID="ROLECODELIST"/>
                    <ItemRef
                         ItemOID="LB.LBCAT.URINALYSIS.LBTESTCD.CYCACAR"
                         Mandatory="No" OrderNumber="8" Role="Topic" RoleCodeListOID="ROLECODELIST"/>
                    <ItemRef
                         ItemOID="LB.LBCAT.URINALYSIS.LBTESTCD.CYCAOXA"
                         Mandatory="No" OrderNumber="9" Role="Topic" RoleCodeListOID="ROLECODELIST"/>
                    <ItemRef
                         ItemOID="LB.LBCAT.URINALYSIS.LBTESTCD.CYTRPHOS"
                         Mandatory="No" OrderNumber="10" Role="Topic" RoleCodeListOID="ROLECODELIST"/>
                    <ItemRef ItemOID="LB.LBCAT.URINALYSIS.LBTESTCD.EPIC"
                         Mandatory="No" OrderNumber="11" Role="Topic" RoleCodeListOID="ROLECODELIST"/>
                    <ItemRef ItemOID="LB.LBCAT.URINALYSIS.LBTESTCD.GLUC"
                         Mandatory="No" OrderNumber="12" Role="Topic" RoleCodeListOID="ROLECODELIST"/>
                    <ItemRef
                         ItemOID="LB.LBCAT.URINALYSIS.LBTESTCD.KETONES"
                         Mandatory="No" OrderNumber="13" Role="Topic" RoleCodeListOID="ROLECODELIST"/>
                    <ItemRef ItemOID="LB.LBCAT.URINALYSIS.LBTESTCD.MISC"
                         Mandatory="No" OrderNumber="14" Role="Topic" RoleCodeListOID="ROLECODELIST"/>
                    <ItemRef
                         ItemOID="LB.LBCAT.URINALYSIS.LBTESTCD.OCCBLD"
                         Mandatory="No" OrderNumber="15" Role="Topic" RoleCodeListOID="ROLECODELIST"/>
                    <ItemRef ItemOID="LB.LBCAT.URINALYSIS.LBTESTCD.PH"
                         Mandatory="No" OrderNumber="16" Role="Topic" RoleCodeListOID="ROLECODELIST"/>
                    <ItemRef ItemOID="LB.LBCAT.URINALYSIS.LBTESTCD.PROT"
                         Mandatory="No" OrderNumber="17" Role="Topic" RoleCodeListOID="ROLECODELIST"/>
                    <ItemRef ItemOID="LB.LBCAT.URINALYSIS.LBTESTCD.RBC"
                         Mandatory="No" OrderNumber="18" Role="Topic" RoleCodeListOID="ROLECODELIST"/>
                    <ItemRef
                         ItemOID="LB.LBCAT.URINALYSIS.LBTESTCD.SPERM"
                         Mandatory="No" OrderNumber="19" Role="Topic" RoleCodeListOID="ROLECODELIST"/>
                    <ItemRef
                         ItemOID="LB.LBCAT.URINALYSIS.LBTESTCD.SPGRAV"
                         Mandatory="No" OrderNumber="20" Role="Topic" RoleCodeListOID="ROLECODELIST"/>
                    <ItemRef
                         ItemOID="LB.LBCAT.URINALYSIS.LBTESTCD.UROBIL"
                         Mandatory="No" OrderNumber="21" Role="Topic" RoleCodeListOID="ROLECODELIST"/>
                    <ItemRef
                         ItemOID="LB.LBCAT.URINALYSIS.LBTESTCD.VOLUME"
                         Mandatory="No" OrderNumber="22" Role="Topic" RoleCodeListOID="ROLECODELIST"/>
                    <ItemRef ItemOID="LB.LBCAT.URINALYSIS.LBTESTCD.WBC"
                         Mandatory="No" OrderNumber="23" Role="Topic" RoleCodeListOID="ROLECODELIST"/>
               </def:ValueListDef>
               <def:ValueListDef OID="ValueList.MA.MATESTCD">
                    <ItemRef ItemOID="MA.MATESTCD.GROSPATH"
                         Mandatory="No" OrderNumber="1" Role="Topic" RoleCodeListOID="ROLECODELIST"/>
               </def:ValueListDef>
               <def:ValueListDef OID="ValueList.MI.MITESTCD">
                    <ItemRef ItemOID="MI.MITESTCD.MIEXAM" Mandatory="No"
                         OrderNumber="1" Role="Topic" RoleCodeListOID="ROLECODELIST"/>
               </def:ValueListDef>
               <def:ValueListDef OID="ValueList.OM.OMTESTCD">
                    <ItemRef ItemOID="OM.OMTESTCD.WEIGHT" Mandatory="No"
                         OrderNumber="1" Role="Topic" RoleCodeListOID="ROLECODELIST"/>
               </def:ValueListDef>
               <def:ValueListDef OID="ValueList.PC.PCCAT">
                    <ItemRef ItemOID="PC.PCCAT.ANALYTE" Mandatory="No"
                         OrderNumber="1" Role="Grouping Qualifier" RoleCodeListOID="ROLECODELIST"/>
               </def:ValueListDef>
               <def:ValueListDef OID="ValueList.PC.PCCAT.ANALYTE.PCTESTCD">
                    <ItemRef
                         ItemOID="PC.PCCAT.ANALYTE.PCTESTCD.XYZ12345"
                         Mandatory="No" OrderNumber="1" Role="Topic" RoleCodeListOID="ROLECODELIST"/>
               </def:ValueListDef>
               <def:ValueListDef OID="ValueList.PP.PPCAT">
                    <ItemRef ItemOID="PP.PPCAT.XYZ-12345" Mandatory="No"
                         OrderNumber="1" Role="Grouping Qualifier" RoleCodeListOID="ROLECODELIST"/>
               </def:ValueListDef>
               <def:ValueListDef OID="ValueList.PP.PPCAT.XYZ-12345.PPTESTCD">
                    <ItemRef
                         ItemOID="PP.PPCAT.XYZ-12345.PPTESTCD.AUCALL"
                         Mandatory="No" OrderNumber="1" Role="Topic" RoleCodeListOID="ROLECODELIST"/>
                    <ItemRef ItemOID="PP.PPCAT.XYZ-12345.PPTESTCD.CMAX"
                         Mandatory="No" OrderNumber="2" Role="Topic" RoleCodeListOID="ROLECODELIST"/>
               </def:ValueListDef>
               <def:ValueListDef OID="ValueList.SUPPMA.QNAM">
                    <ItemRef ItemOID="SUPPMA.QNAM.MIRESMOD"
                         Mandatory="No" OrderNumber="1" Role="Topic" RoleCodeListOID="ROLECODELIST"/>
               </def:ValueListDef>
               <def:ValueListDef OID="ValueList.SUPPMI.QNAM">
                    <ItemRef ItemOID="SUPPMI.QNAM.MIRESMOD"
                         Mandatory="No" OrderNumber="1" Role="Topic" RoleCodeListOID="ROLECODELIST"/>
               </def:ValueListDef>
               <def:ValueListDef OID="ValueList.TF.TFTESTCD">
                    <ItemRef ItemOID="TF.TFTESTCD.TUMEX" Mandatory="No"
                         OrderNumber="1" Role="Topic" RoleCodeListOID="ROLECODELIST"/>
               </def:ValueListDef>
               <def:ValueListDef OID="ValueList.TS.TSPARMCD">
                    <ItemRef ItemOID="TS.TSPARMCD.AGETXT" Mandatory="No"
                         OrderNumber="1" Role="Topic" RoleCodeListOID="ROLECODELIST"/>
                    <ItemRef ItemOID="TS.TSPARMCD.AGEU" Mandatory="No"
                         OrderNumber="2" Role="Topic" RoleCodeListOID="ROLECODELIST"/>
                    <ItemRef ItemOID="TS.TSPARMCD.DOSDUR" Mandatory="No"
                         OrderNumber="3" Role="Topic" RoleCodeListOID="ROLECODELIST"/>
                    <ItemRef ItemOID="TS.TSPARMCD.EXPENDTC"
                         Mandatory="No" OrderNumber="4" Role="Topic" RoleCodeListOID="ROLECODELIST"/>
                    <ItemRef ItemOID="TS.TSPARMCD.EXPSTDTC"
                         Mandatory="No" OrderNumber="5" Role="Topic" RoleCodeListOID="ROLECODELIST"/>
                    <ItemRef ItemOID="TS.TSPARMCD.GLPTYP" Mandatory="No"
                         OrderNumber="6" Role="Topic" RoleCodeListOID="ROLECODELIST"/>
                    <ItemRef ItemOID="TS.TSPARMCD.ROUTE" Mandatory="No"
                         OrderNumber="7" Role="Topic" RoleCodeListOID="ROLECODELIST"/>
                    <ItemRef ItemOID="TS.TSPARMCD.SDESIGN"
                         Mandatory="No" OrderNumber="8" Role="Topic" RoleCodeListOID="ROLECODELIST"/>
                    <ItemRef ItemOID="TS.TSPARMCD.SLENGTH"
                         Mandatory="No" OrderNumber="9" Role="Topic" RoleCodeListOID="ROLECODELIST"/>
                    <ItemRef ItemOID="TS.TSPARMCD.SNDCTVER"
                         Mandatory="No" OrderNumber="10" Role="Topic" RoleCodeListOID="ROLECODELIST"/>
                    <ItemRef ItemOID="TS.TSPARMCD.SNDIGVER"
                         Mandatory="No" OrderNumber="11" Role="Topic" RoleCodeListOID="ROLECODELIST"/>
                    <ItemRef ItemOID="TS.TSPARMCD.SPECIES"
                         Mandatory="No" OrderNumber="12" Role="Topic" RoleCodeListOID="ROLECODELIST"/>
                    <ItemRef ItemOID="TS.TSPARMCD.SPLANSUB"
                         Mandatory="No" OrderNumber="13" Role="Topic" RoleCodeListOID="ROLECODELIST"/>
                    <ItemRef ItemOID="TS.TSPARMCD.SPLRNAM"
                         Mandatory="No" OrderNumber="14" Role="Topic" RoleCodeListOID="ROLECODELIST"/>
                    <ItemRef ItemOID="TS.TSPARMCD.SPREFID"
                         Mandatory="No" OrderNumber="15" Role="Topic" RoleCodeListOID="ROLECODELIST"/>
                    <ItemRef ItemOID="TS.TSPARMCD.SSPONSOR"
                         Mandatory="No" OrderNumber="16" Role="Topic" RoleCodeListOID="ROLECODELIST"/>
                    <ItemRef ItemOID="TS.TSPARMCD.SSTYP" Mandatory="No"
                         OrderNumber="17" Role="Topic" RoleCodeListOID="ROLECODELIST"/>
                    <ItemRef ItemOID="TS.TSPARMCD.STCAT" Mandatory="No"
                         OrderNumber="18" Role="Topic" RoleCodeListOID="ROLECODELIST"/>
                    <ItemRef ItemOID="TS.TSPARMCD.STDIR" Mandatory="No"
                         OrderNumber="19" Role="Topic" RoleCodeListOID="ROLECODELIST"/>
                    <ItemRef ItemOID="TS.TSPARMCD.STITLE" Mandatory="No"
                         OrderNumber="20" Role="Topic" RoleCodeListOID="ROLECODELIST"/>
                    <ItemRef ItemOID="TS.TSPARMCD.STRAIN" Mandatory="No"
                         OrderNumber="21" Role="Topic" RoleCodeListOID="ROLECODELIST"/>
                    <ItemRef ItemOID="TS.TSPARMCD.STSTDTC"
                         Mandatory="No" OrderNumber="22" Role="Topic" RoleCodeListOID="ROLECODELIST"/>
                    <ItemRef ItemOID="TS.TSPARMCD.TFCNTRY"
                         Mandatory="No" OrderNumber="23" Role="Topic" RoleCodeListOID="ROLECODELIST"/>
                    <ItemRef ItemOID="TS.TSPARMCD.TRMSAC" Mandatory="No"
                         OrderNumber="24" Role="Topic" RoleCodeListOID="ROLECODELIST"/>
                    <ItemRef ItemOID="TS.TSPARMCD.TRT" Mandatory="No"
                         OrderNumber="25" Role="Topic" RoleCodeListOID="ROLECODELIST"/>
                    <ItemRef ItemOID="TS.TSPARMCD.TRTCAS" Mandatory="No"
                         OrderNumber="26" Role="Topic" RoleCodeListOID="ROLECODELIST"/>
                    <ItemRef ItemOID="TS.TSPARMCD.TRTV" Mandatory="No"
                         OrderNumber="27" Role="Topic" RoleCodeListOID="ROLECODELIST"/>
                    <ItemRef ItemOID="TS.TSPARMCD.TSTFLOC"
                         Mandatory="No" OrderNumber="28" Role="Topic" RoleCodeListOID="ROLECODELIST"/>
                    <ItemRef ItemOID="TS.TSPARMCD.TSTFNAM"
                         Mandatory="No" OrderNumber="29" Role="Topic" RoleCodeListOID="ROLECODELIST"/>
               </def:ValueListDef>
               <def:ValueListDef OID="ValueList.TX.TXPARMCD">
                    <ItemRef ItemOID="TX.TXPARMCD.ARMCD" Mandatory="No"
                         OrderNumber="1" Role="Topic" RoleCodeListOID="ROLECODELIST"/>
                    <ItemRef ItemOID="TX.TXPARMCD.GRPLBL" Mandatory="No"
                         OrderNumber="2" Role="Topic" RoleCodeListOID="ROLECODELIST"/>
                    <ItemRef ItemOID="TX.TXPARMCD.SPGRPCD"
                         Mandatory="No" OrderNumber="3" Role="Topic" RoleCodeListOID="ROLECODELIST"/>
                    <ItemRef ItemOID="TX.TXPARMCD.TCNTRL" Mandatory="No"
                         OrderNumber="4" Role="Topic" RoleCodeListOID="ROLECODELIST"/>
                    <ItemRef ItemOID="TX.TXPARMCD.TRTDOS" Mandatory="No"
                         OrderNumber="5" Role="Topic" RoleCodeListOID="ROLECODELIST"/>
                    <ItemRef ItemOID="TX.TXPARMCD.TRTDOSU"
                         Mandatory="No" OrderNumber="6" Role="Topic" RoleCodeListOID="ROLECODELIST"/>
               </def:ValueListDef>
               <ItemGroupDef IsReferenceData="Yes" Name="TA" OID="TA"
                    Purpose="Tabulation" Repeating="No"
                    def:ArchiveLocationID="Location.TA"
                    def:Class="Trial Design"
                    def:DomainKeys="STUDYID, ARMCD, TAETORD"
                    def:Label="TRIAL ARMS" def:Structure="One record per planned Element per Arm">
                    <ItemRef ItemOID="TA.STUDYID" Mandatory="Yes"
                         OrderNumber="1" Role="Identifier" RoleCodeListOID="ROLECODELIST"/>
                    <ItemRef ItemOID="TA.DOMAIN" Mandatory="Yes"
                         OrderNumber="2" Role="Identifier" RoleCodeListOID="ROLECODELIST"/>
                    <ItemRef ItemOID="TA.ARMCD" Mandatory="Yes"
                         OrderNumber="3" Role="Topic" RoleCodeListOID="ROLECODELIST"/>
                    <ItemRef ItemOID="TA.ARM" Mandatory="Yes"
                         OrderNumber="4" Role="Synonym Qualifier" RoleCodeListOID="ROLECODELIST"/>
                    <ItemRef ItemOID="TA.TAETORD" Mandatory="Yes"
                         OrderNumber="5" Role="Identifier" RoleCodeListOID="ROLECODELIST"/>
                    <ItemRef ItemOID="TA.ETCD" Mandatory="Yes"
                         OrderNumber="6" Role="Record Qualifier" RoleCodeListOID="ROLECODELIST"/>
                    <ItemRef ItemOID="TA.ELEMENT" Mandatory="No"
                         OrderNumber="7" Role="Synonym Qualifier" RoleCodeListOID="ROLECODELIST"/>
                    <ItemRef ItemOID="TA.TABRANCH" Mandatory="No"
                         OrderNumber="8" Role="Rule" RoleCodeListOID="ROLECODELIST"/>
                    <ItemRef ItemOID="TA.TATRANS" Mandatory="No"
                         OrderNumber="9" Role="Rule" RoleCodeListOID="ROLECODELIST"/>
                    <ItemRef ItemOID="TA.EPOCH" Mandatory="No"
                         OrderNumber="10" Role="Timing" RoleCodeListOID="ROLECODELIST"/>
                    <def:leaf ID="Location.TA" xlink:href="ta.xpt">
                         <def:title>ta.xpt</def:title>
                    </def:leaf>
               </ItemGroupDef>
               <ItemGroupDef IsReferenceData="Yes" Name="TE" OID="TE"
                    Purpose="Tabulation" Repeating="No"
                    def:ArchiveLocationID="Location.TE"
                    def:Class="Trial Design"
                    def:DomainKeys="STUDYID, ETCD"
                    def:Label="TRIAL ELEMENTS" def:Structure="One record per planned Element">
                    <ItemRef ItemOID="TE.STUDYID" Mandatory="Yes"
                         OrderNumber="1" Role="Identifier" RoleCodeListOID="ROLECODELIST"/>
                    <ItemRef ItemOID="TE.DOMAIN" Mandatory="Yes"
                         OrderNumber="2" Role="Identifier" RoleCodeListOID="ROLECODELIST"/>
                    <ItemRef ItemOID="TE.ETCD" Mandatory="Yes"
                         OrderNumber="3" Role="Topic" RoleCodeListOID="ROLECODELIST"/>
                    <ItemRef ItemOID="TE.ELEMENT" Mandatory="Yes"
                         OrderNumber="4" Role="Synonym Qualifier" RoleCodeListOID="ROLECODELIST"/>
                    <ItemRef ItemOID="TE.TESTRL" Mandatory="Yes"
                         OrderNumber="5" Role="Rule" RoleCodeListOID="ROLECODELIST"/>
                    <ItemRef ItemOID="TE.TEENRL" Mandatory="No"
                         OrderNumber="6" Role="Rule" RoleCodeListOID="ROLECODELIST"/>
                    <ItemRef ItemOID="TE.TEDUR" Mandatory="No"
                         OrderNumber="7" Role="Timing" RoleCodeListOID="ROLECODELIST"/>
                    <def:leaf ID="Location.TE" xlink:href="te.xpt">
                         <def:title>te.xpt</def:title>
                    </def:leaf>
               </ItemGroupDef>
               <ItemGroupDef IsReferenceData="Yes" Name="TS" OID="TS"
                    Purpose="Tabulation" Repeating="No"
                    def:ArchiveLocationID="Location.TS"
                    def:Class="Trial Design"
                    def:DomainKeys="STUDYID, TSPARMCD, TSSEQ"
                    def:Label="TRIAL SUMMARY" def:Structure="One record per trial summary parameter value">
                    <ItemRef ItemOID="TS.STUDYID" Mandatory="Yes"
                         OrderNumber="1" Role="Identifier" RoleCodeListOID="ROLECODELIST"/>
                    <ItemRef ItemOID="TS.DOMAIN" Mandatory="Yes"
                         OrderNumber="2" Role="Identifier" RoleCodeListOID="ROLECODELIST"/>
                    <ItemRef ItemOID="TS.TSSEQ" Mandatory="Yes"
                         OrderNumber="3" Role="Identifier" RoleCodeListOID="ROLECODELIST"/>
                    <ItemRef ItemOID="TS.TSGRPID" Mandatory="No"
                         OrderNumber="4" Role="Identifier" RoleCodeListOID="ROLECODELIST"/>
                    <ItemRef ItemOID="TS.TSPARMCD" Mandatory="Yes"
                         OrderNumber="5" Role="Topic" RoleCodeListOID="ROLECODELIST"/>
                    <ItemRef ItemOID="TS.TSPARM" Mandatory="Yes"
                         OrderNumber="6" Role="Synonym Qualifier" RoleCodeListOID="ROLECODELIST"/>
                    <ItemRef ItemOID="TS.TSVAL" Mandatory="Yes"
                         OrderNumber="7" Role="Result Qualifier" RoleCodeListOID="ROLECODELIST"/>
                    <def:leaf ID="Location.TS" xlink:href="ts.xpt">
                         <def:title>ts.xpt</def:title>
                    </def:leaf>
               </ItemGroupDef>
               <ItemGroupDef IsReferenceData="Yes" Name="TX" OID="TX"
                    Purpose="Tabulation" Repeating="No"
                    def:ArchiveLocationID="Location.TX"
                    def:Class="Trial Design"
                    def:DomainKeys="STUDYID, SETCD, TXPARMCD, TXSEQ"
                    def:Label="TRIAL SETS" def:Structure="One record per trial set parameter per trial set">
                    <ItemRef ItemOID="TX.STUDYID" Mandatory="Yes"
                         OrderNumber="1" Role="Identifier" RoleCodeListOID="ROLECODELIST"/>
                    <ItemRef ItemOID="TX.DOMAIN" Mandatory="Yes"
                         OrderNumber="2" Role="Identifier" RoleCodeListOID="ROLECODELIST"/>
                    <ItemRef ItemOID="TX.SETCD" Mandatory="Yes"
                         OrderNumber="3" Role="Identifier" RoleCodeListOID="ROLECODELIST"/>
                    <ItemRef ItemOID="TX.SET" Mandatory="Yes"
                         OrderNumber="4" Role="Synonym Qualifier" RoleCodeListOID="ROLECODELIST"/>
                    <ItemRef ItemOID="TX.TXSEQ" Mandatory="Yes"
                         OrderNumber="5" Role="Identifier" RoleCodeListOID="ROLECODELIST"/>
                    <ItemRef ItemOID="TX.TXPARMCD" Mandatory="Yes"
                         OrderNumber="6" Role="Topic" RoleCodeListOID="ROLECODELIST"/>
                    <ItemRef ItemOID="TX.TXPARM" Mandatory="Yes"
                         OrderNumber="7" Role="Synonym Qualifier" RoleCodeListOID="ROLECODELIST"/>
                    <ItemRef ItemOID="TX.TXVAL" Mandatory="Yes"
                         OrderNumber="8" Role="Result Qualifier" RoleCodeListOID="ROLECODELIST"/>
                    <def:leaf ID="Location.TX" xlink:href="tx.xpt">
                         <def:title>tx.xpt</def:title>
                    </def:leaf>
               </ItemGroupDef>
               <ItemGroupDef IsReferenceData="No" Name="CO" OID="CO"
                    Purpose="Tabulation" Repeating="Yes"
                    def:ArchiveLocationID="Location.CO"
                    def:Class="Special Purpose"
                    def:DomainKeys="STUDYID, USUBJID, COSEQ"
                    def:Label="COMMENTS" def:Structure="One record per comment">
                    <ItemRef ItemOID="CO.STUDYID" Mandatory="Yes"
                         OrderNumber="1" Role="Identifier" RoleCodeListOID="ROLECODELIST"/>
                    <ItemRef ItemOID="CO.DOMAIN" Mandatory="Yes"
                         OrderNumber="2" Role="Identifier" RoleCodeListOID="ROLECODELIST"/>
                    <ItemRef ItemOID="CO.RDOMAIN" Mandatory="No"
                         OrderNumber="3" Role="Record Qualifier" RoleCodeListOID="ROLECODELIST"/>
                    <ItemRef ItemOID="CO.USUBJID" Mandatory="No"
                         OrderNumber="4" Role="Identifier" RoleCodeListOID="ROLECODELIST"/>
                    <ItemRef ItemOID="CO.POOLID" Mandatory="No" OrderNumber="5"/>
                    <ItemRef ItemOID="CO.COSEQ" Mandatory="Yes"
                         OrderNumber="6" Role="Identifier" RoleCodeListOID="ROLECODELIST"/>
                    <ItemRef ItemOID="CO.IDVAR" Mandatory="No"
                         OrderNumber="7" Role="Record Qualifier" RoleCodeListOID="ROLECODELIST"/>
                    <ItemRef ItemOID="CO.IDVARVAL" Mandatory="No"
                         OrderNumber="8" Role="Record Qualifier" RoleCodeListOID="ROLECODELIST"/>
                    <ItemRef ItemOID="CO.COREF" Mandatory="No"
                         OrderNumber="9" Role="Record Qualifier" RoleCodeListOID="ROLECODELIST"/>
                    <ItemRef ItemOID="CO.COVAL" Mandatory="Yes"
                         OrderNumber="10" Role="Topic" RoleCodeListOID="ROLECODELIST"/>
                    <ItemRef ItemOID="CO.COEVAL" Mandatory="No"
                         OrderNumber="11" Role="Record Qualifier" RoleCodeListOID="ROLECODELIST"/>
                    <ItemRef ItemOID="CO.CODTC" Mandatory="No"
                         OrderNumber="12" Role="Timing" RoleCodeListOID="ROLECODELIST"/>
                    <ItemRef ItemOID="CO.CODY" Mandatory="No"
                         OrderNumber="13" Role="Timing" RoleCodeListOID="ROLECODELIST"/>
                    <def:leaf ID="Location.CO" xlink:href="co.xpt">
                         <def:title>co.xpt</def:title>
                    </def:leaf>
               </ItemGroupDef>
               <ItemGroupDef IsReferenceData="No" Name="DM" OID="DM"
                    Purpose="Tabulation" Repeating="No"
                    def:ArchiveLocationID="Location.DM"
                    def:Class="Special Purpose"
                    def:DomainKeys="STUDYID, DOMAIN, USUBJID"
                    def:Label="DEMOGRAPHICS" def:Structure="One record per subject">
                    <ItemRef ItemOID="DM.STUDYID" Mandatory="Yes"
                         OrderNumber="1" Role="Identifier" RoleCodeListOID="ROLECODELIST"/>
                    <ItemRef ItemOID="DM.DOMAIN" Mandatory="Yes"
                         OrderNumber="2" Role="Identifier" RoleCodeListOID="ROLECODELIST"/>
                    <ItemRef ItemOID="DM.USUBJID" Mandatory="Yes"
                         OrderNumber="3" Role="Identifier" RoleCodeListOID="ROLECODELIST"/>
                    <ItemRef ItemOID="DM.SUBJID" Mandatory="Yes"
                         OrderNumber="4" Role="Topic" RoleCodeListOID="ROLECODELIST"/>
                    <ItemRef ItemOID="DM.RFSTDTC" Mandatory="Yes"
                         OrderNumber="5" Role="Record Qualifier" RoleCodeListOID="ROLECODELIST"/>
                    <ItemRef ItemOID="DM.RFENDTC" Mandatory="No"
                         OrderNumber="6" Role="Record Qualifier" RoleCodeListOID="ROLECODELIST"/>
                    <ItemRef ItemOID="DM.SITEID" Mandatory="No"
                         OrderNumber="7" Role="Record Qualifier" RoleCodeListOID="ROLECODELIST"/>
                    <ItemRef ItemOID="DM.BRTHDTC" Mandatory="No"
                         OrderNumber="8" Role="Record Qualifier" RoleCodeListOID="ROLECODELIST"/>
                    <ItemRef ItemOID="DM.AGE" Mandatory="No"
                         OrderNumber="9" Role="Record Qualifier" RoleCodeListOID="ROLECODELIST"/>
                    <ItemRef ItemOID="DM.AGETXT" Mandatory="No"
                         OrderNumber="10" Role="Record Qualifier" RoleCodeListOID="ROLECODELIST"/>
                    <ItemRef ItemOID="DM.AGEU" Mandatory="No"
                         OrderNumber="11" Role="Variable Qualifier" RoleCodeListOID="ROLECODELIST"/>
                    <ItemRef ItemOID="DM.SEX" Mandatory="Yes"
                         OrderNumber="12" Role="Record Qualifier" RoleCodeListOID="ROLECODELIST"/>
                    <ItemRef ItemOID="DM.SPECIES" Mandatory="No"
                         OrderNumber="13" Role="Record Qualifier" RoleCodeListOID="ROLECODELIST"/>
                    <ItemRef ItemOID="DM.STRAIN" Mandatory="No"
                         OrderNumber="14" Role="Record Qualifier" RoleCodeListOID="ROLECODELIST"/>
                    <ItemRef ItemOID="DM.SBSTRAIN" Mandatory="No"
                         OrderNumber="15" Role="Record Qualifier" RoleCodeListOID="ROLECODELIST"/>
                    <ItemRef ItemOID="DM.ARMCD" Mandatory="No"
                         OrderNumber="16" Role="Record Qualifier" RoleCodeListOID="ROLECODELIST"/>
                    <ItemRef ItemOID="DM.ARM" Mandatory="No"
                         OrderNumber="17" Role="Synonym Qualifier" RoleCodeListOID="ROLECODELIST"/>
                    <ItemRef ItemOID="DM.SETCD" Mandatory="Yes"
                         OrderNumber="18" Role="Record Qualifier" RoleCodeListOID="ROLECODELIST"/>
                    <def:leaf ID="Location.DM" xlink:href="dm.xpt">
                         <def:title>dm.xpt</def:title>
                    </def:leaf>
               </ItemGroupDef>
               <ItemGroupDef IsReferenceData="No" Name="SE" OID="SE"
                    Purpose="Tabulation" Repeating="Yes"
                    def:ArchiveLocationID="Location.SE"
                    def:Class="Special Purpose"
                    def:DomainKeys="STUDYID, USUBJID, ETCD, SESTDTC"
                    def:Label="SUBJECT ELEMENTS" def:Structure="One record per element experienced per subject">
                    <ItemRef ItemOID="SE.STUDYID" Mandatory="Yes"
                         OrderNumber="1" Role="Identifier" RoleCodeListOID="ROLECODELIST"/>
                    <ItemRef ItemOID="SE.DOMAIN" Mandatory="Yes"
                         OrderNumber="2" Role="Identifier" RoleCodeListOID="ROLECODELIST"/>
                    <ItemRef ItemOID="SE.USUBJID" Mandatory="Yes"
                         OrderNumber="3" Role="Identifier" RoleCodeListOID="ROLECODELIST"/>
                    <ItemRef ItemOID="SE.SESEQ" Mandatory="Yes"
                         OrderNumber="4" Role="Identifier" RoleCodeListOID="ROLECODELIST"/>
                    <ItemRef ItemOID="SE.ETCD" Mandatory="Yes"
                         OrderNumber="5" Role="Topic" RoleCodeListOID="ROLECODELIST"/>
                    <ItemRef ItemOID="SE.ELEMENT" Mandatory="No"
                         OrderNumber="6" Role="Synonym Qualifier" RoleCodeListOID="ROLECODELIST"/>
                    <ItemRef ItemOID="SE.SESTDTC" Mandatory="Yes"
                         OrderNumber="7" Role="Timing" RoleCodeListOID="ROLECODELIST"/>
                    <ItemRef ItemOID="SE.SEENDTC" Mandatory="No"
                         OrderNumber="8" Role="Timing" RoleCodeListOID="ROLECODELIST"/>
                    <ItemRef ItemOID="SE.SEUPDES" Mandatory="No"
                         OrderNumber="9" Role="Synonym Qualifier" RoleCodeListOID="ROLECODELIST"/>
                    <def:leaf ID="Location.SE" xlink:href="se.xpt">
                         <def:title>se.xpt</def:title>
                    </def:leaf>
               </ItemGroupDef>
               <ItemGroupDef IsReferenceData="No" Name="EX" OID="EX"
                    Purpose="Tabulation" Repeating="No"
                    def:ArchiveLocationID="Location.EX"
                    def:Class="Interventions"
                    def:DomainKeys="STUDYID, USUBJID, POOLID, EXTRT, EXROUTE, EXTRTV, EXSTDTC"
                    def:Label="EXPOSURE" def:Structure="One record per constant dosing interval per treatment per subject or pool">
                    <ItemRef ItemOID="EX.STUDYID" Mandatory="Yes"
                         OrderNumber="1" Role="Identifier" RoleCodeListOID="ROLECODELIST"/>
                    <ItemRef ItemOID="EX.DOMAIN" Mandatory="Yes"
                         OrderNumber="2" Role="Identifier" RoleCodeListOID="ROLECODELIST"/>
                    <ItemRef ItemOID="EX.USUBJID" Mandatory="No"
                         OrderNumber="3" Role="Identifier" RoleCodeListOID="ROLECODELIST"/>
                    <ItemRef ItemOID="EX.POOLID" Mandatory="No"
                         OrderNumber="4" Role="Identifier" RoleCodeListOID="ROLECODELIST"/>
                    <ItemRef ItemOID="EX.EXSEQ" Mandatory="Yes"
                         OrderNumber="5" Role="Identifier" RoleCodeListOID="ROLECODELIST"/>
                    <ItemRef ItemOID="EX.EXTRT" Mandatory="Yes"
                         OrderNumber="6" Role="Topic" RoleCodeListOID="ROLECODELIST"/>
                    <ItemRef ItemOID="EX.EXDOSE" Mandatory="No"
                         OrderNumber="7" Role="Record Qualifier" RoleCodeListOID="ROLECODELIST"/>
                    <ItemRef ItemOID="EX.EXDOSTXT" Mandatory="No"
                         OrderNumber="8" Role="Record Qualifier" RoleCodeListOID="ROLECODELIST"/>
                    <ItemRef ItemOID="EX.EXDOSU" Mandatory="No"
                         OrderNumber="9" Role="Variable Qualifier" RoleCodeListOID="ROLECODELIST"/>
                    <ItemRef ItemOID="EX.EXDOSFRM" Mandatory="No"
                         OrderNumber="10" Role="Record Qualifier" RoleCodeListOID="ROLECODELIST"/>
                    <ItemRef ItemOID="EX.EXDOSFRQ" Mandatory="Yes"
                         OrderNumber="11" Role="Variable Qualifier" RoleCodeListOID="ROLECODELIST"/>
                    <ItemRef ItemOID="EX.EXROUTE" Mandatory="Yes"
                         OrderNumber="12" Role="Variable Qualifier" RoleCodeListOID="ROLECODELIST"/>
                    <ItemRef ItemOID="EX.EXLOT" Mandatory="No"
                         OrderNumber="13" Role="Record Qualifier" RoleCodeListOID="ROLECODELIST"/>
                    <ItemRef ItemOID="EX.EXLOC" Mandatory="No"
                         OrderNumber="14" Role="Record Qualifier" RoleCodeListOID="ROLECODELIST"/>
                    <ItemRef ItemOID="EX.EXMETHOD" Mandatory="No"
                         OrderNumber="15" Role="Record Qualifier" RoleCodeListOID="ROLECODELIST"/>
                    <ItemRef ItemOID="EX.EXTRTV" Mandatory="No"
                         OrderNumber="16" Role="Record Qualifier" RoleCodeListOID="ROLECODELIST"/>
                    <ItemRef ItemOID="EX.EXVAMT" Mandatory="No"
                         OrderNumber="17" Role="Variable Qualifier" RoleCodeListOID="ROLECODELIST"/>
                    <ItemRef ItemOID="EX.EXVAMTU" Mandatory="No"
                         OrderNumber="18" Role="Variable Qualifier" RoleCodeListOID="ROLECODELIST"/>
                    <ItemRef ItemOID="EX.EXADJ" Mandatory="No"
                         OrderNumber="19" Role="Record Qualifier" RoleCodeListOID="ROLECODELIST"/>
                    <ItemRef ItemOID="EX.EXSTDTC" Mandatory="No"
                         OrderNumber="20" Role="Timing" RoleCodeListOID="ROLECODELIST"/>
                    <ItemRef ItemOID="EX.EXENDTC" Mandatory="No"
                         OrderNumber="21" Role="Timing" RoleCodeListOID="ROLECODELIST"/>
                    <ItemRef ItemOID="EX.EXSTDY" Mandatory="No"
                         OrderNumber="22" Role="Timing" RoleCodeListOID="ROLECODELIST"/>
                    <ItemRef ItemOID="EX.EXENDY" Mandatory="No"
                         OrderNumber="23" Role="Timing" RoleCodeListOID="ROLECODELIST"/>
                    <ItemRef ItemOID="EX.EXDUR" Mandatory="No"
                         OrderNumber="24" Role="Timing" RoleCodeListOID="ROLECODELIST"/>
                    <ItemRef ItemOID="EX.EXTPT" Mandatory="No"
                         OrderNumber="25" Role="Timing" RoleCodeListOID="ROLECODELIST"/>
                    <ItemRef ItemOID="EX.EXTPTNUM" Mandatory="No"
                         OrderNumber="26" Role="Timing" RoleCodeListOID="ROLECODELIST"/>
                    <ItemRef ItemOID="EX.EXELTM" Mandatory="No"
                         OrderNumber="27" Role="Timing" RoleCodeListOID="ROLECODELIST"/>
                    <ItemRef ItemOID="EX.EXTPTREF" Mandatory="No"
                         OrderNumber="28" Role="Timing" RoleCodeListOID="ROLECODELIST"/>
                    <ItemRef ItemOID="EX.EXRFTDTC" Mandatory="No"
                         OrderNumber="29" Role="Timing" RoleCodeListOID="ROLECODELIST"/>
                    <def:leaf ID="Location.EX" xlink:href="ex.xpt">
                         <def:title>ex.xpt</def:title>
                    </def:leaf>
               </ItemGroupDef>
               <ItemGroupDef IsReferenceData="No" Name="DS" OID="DS"
                    Purpose="Tabulation" Repeating="No"
                    def:ArchiveLocationID="Location.DS"
                    def:Class="Events"
                    def:DomainKeys="STUDYID, DOMAIN, USUBJID"
                    def:Label="DISPOSITION" def:Structure="One record per subject">
                    <ItemRef ItemOID="DS.STUDYID" Mandatory="Yes"
                         OrderNumber="1" Role="Identifier" RoleCodeListOID="ROLECODELIST"/>
                    <ItemRef ItemOID="DS.DOMAIN" Mandatory="Yes"
                         OrderNumber="2" Role="Identifier" RoleCodeListOID="ROLECODELIST"/>
                    <ItemRef ItemOID="DS.USUBJID" Mandatory="Yes"
                         OrderNumber="3" Role="Identifier" RoleCodeListOID="ROLECODELIST"/>
                    <ItemRef ItemOID="DS.DSSEQ" Mandatory="Yes"
                         OrderNumber="4" Role="Identifier" RoleCodeListOID="ROLECODELIST"/>
                    <ItemRef ItemOID="DS.DSTERM" Mandatory="Yes"
                         OrderNumber="5" Role="Topic" RoleCodeListOID="ROLECODELIST"/>
                    <ItemRef ItemOID="DS.DSDECOD" Mandatory="Yes"
                         OrderNumber="6" Role="Synonym Qualifier" RoleCodeListOID="ROLECODELIST"/>
                    <ItemRef ItemOID="DS.VISITDY" Mandatory="No"
                         OrderNumber="7" Role="Timing" RoleCodeListOID="ROLECODELIST"/>
                    <ItemRef ItemOID="DS.DSSTDTC" Mandatory="Yes"
                         OrderNumber="8" Role="Timing" RoleCodeListOID="ROLECODELIST"/>
                    <ItemRef ItemOID="DS.DSSTDY" Mandatory="No"
                         OrderNumber="9" Role="Timing" RoleCodeListOID="ROLECODELIST"/>
                    <def:leaf ID="Location.DS" xlink:href="ds.xpt">
                         <def:title>ds.xpt</def:title>
                    </def:leaf>
               </ItemGroupDef>
               <ItemGroupDef IsReferenceData="No" Name="BG" OID="BG"
                    Purpose="Tabulation" Repeating="Yes"
                    def:ArchiveLocationID="Location.BG"
                    def:Class="Findings"
                    def:DomainKeys="STUDYID, USUBJID, BGTESTCD, BGDTC, BGENDTC"
                    def:Label="BODY WEIGHT GAIN" def:Structure="One record per test per interval per subject">
                    <ItemRef ItemOID="BG.STUDYID" Mandatory="Yes"
                         OrderNumber="1" Role="Identifier" RoleCodeListOID="ROLECODELIST"/>
                    <ItemRef ItemOID="BG.DOMAIN" Mandatory="Yes"
                         OrderNumber="2" Role="Identifier" RoleCodeListOID="ROLECODELIST"/>
                    <ItemRef ItemOID="BG.USUBJID" Mandatory="Yes"
                         OrderNumber="3" Role="Identifier" RoleCodeListOID="ROLECODELIST"/>
                    <ItemRef ItemOID="BG.BGSEQ" Mandatory="Yes"
                         OrderNumber="4" Role="Identifier" RoleCodeListOID="ROLECODELIST"/>
                    <ItemRef ItemOID="BG.BGTESTCD" Mandatory="Yes"
                         OrderNumber="5" Role="Topic" RoleCodeListOID="ROLECODELIST"/>
                    <ItemRef ItemOID="BG.BGTEST" Mandatory="Yes"
                         OrderNumber="6" Role="Synonym Qualifier" RoleCodeListOID="ROLECODELIST"/>
                    <ItemRef ItemOID="BG.BGORRES" Mandatory="No"
                         OrderNumber="7" Role="Result Qualifier" RoleCodeListOID="ROLECODELIST"/>
                    <ItemRef ItemOID="BG.BGORRESU" Mandatory="No"
                         OrderNumber="8" Role="Variable Qualifier" RoleCodeListOID="ROLECODELIST"/>
                    <ItemRef ItemOID="BG.BGSTRESC" Mandatory="No"
                         OrderNumber="9" Role="Result Qualifier" RoleCodeListOID="ROLECODELIST"/>
                    <ItemRef ItemOID="BG.BGSTRESN" Mandatory="No"
                         OrderNumber="10" Role="Result Qualifier" RoleCodeListOID="ROLECODELIST"/>
                    <ItemRef ItemOID="BG.BGSTRESU" Mandatory="No"
                         OrderNumber="11" Role="Variable Qualifier" RoleCodeListOID="ROLECODELIST"/>
                    <ItemRef ItemOID="BG.BGSTAT" Mandatory="No"
                         OrderNumber="12" Role="Record Qualifier" RoleCodeListOID="ROLECODELIST"/>
                    <ItemRef ItemOID="BG.BGREASND" Mandatory="No"
                         OrderNumber="13" Role="Record Qualifier" RoleCodeListOID="ROLECODELIST"/>
                    <ItemRef ItemOID="BG.BGEXCLFL" Mandatory="No"
                         OrderNumber="14" Role="Record Qualifier" RoleCodeListOID="ROLECODELIST"/>
                    <ItemRef ItemOID="BG.BGREASEX" Mandatory="No"
                         OrderNumber="15" Role="Record Qualifier" RoleCodeListOID="ROLECODELIST"/>
                    <ItemRef ItemOID="BG.BGDTC" Mandatory="No"
                         OrderNumber="16" Role="Timing" RoleCodeListOID="ROLECODELIST"/>
                    <ItemRef ItemOID="BG.BGENDTC" Mandatory="No"
                         OrderNumber="17" Role="Timing" RoleCodeListOID="ROLECODELIST"/>
                    <ItemRef ItemOID="BG.BGDY" Mandatory="No"
                         OrderNumber="18" Role="Timing" RoleCodeListOID="ROLECODELIST"/>
                    <ItemRef ItemOID="BG.BGENDY" Mandatory="No"
                         OrderNumber="19" Role="Timing" RoleCodeListOID="ROLECODELIST"/>
                    <ItemRef ItemOID="BG.BGELTM" Mandatory="No"
                         OrderNumber="20" Role="Timing" RoleCodeListOID="ROLECODELIST"/>
                    <ItemRef ItemOID="BG.BGTPTREF" Mandatory="No"
                         OrderNumber="21" Role="Timing" RoleCodeListOID="ROLECODELIST"/>
                    <ItemRef ItemOID="BG.BGRFTDTC" Mandatory="No"
                         OrderNumber="22" Role="Timing" RoleCodeListOID="ROLECODELIST"/>
                    <def:leaf ID="Location.BG" xlink:href="bg.xpt">
                         <def:title>bg.xpt</def:title>
                    </def:leaf>
               </ItemGroupDef>
               <ItemGroupDef IsReferenceData="No" Name="BW" OID="BW"
                    Purpose="Tabulation" Repeating="Yes"
                    def:ArchiveLocationID="Location.BW"
                    def:Class="Findings"
                    def:DomainKeys="STUDYID, USUBJID, BWTESTCD, BWDTC"
                    def:Label="BODY WEIGHT" def:Structure="One record per test per observation time per subject">
                    <ItemRef ItemOID="BW.STUDYID" Mandatory="Yes"
                         OrderNumber="1" Role="Identifier" RoleCodeListOID="ROLECODELIST"/>
                    <ItemRef ItemOID="BW.DOMAIN" Mandatory="Yes"
                         OrderNumber="2" Role="Identifier" RoleCodeListOID="ROLECODELIST"/>
                    <ItemRef ItemOID="BW.USUBJID" Mandatory="Yes"
                         OrderNumber="3" Role="Identifier" RoleCodeListOID="ROLECODELIST"/>
                    <ItemRef ItemOID="BW.BWSEQ" Mandatory="Yes"
                         OrderNumber="4" Role="Identifier" RoleCodeListOID="ROLECODELIST"/>
                    <ItemRef ItemOID="BW.BWTESTCD" Mandatory="Yes"
                         OrderNumber="5" Role="Topic" RoleCodeListOID="ROLECODELIST"/>
                    <ItemRef ItemOID="BW.BWTEST" Mandatory="Yes"
                         OrderNumber="6" Role="Synonym Qualifier" RoleCodeListOID="ROLECODELIST"/>
                    <ItemRef ItemOID="BW.BWORRES" Mandatory="No"
                         OrderNumber="7" Role="Result Qualifier" RoleCodeListOID="ROLECODELIST"/>
                    <ItemRef ItemOID="BW.BWORRESU" Mandatory="No"
                         OrderNumber="8" Role="Variable Qualifier" RoleCodeListOID="ROLECODELIST"/>
                    <ItemRef ItemOID="BW.BWSTRESC" Mandatory="No"
                         OrderNumber="9" Role="Result Qualifier" RoleCodeListOID="ROLECODELIST"/>
                    <ItemRef ItemOID="BW.BWSTRESN" Mandatory="No"
                         OrderNumber="10" Role="Result Qualifier" RoleCodeListOID="ROLECODELIST"/>
                    <ItemRef ItemOID="BW.BWSTRESU" Mandatory="No"
                         OrderNumber="11" Role="Variable Qualifier" RoleCodeListOID="ROLECODELIST"/>
                    <ItemRef ItemOID="BW.BWSTAT" Mandatory="No"
                         OrderNumber="12" Role="Record Qualifier" RoleCodeListOID="ROLECODELIST"/>
                    <ItemRef ItemOID="BW.BWREASND" Mandatory="No"
                         OrderNumber="13" Role="Record Qualifier" RoleCodeListOID="ROLECODELIST"/>
                    <ItemRef ItemOID="BW.BWBLFL" Mandatory="No"
                         OrderNumber="14" Role="Record Qualifier" RoleCodeListOID="ROLECODELIST"/>
                    <ItemRef ItemOID="BW.BWFAST" Mandatory="No"
                         OrderNumber="15" Role="Record Qualifier" RoleCodeListOID="ROLECODELIST"/>
                    <ItemRef ItemOID="BW.BWEXCLFL" Mandatory="No"
                         OrderNumber="16" Role="Record Qualifier" RoleCodeListOID="ROLECODELIST"/>
                    <ItemRef ItemOID="BW.BWREASEX" Mandatory="No"
                         OrderNumber="17" Role="Record Qualifier" RoleCodeListOID="ROLECODELIST"/>
                    <ItemRef ItemOID="BW.VISITDY" Mandatory="No"
                         OrderNumber="18" Role="Timing" RoleCodeListOID="ROLECODELIST"/>
                    <ItemRef ItemOID="BW.BWDTC" Mandatory="No"
                         OrderNumber="19" Role="Timing" RoleCodeListOID="ROLECODELIST"/>
                    <ItemRef ItemOID="BW.BWDY" Mandatory="No"
                         OrderNumber="20" Role="Timing" RoleCodeListOID="ROLECODELIST"/>
                    <def:leaf ID="Location.BW" xlink:href="bw.xpt">
                         <def:title>bw.xpt</def:title>
                    </def:leaf>
               </ItemGroupDef>
               <ItemGroupDef IsReferenceData="No" Name="CL" OID="CL"
                    Purpose="Tabulation" Repeating="Yes"
                    def:ArchiveLocationID="Location.CL"
                    def:Class="Findings"
                    def:DomainKeys="STUDYID, USUBJID, POOLID, CLTESTCD, CLCAT, CLORRES, CLDTC, CLTPT"
                    def:Label="CLINICAL OBSERVATIONS" def:Structure="One record per finding per observation time per subject or pool">
                    <ItemRef ItemOID="CL.STUDYID" Mandatory="Yes"
                         OrderNumber="1" Role="Identifier" RoleCodeListOID="ROLECODELIST"/>
                    <ItemRef ItemOID="CL.DOMAIN" Mandatory="Yes"
                         OrderNumber="2" Role="Identifier" RoleCodeListOID="ROLECODELIST"/>
                    <ItemRef ItemOID="CL.USUBJID" Mandatory="No"
                         OrderNumber="3" Role="Identifier" RoleCodeListOID="ROLECODELIST"/>
                    <ItemRef ItemOID="CL.POOLID" Mandatory="No"
                         OrderNumber="4" Role="Identifier" RoleCodeListOID="ROLECODELIST"/>
                    <ItemRef ItemOID="CL.CLSEQ" Mandatory="Yes"
                         OrderNumber="5" Role="Identifier" RoleCodeListOID="ROLECODELIST"/>
                    <ItemRef ItemOID="CL.CLGRPID" Mandatory="No"
                         OrderNumber="6" Role="Identifier" RoleCodeListOID="ROLECODELIST"/>
                    <ItemRef ItemOID="CL.CLSPID" Mandatory="No"
                         OrderNumber="7" Role="Identifier" RoleCodeListOID="ROLECODELIST"/>
                    <ItemRef ItemOID="CL.CLTESTCD" Mandatory="Yes"
                         OrderNumber="8" Role="Topic" RoleCodeListOID="ROLECODELIST"/>
                    <ItemRef ItemOID="CL.CLTEST" Mandatory="Yes"
                         OrderNumber="9" Role="Synonym Qualifier" RoleCodeListOID="ROLECODELIST"/>
                    <ItemRef ItemOID="CL.CLCAT" Mandatory="Yes"
                         OrderNumber="10" Role="Grouping Qualifier" RoleCodeListOID="ROLECODELIST"/>
                    <ItemRef ItemOID="CL.CLSCAT" Mandatory="No"
                         OrderNumber="11" Role="Grouping Qualifier" RoleCodeListOID="ROLECODELIST"/>
                    <ItemRef ItemOID="CL.CLBODSYS" Mandatory="No"
                         OrderNumber="12" Role="Record Qualifier" RoleCodeListOID="ROLECODELIST"/>
                    <ItemRef ItemOID="CL.CLORRES" Mandatory="No"
                         OrderNumber="13" Role="Result Qualifier" RoleCodeListOID="ROLECODELIST"/>
                    <ItemRef ItemOID="CL.CLSTRESC" Mandatory="No"
                         OrderNumber="14" Role="Result Qualifier" RoleCodeListOID="ROLECODELIST"/>
                    <ItemRef ItemOID="CL.CLRESCAT" Mandatory="No"
                         OrderNumber="15" Role="Variable Qualifier" RoleCodeListOID="ROLECODELIST"/>
                    <ItemRef ItemOID="CL.CLSTAT" Mandatory="No"
                         OrderNumber="16" Role="Record Qualifier" RoleCodeListOID="ROLECODELIST"/>
                    <ItemRef ItemOID="CL.CLREASND" Mandatory="No"
                         OrderNumber="17" Role="Record Qualifier" RoleCodeListOID="ROLECODELIST"/>
                    <ItemRef ItemOID="CL.CLLOC" Mandatory="No"
                         OrderNumber="18" Role="Record Qualifier" RoleCodeListOID="ROLECODELIST"/>
                    <ItemRef ItemOID="CL.CLEVAL" Mandatory="No"
                         OrderNumber="19" Role="Record Qualifier" RoleCodeListOID="ROLECODELIST"/>
                    <ItemRef ItemOID="CL.CLSEV" Mandatory="No"
                         OrderNumber="20" Role="Record Qualifier" RoleCodeListOID="ROLECODELIST"/>
                    <ItemRef ItemOID="CL.CLEXCLFL" Mandatory="No"
                         OrderNumber="21" Role="Record Qualifier" RoleCodeListOID="ROLECODELIST"/>
                    <ItemRef ItemOID="CL.CLREASEX" Mandatory="No"
                         OrderNumber="22" Role="Record Qualifier" RoleCodeListOID="ROLECODELIST"/>
                    <ItemRef ItemOID="CL.VISITDY" Mandatory="No"
                         OrderNumber="23" Role="Timing" RoleCodeListOID="ROLECODELIST"/>
                    <ItemRef ItemOID="CL.CLDTC" Mandatory="No"
                         OrderNumber="24" Role="Timing" RoleCodeListOID="ROLECODELIST"/>
                    <ItemRef ItemOID="CL.CLDY" Mandatory="No"
                         OrderNumber="25" Role="Timing" RoleCodeListOID="ROLECODELIST"/>
                    <ItemRef ItemOID="CL.CLTPT" Mandatory="No"
                         OrderNumber="26" Role="Timing" RoleCodeListOID="ROLECODELIST"/>
                    <ItemRef ItemOID="CL.CLTPTNUM" Mandatory="No"
                         OrderNumber="27" Role="Timing" RoleCodeListOID="ROLECODELIST"/>
                    <ItemRef ItemOID="CL.CLELTM" Mandatory="No"
                         OrderNumber="28" Role="Timing" RoleCodeListOID="ROLECODELIST"/>
                    <ItemRef ItemOID="CL.CLTPTREF" Mandatory="No"
                         OrderNumber="29" Role="Timing" RoleCodeListOID="ROLECODELIST"/>
                    <ItemRef ItemOID="CL.CLRFTDTC" Mandatory="No"
                         OrderNumber="30" Role="Timing" RoleCodeListOID="ROLECODELIST"/>
                    <def:leaf ID="Location.CL" xlink:href="cl.xpt">
                         <def:title>cl.xpt</def:title>
                    </def:leaf>
               </ItemGroupDef>
               <ItemGroupDef IsReferenceData="No" Name="DD" OID="DD"
                    Purpose="Tabulation" Repeating="No"
                    def:ArchiveLocationID="Location.DD"
                    def:Class="Findings"
                    def:DomainKeys="STUDYID, USUBJID, DDORRES"
                    def:Label="DEATH DIAGNOSIS" def:Structure="One record per diagnosis per subject (for unscheduled deaths only)">
                    <ItemRef ItemOID="DD.STUDYID" Mandatory="Yes"
                         OrderNumber="1" Role="Identifier" RoleCodeListOID="ROLECODELIST"/>
                    <ItemRef ItemOID="DD.DOMAIN" Mandatory="Yes"
                         OrderNumber="2" Role="Identifier" RoleCodeListOID="ROLECODELIST"/>
                    <ItemRef ItemOID="DD.USUBJID" Mandatory="Yes"
                         OrderNumber="3" Role="Identifier" RoleCodeListOID="ROLECODELIST"/>
                    <ItemRef ItemOID="DD.DDSEQ" Mandatory="Yes"
                         OrderNumber="4" Role="Identifier" RoleCodeListOID="ROLECODELIST"/>
                    <ItemRef ItemOID="DD.DDTESTCD" Mandatory="Yes"
                         OrderNumber="5" Role="Topic" RoleCodeListOID="ROLECODELIST"/>
                    <ItemRef ItemOID="DD.DDTEST" Mandatory="Yes"
                         OrderNumber="6" Role="Synonym Qualifier" RoleCodeListOID="ROLECODELIST"/>
                    <ItemRef ItemOID="DD.DDORRES" Mandatory="Yes"
                         OrderNumber="7" Role="Result Qualifier" RoleCodeListOID="ROLECODELIST"/>
                    <ItemRef ItemOID="DD.DDSTRESC" Mandatory="No"
                         OrderNumber="8" Role="Result Qualifier" RoleCodeListOID="ROLECODELIST"/>
                    <ItemRef ItemOID="DD.DDRESCAT" Mandatory="No"
                         OrderNumber="9" Role="Variable Qualifier" RoleCodeListOID="ROLECODELIST"/>
                    <ItemRef ItemOID="DD.DDEVAL" Mandatory="No"
                         OrderNumber="10" Role="Record Qualifier" RoleCodeListOID="ROLECODELIST"/>
                    <ItemRef ItemOID="DD.DDDTC" Mandatory="No"
                         OrderNumber="11" Role="Timing" RoleCodeListOID="ROLECODELIST"/>
                    <ItemRef ItemOID="DD.DDDY" Mandatory="No"
                         OrderNumber="12" Role="Timing" RoleCodeListOID="ROLECODELIST"/>
                    <def:leaf ID="Location.DD" xlink:href="dd.xpt">
                         <def:title>dd.xpt</def:title>
                    </def:leaf>
               </ItemGroupDef>
               <ItemGroupDef IsReferenceData="No" Name="FW" OID="FW"
                    Purpose="Tabulation" Repeating="Yes"
                    def:ArchiveLocationID="Location.FW"
                    def:Class="Findings"
                    def:DomainKeys="STUDYID, USUBJID, POOLID, FWTESTCD, FWDTC, FWENDTC"
                    def:Label="FOOD AND WATER CONSUMPTION" def:Structure="One record per test per interval per subject or pool">
                    <ItemRef ItemOID="FW.STUDYID" Mandatory="Yes"
                         OrderNumber="1" Role="Identifier" RoleCodeListOID="ROLECODELIST"/>
                    <ItemRef ItemOID="FW.DOMAIN" Mandatory="Yes"
                         OrderNumber="2" Role="Identifier" RoleCodeListOID="ROLECODELIST"/>
                    <ItemRef ItemOID="FW.USUBJID" Mandatory="No"
                         OrderNumber="3" Role="Identifier" RoleCodeListOID="ROLECODELIST"/>
                    <ItemRef ItemOID="FW.POOLID" Mandatory="No"
                         OrderNumber="4" Role="Identifier" RoleCodeListOID="ROLECODELIST"/>
                    <ItemRef ItemOID="FW.FWSEQ" Mandatory="Yes"
                         OrderNumber="5" Role="Identifier" RoleCodeListOID="ROLECODELIST"/>
                    <ItemRef ItemOID="FW.FWGRPID" Mandatory="No"
                         OrderNumber="6" Role="Identifier" RoleCodeListOID="ROLECODELIST"/>
                    <ItemRef ItemOID="FW.FWTESTCD" Mandatory="Yes"
                         OrderNumber="7" Role="Topic" RoleCodeListOID="ROLECODELIST"/>
                    <ItemRef ItemOID="FW.FWTEST" Mandatory="Yes"
                         OrderNumber="8" Role="Synonym Qualifier" RoleCodeListOID="ROLECODELIST"/>
                    <ItemRef ItemOID="FW.FWORRES" Mandatory="No"
                         OrderNumber="9" Role="Result Qualifier" RoleCodeListOID="ROLECODELIST"/>
                    <ItemRef ItemOID="FW.FWORRESU" Mandatory="No"
                         OrderNumber="10" Role="Variable Qualifier" RoleCodeListOID="ROLECODELIST"/>
                    <ItemRef ItemOID="FW.FWSTRESC" Mandatory="No"
                         OrderNumber="11" Role="Result Qualifier" RoleCodeListOID="ROLECODELIST"/>
                    <ItemRef ItemOID="FW.FWSTRESN" Mandatory="No"
                         OrderNumber="12" Role="Result Qualifier" RoleCodeListOID="ROLECODELIST"/>
                    <ItemRef ItemOID="FW.FWSTRESU" Mandatory="No"
                         OrderNumber="13" Role="Variable Qualifier" RoleCodeListOID="ROLECODELIST"/>
                    <ItemRef ItemOID="FW.FWSTAT" Mandatory="No"
                         OrderNumber="14" Role="Record Qualifier" RoleCodeListOID="ROLECODELIST"/>
                    <ItemRef ItemOID="FW.FWREASND" Mandatory="No"
                         OrderNumber="15" Role="Record Qualifier" RoleCodeListOID="ROLECODELIST"/>
                    <ItemRef ItemOID="FW.FWEXCLFL" Mandatory="No"
                         OrderNumber="16" Role="Record Qualifier" RoleCodeListOID="ROLECODELIST"/>
                    <ItemRef ItemOID="FW.FWREASEX" Mandatory="No"
                         OrderNumber="17" Role="Record Qualifier" RoleCodeListOID="ROLECODELIST"/>
                    <ItemRef ItemOID="FW.FWDTC" Mandatory="No"
                         OrderNumber="18" Role="Timing" RoleCodeListOID="ROLECODELIST"/>
                    <ItemRef ItemOID="FW.FWENDTC" Mandatory="No"
                         OrderNumber="19" Role="Timing" RoleCodeListOID="ROLECODELIST"/>
                    <ItemRef ItemOID="FW.FWDY" Mandatory="No"
                         OrderNumber="20" Role="Timing" RoleCodeListOID="ROLECODELIST"/>
                    <ItemRef ItemOID="FW.FWENDY" Mandatory="No"
                         OrderNumber="21" Role="Timing" RoleCodeListOID="ROLECODELIST"/>
                    <def:leaf ID="Location.FW" xlink:href="fw.xpt">
                         <def:title>fw.xpt</def:title>
                    </def:leaf>
               </ItemGroupDef>
               <ItemGroupDef IsReferenceData="No" Name="LB" OID="LB"
                    Purpose="Tabulation" Repeating="Yes"
                    def:ArchiveLocationID="Location.LB"
                    def:Class="Findings"
                    def:DomainKeys="STUDYID, USUBJID, POOLID, LBTESTCD, LBSPEC, LBMETHOD, LBSTRESU, LBDTC, LBENDTC, LBTPTNUM"
                    def:Label="LABORATORY TEST RESULTS" def:Structure="One record per test per specimen per observation time per subject or pool">
                    <ItemRef ItemOID="LB.STUDYID" Mandatory="Yes"
                         OrderNumber="1" Role="Identifier" RoleCodeListOID="ROLECODELIST"/>
                    <ItemRef ItemOID="LB.DOMAIN" Mandatory="Yes"
                         OrderNumber="2" Role="Identifier" RoleCodeListOID="ROLECODELIST"/>
                    <ItemRef ItemOID="LB.USUBJID" Mandatory="No"
                         OrderNumber="3" Role="Identifier" RoleCodeListOID="ROLECODELIST"/>
                    <ItemRef ItemOID="LB.POOLID" Mandatory="No"
                         OrderNumber="4" Role="Identifier" RoleCodeListOID="ROLECODELIST"/>
                    <ItemRef ItemOID="LB.LBSEQ" Mandatory="Yes"
                         OrderNumber="5" Role="Identifier" RoleCodeListOID="ROLECODELIST"/>
                    <ItemRef ItemOID="LB.LBGRPID" Mandatory="No"
                         OrderNumber="6" Role="Identifier" RoleCodeListOID="ROLECODELIST"/>
                    <ItemRef ItemOID="LB.LBREFID" Mandatory="No"
                         OrderNumber="7" Role="Identifier" RoleCodeListOID="ROLECODELIST"/>
                    <ItemRef ItemOID="LB.LBSPID" Mandatory="No"
                         OrderNumber="8" Role="Identifier" RoleCodeListOID="ROLECODELIST"/>
                    <ItemRef ItemOID="LB.LBTESTCD" Mandatory="Yes"
                         OrderNumber="9" Role="Topic" RoleCodeListOID="ROLECODELIST"/>
                    <ItemRef ItemOID="LB.LBTEST" Mandatory="Yes"
                         OrderNumber="10" Role="Synonym Qualifier" RoleCodeListOID="ROLECODELIST"/>
                    <ItemRef ItemOID="LB.LBCAT" Mandatory="No"
                         OrderNumber="11" Role="Grouping Qualifier" RoleCodeListOID="ROLECODELIST"/>
                    <ItemRef ItemOID="LB.LBSCAT" Mandatory="No"
                         OrderNumber="12" Role="Grouping Qualifier" RoleCodeListOID="ROLECODELIST"/>
                    <ItemRef ItemOID="LB.LBORRES" Mandatory="No"
                         OrderNumber="13" Role="Result Qualifier" RoleCodeListOID="ROLECODELIST"/>
                    <ItemRef ItemOID="LB.LBORRESU" Mandatory="No"
                         OrderNumber="14" Role="Variable Qualifier" RoleCodeListOID="ROLECODELIST"/>
                    <ItemRef ItemOID="LB.LBORNRLO" Mandatory="No"
                         OrderNumber="15" Role="Variable Qualifier" RoleCodeListOID="ROLECODELIST"/>
                    <ItemRef ItemOID="LB.LBORNRHI" Mandatory="No"
                         OrderNumber="16" Role="Variable Qualifier" RoleCodeListOID="ROLECODELIST"/>
                    <ItemRef ItemOID="LB.LBSTRESC" Mandatory="No"
                         OrderNumber="17" Role="Result Qualifier" RoleCodeListOID="ROLECODELIST"/>
                    <ItemRef ItemOID="LB.LBSTRESN" Mandatory="No"
                         OrderNumber="18" Role="Result Qualifier" RoleCodeListOID="ROLECODELIST"/>
                    <ItemRef ItemOID="LB.LBSTRESU" Mandatory="No"
                         OrderNumber="19" Role="Variable Qualifier" RoleCodeListOID="ROLECODELIST"/>
                    <ItemRef ItemOID="LB.LBSTNRLO" Mandatory="No"
                         OrderNumber="20" Role="Variable Qualifier" RoleCodeListOID="ROLECODELIST"/>
                    <ItemRef ItemOID="LB.LBSTNRHI" Mandatory="No"
                         OrderNumber="21" Role="Variable Qualifier" RoleCodeListOID="ROLECODELIST"/>
                    <ItemRef ItemOID="LB.LBSTNRC" Mandatory="No"
                         OrderNumber="22" Role="Variable Qualifier" RoleCodeListOID="ROLECODELIST"/>
                    <ItemRef ItemOID="LB.LBNRIND" Mandatory="No"
                         OrderNumber="23" Role="Variable Qualifier" RoleCodeListOID="ROLECODELIST"/>
                    <ItemRef ItemOID="LB.LBSTAT" Mandatory="No"
                         OrderNumber="24" Role="Record Qualifier" RoleCodeListOID="ROLECODELIST"/>
                    <ItemRef ItemOID="LB.LBREASND" Mandatory="No"
                         OrderNumber="25" Role="Record Qualifier" RoleCodeListOID="ROLECODELIST"/>
                    <ItemRef ItemOID="LB.LBNAM" Mandatory="No"
                         OrderNumber="26" Role="Record Qualifier" RoleCodeListOID="ROLECODELIST"/>
                    <ItemRef ItemOID="LB.LBSPEC" Mandatory="No"
                         OrderNumber="27" Role="Record Qualifier" RoleCodeListOID="ROLECODELIST"/>
                    <ItemRef ItemOID="LB.LBANTREG" Mandatory="No"
                         OrderNumber="28" Role="Variable Qualifier" RoleCodeListOID="ROLECODELIST"/>
                    <ItemRef ItemOID="LB.LBSPCCND" Mandatory="No"
                         OrderNumber="29" Role="Variable Qualifier" RoleCodeListOID="ROLECODELIST"/>
                    <ItemRef ItemOID="LB.LBSPCUFL" Mandatory="No"
                         OrderNumber="30" Role="Variable Qualifier" RoleCodeListOID="ROLECODELIST"/>
                    <ItemRef ItemOID="LB.LBLOC" Mandatory="No"
                         OrderNumber="31" Role="Record Qualifier" RoleCodeListOID="ROLECODELIST"/>
                    <ItemRef ItemOID="LB.LBLAT" Mandatory="No"
                         OrderNumber="32" Role="Variable Qualifier" RoleCodeListOID="ROLECODELIST"/>
                    <ItemRef ItemOID="LB.LBDIR" Mandatory="No"
                         OrderNumber="33" Role="Variable Qualifier" RoleCodeListOID="ROLECODELIST"/>
                    <ItemRef ItemOID="LB.LBPORTOT" Mandatory="No"
                         OrderNumber="34" Role="Variable Qualifier" RoleCodeListOID="ROLECODELIST"/>
                    <ItemRef ItemOID="LB.LBMETHOD" Mandatory="No"
                         OrderNumber="35" Role="Record Qualifier" RoleCodeListOID="ROLECODELIST"/>
                    <ItemRef ItemOID="LB.LBBLFL" Mandatory="No"
                         OrderNumber="36" Role="Record Qualifier" RoleCodeListOID="ROLECODELIST"/>
                    <ItemRef ItemOID="LB.LBFAST" Mandatory="No"
                         OrderNumber="37" Role="Record Qualifier" RoleCodeListOID="ROLECODELIST"/>
                    <ItemRef ItemOID="LB.LBDRVFL" Mandatory="No"
                         OrderNumber="38" Role="Record Qualifier" RoleCodeListOID="ROLECODELIST"/>
                    <ItemRef ItemOID="LB.LBTOX" Mandatory="No"
                         OrderNumber="39" Role="Variable Qualifier" RoleCodeListOID="ROLECODELIST"/>
                    <ItemRef ItemOID="LB.LBTOXGR" Mandatory="No"
                         OrderNumber="40" Role="Variable Qualifier" RoleCodeListOID="ROLECODELIST"/>
                    <ItemRef ItemOID="LB.LBEXCLFL" Mandatory="No"
                         OrderNumber="41" Role="Record Qualifier" RoleCodeListOID="ROLECODELIST"/>
                    <ItemRef ItemOID="LB.LBREASEX" Mandatory="No"
                         OrderNumber="42" Role="Record Qualifier" RoleCodeListOID="ROLECODELIST"/>
                    <ItemRef ItemOID="LB.VISITDY" Mandatory="No"
                         OrderNumber="43" Role="Timing" RoleCodeListOID="ROLECODELIST"/>
                    <ItemRef ItemOID="LB.LBDTC" Mandatory="No"
                         OrderNumber="44" Role="Timing" RoleCodeListOID="ROLECODELIST"/>
                    <ItemRef ItemOID="LB.LBENDTC" Mandatory="No"
                         OrderNumber="45" Role="Timing" RoleCodeListOID="ROLECODELIST"/>
                    <ItemRef ItemOID="LB.LBDY" Mandatory="No"
                         OrderNumber="46" Role="Timing" RoleCodeListOID="ROLECODELIST"/>
                    <ItemRef ItemOID="LB.LBENDY" Mandatory="No"
                         OrderNumber="47" Role="Timing" RoleCodeListOID="ROLECODELIST"/>
                    <ItemRef ItemOID="LB.LBTPT" Mandatory="No"
                         OrderNumber="48" Role="Timing" RoleCodeListOID="ROLECODELIST"/>
                    <ItemRef ItemOID="LB.LBTPTNUM" Mandatory="No"
                         OrderNumber="49" Role="Timing" RoleCodeListOID="ROLECODELIST"/>
                    <ItemRef ItemOID="LB.LBELTM" Mandatory="No"
                         OrderNumber="50" Role="Timing" RoleCodeListOID="ROLECODELIST"/>
                    <ItemRef ItemOID="LB.LBTPTREF" Mandatory="No"
                         OrderNumber="51" Role="Timing" RoleCodeListOID="ROLECODELIST"/>
                    <ItemRef ItemOID="LB.LBRFTDTC" Mandatory="No"
                         OrderNumber="52" Role="Timing" RoleCodeListOID="ROLECODELIST"/>
                    <def:leaf ID="Location.LB" xlink:href="lb.xpt">
                         <def:title>lb.xpt</def:title>
                    </def:leaf>
               </ItemGroupDef>
               <ItemGroupDef IsReferenceData="No" Name="MA" OID="MA"
                    Purpose="Tabulation" Repeating="Yes"
                    def:ArchiveLocationID="Location.MA"
                    def:Class="Findings"
                    def:DomainKeys="STUDYID, USUBJID, MATESTCD, MASPEC, MAANTREG, MALAT, MADIR, MAPORTOT, MASTRESC"
                    def:Label="MACROSCOPIC FINDINGS" def:Structure="One record per finding per specimen per subject">
                    <ItemRef ItemOID="MA.STUDYID" Mandatory="Yes"
                         OrderNumber="1" Role="Identifier" RoleCodeListOID="ROLECODELIST"/>
                    <ItemRef ItemOID="MA.DOMAIN" Mandatory="Yes"
                         OrderNumber="2" Role="Identifier" RoleCodeListOID="ROLECODELIST"/>
                    <ItemRef ItemOID="MA.USUBJID" Mandatory="Yes"
                         OrderNumber="3" Role="Identifier" RoleCodeListOID="ROLECODELIST"/>
                    <ItemRef ItemOID="MA.MASEQ" Mandatory="Yes"
                         OrderNumber="4" Role="Identifier" RoleCodeListOID="ROLECODELIST"/>
                    <ItemRef ItemOID="MA.MAGRPID" Mandatory="No"
                         OrderNumber="5" Role="Identifier" RoleCodeListOID="ROLECODELIST"/>
                    <ItemRef ItemOID="MA.MAREFID" Mandatory="No"
                         OrderNumber="6" Role="Identifier" RoleCodeListOID="ROLECODELIST"/>
                    <ItemRef ItemOID="MA.MASPID" Mandatory="No"
                         OrderNumber="7" Role="Identifier" RoleCodeListOID="ROLECODELIST"/>
                    <ItemRef ItemOID="MA.MATESTCD" Mandatory="Yes"
                         OrderNumber="8" Role="Topic" RoleCodeListOID="ROLECODELIST"/>
                    <ItemRef ItemOID="MA.MATEST" Mandatory="Yes"
                         OrderNumber="9" Role="Synonym Qualifier" RoleCodeListOID="ROLECODELIST"/>
                    <ItemRef ItemOID="MA.MABODSYS" Mandatory="No"
                         OrderNumber="10" Role="Record Qualifier" RoleCodeListOID="ROLECODELIST"/>
                    <ItemRef ItemOID="MA.MAORRES" Mandatory="No"
                         OrderNumber="11" Role="Result Qualifier" RoleCodeListOID="ROLECODELIST"/>
                    <ItemRef ItemOID="MA.MASTRESC" Mandatory="No"
                         OrderNumber="12" Role="Result Qualifier" RoleCodeListOID="ROLECODELIST"/>
                    <ItemRef ItemOID="MA.MASTAT" Mandatory="No"
                         OrderNumber="13" Role="Record Qualifier" RoleCodeListOID="ROLECODELIST"/>
                    <ItemRef ItemOID="MA.MAREASND" Mandatory="No"
                         OrderNumber="14" Role="Record Qualifier" RoleCodeListOID="ROLECODELIST"/>
                    <ItemRef ItemOID="MA.MANAM" Mandatory="No"
                         OrderNumber="15" Role="Record Qualifier" RoleCodeListOID="ROLECODELIST"/>
                    <ItemRef ItemOID="MA.MASPEC" Mandatory="No"
                         OrderNumber="16" Role="Record Qualifier" RoleCodeListOID="ROLECODELIST"/>
                    <ItemRef ItemOID="MA.MAANTREG" Mandatory="No"
                         OrderNumber="17" Role="Variable Qualifier" RoleCodeListOID="ROLECODELIST"/>
                    <ItemRef ItemOID="MA.MASPCCND" Mandatory="No"
                         OrderNumber="18" Role="Variable Qualifier" RoleCodeListOID="ROLECODELIST"/>
                    <ItemRef ItemOID="MA.MASPCUFL" Mandatory="No"
                         OrderNumber="19" Role="Variable Qualifier" RoleCodeListOID="ROLECODELIST"/>
                    <ItemRef ItemOID="MA.MALAT" Mandatory="No"
                         OrderNumber="20" Role="Variable Qualifier" RoleCodeListOID="ROLECODELIST"/>
                    <ItemRef ItemOID="MA.MADIR" Mandatory="No"
                         OrderNumber="21" Role="Variable Qualifier" RoleCodeListOID="ROLECODELIST"/>
                    <ItemRef ItemOID="MA.MAPORTOT" Mandatory="No"
                         OrderNumber="22" Role="Variable Qualifier" RoleCodeListOID="ROLECODELIST"/>
                    <ItemRef ItemOID="MA.MAEVAL" Mandatory="No"
                         OrderNumber="23" Role="Record Qualifier" RoleCodeListOID="ROLECODELIST"/>
                    <ItemRef ItemOID="MA.MASEV" Mandatory="No"
                         OrderNumber="24" Role="Record Qualifier" RoleCodeListOID="ROLECODELIST"/>
                    <ItemRef ItemOID="MA.MADTHREL" Mandatory="No"
                         OrderNumber="25" Role="Record Qualifier" RoleCodeListOID="ROLECODELIST"/>
                    <ItemRef ItemOID="MA.MADTC" Mandatory="No"
                         OrderNumber="26" Role="Timing" RoleCodeListOID="ROLECODELIST"/>
                    <ItemRef ItemOID="MA.MADY" Mandatory="No"
                         OrderNumber="27" Role="Timing" RoleCodeListOID="ROLECODELIST"/>
                    <def:leaf ID="Location.MA" xlink:href="ma.xpt">
                         <def:title>ma.xpt</def:title>
                    </def:leaf>
               </ItemGroupDef>
               <ItemGroupDef IsReferenceData="No" Name="MI" OID="MI"
                    Purpose="Tabulation" Repeating="Yes"
                    def:ArchiveLocationID="Location.MI"
                    def:Class="Findings"
                    def:DomainKeys="STUDYID, USUBJID, MITESTCD, MISPEC, MIANTREG, MILAT, MIDIR, MISTRESC, MIMETHOD"
                    def:Label="MICROSCOPIC FINDINGS" def:Structure="One record per finding per specimen per subject">
                    <ItemRef ItemOID="MI.STUDYID" Mandatory="Yes"
                         OrderNumber="1" Role="Identifier" RoleCodeListOID="ROLECODELIST"/>
                    <ItemRef ItemOID="MI.DOMAIN" Mandatory="Yes"
                         OrderNumber="2" Role="Identifier" RoleCodeListOID="ROLECODELIST"/>
                    <ItemRef ItemOID="MI.USUBJID" Mandatory="Yes"
                         OrderNumber="3" Role="Identifier" RoleCodeListOID="ROLECODELIST"/>
                    <ItemRef ItemOID="MI.MISEQ" Mandatory="Yes"
                         OrderNumber="4" Role="Identifier" RoleCodeListOID="ROLECODELIST"/>
                    <ItemRef ItemOID="MI.MIGRPID" Mandatory="No"
                         OrderNumber="5" Role="Identifier" RoleCodeListOID="ROLECODELIST"/>
                    <ItemRef ItemOID="MI.MIREFID" Mandatory="No"
                         OrderNumber="6" Role="Identifier" RoleCodeListOID="ROLECODELIST"/>
                    <ItemRef ItemOID="MI.MISPID" Mandatory="No"
                         OrderNumber="7" Role="Identifier" RoleCodeListOID="ROLECODELIST"/>
                    <ItemRef ItemOID="MI.MITESTCD" Mandatory="Yes"
                         OrderNumber="8" Role="Topic" RoleCodeListOID="ROLECODELIST"/>
                    <ItemRef ItemOID="MI.MITEST" Mandatory="Yes"
                         OrderNumber="9" Role="Synonym Qualifier" RoleCodeListOID="ROLECODELIST"/>
                    <ItemRef ItemOID="MI.MIBODSYS" Mandatory="No"
                         OrderNumber="10" Role="Record Qualifier" RoleCodeListOID="ROLECODELIST"/>
                    <ItemRef ItemOID="MI.MIORRES" Mandatory="No"
                         OrderNumber="11" Role="Result Qualifier" RoleCodeListOID="ROLECODELIST"/>
                    <ItemRef ItemOID="MI.MISTRESC" Mandatory="No"
                         OrderNumber="12" Role="Result Qualifier" RoleCodeListOID="ROLECODELIST"/>
                    <ItemRef ItemOID="MI.MIRESCAT" Mandatory="No"
                         OrderNumber="13" Role="Variable Qualifier" RoleCodeListOID="ROLECODELIST"/>
                    <ItemRef ItemOID="MI.MISTAT" Mandatory="No"
                         OrderNumber="14" Role="Record Qualifier" RoleCodeListOID="ROLECODELIST"/>
                    <ItemRef ItemOID="MI.MIREASND" Mandatory="No"
                         OrderNumber="15" Role="Record Qualifier" RoleCodeListOID="ROLECODELIST"/>
                    <ItemRef ItemOID="MI.MINAM" Mandatory="No"
                         OrderNumber="16" Role="Record Qualifier" RoleCodeListOID="ROLECODELIST"/>
                    <ItemRef ItemOID="MI.MISPEC" Mandatory="Yes"
                         OrderNumber="17" Role="Record Qualifier" RoleCodeListOID="ROLECODELIST"/>
                    <ItemRef ItemOID="MI.MIANTREG" Mandatory="No"
                         OrderNumber="18" Role="Variable Qualifier" RoleCodeListOID="ROLECODELIST"/>
                    <ItemRef ItemOID="MI.MISPCCND" Mandatory="No"
                         OrderNumber="19" Role="Variable Qualifier" RoleCodeListOID="ROLECODELIST"/>
                    <ItemRef ItemOID="MI.MISPCUFL" Mandatory="No"
                         OrderNumber="20" Role="Variable Qualifier" RoleCodeListOID="ROLECODELIST"/>
                    <ItemRef ItemOID="MI.MIMETHOD" Mandatory="No"
                         OrderNumber="21" Role="Record Qualifier" RoleCodeListOID="ROLECODELIST"/>
                    <ItemRef ItemOID="MI.MILAT" Mandatory="No"
                         OrderNumber="22" Role="Variable Qualifier" RoleCodeListOID="ROLECODELIST"/>
                    <ItemRef ItemOID="MI.MIDIR" Mandatory="No"
                         OrderNumber="23" Role="Variable Qualifier" RoleCodeListOID="ROLECODELIST"/>
                    <ItemRef ItemOID="MI.MIEVAL" Mandatory="No"
                         OrderNumber="24" Role="Record Qualifier" RoleCodeListOID="ROLECODELIST"/>
                    <ItemRef ItemOID="MI.MISEV" Mandatory="No"
                         OrderNumber="25" Role="Record Qualifier" RoleCodeListOID="ROLECODELIST"/>
                    <ItemRef ItemOID="MI.MIDTHREL" Mandatory="No"
                         OrderNumber="26" Role="Record Qualifier" RoleCodeListOID="ROLECODELIST"/>
                    <ItemRef ItemOID="MI.MIDTC" Mandatory="No"
                         OrderNumber="27" Role="Timing" RoleCodeListOID="ROLECODELIST"/>
                    <ItemRef ItemOID="MI.MIDY" Mandatory="No"
                         OrderNumber="28" Role="Timing" RoleCodeListOID="ROLECODELIST"/>
                    <def:leaf ID="Location.MI" xlink:href="mi.xpt">
                         <def:title>mi.xpt</def:title>
                    </def:leaf>
               </ItemGroupDef>
               <ItemGroupDef IsReferenceData="No" Name="OM" OID="OM"
                    Purpose="Tabulation" Repeating="Yes"
                    def:ArchiveLocationID="Location.OM"
                    def:Class="Findings"
                    def:DomainKeys="STUDYID, USUBJID, OMTESTCD, OMSPEC, OMANTREG, OMLAT, OMDIR, OMPORTOT"
                    def:Label="ORGAN MEASUREMENTS" def:Structure="One record per test per specimen per subject">
                    <ItemRef ItemOID="OM.STUDYID" Mandatory="Yes"
                         OrderNumber="1" Role="Identifier" RoleCodeListOID="ROLECODELIST"/>
                    <ItemRef ItemOID="OM.DOMAIN" Mandatory="Yes"
                         OrderNumber="2" Role="Identifier" RoleCodeListOID="ROLECODELIST"/>
                    <ItemRef ItemOID="OM.USUBJID" Mandatory="Yes"
                         OrderNumber="3" Role="Identifier" RoleCodeListOID="ROLECODELIST"/>
                    <ItemRef ItemOID="OM.OMSEQ" Mandatory="Yes"
                         OrderNumber="4" Role="Identifier" RoleCodeListOID="ROLECODELIST"/>
                    <ItemRef ItemOID="OM.OMTESTCD" Mandatory="Yes"
                         OrderNumber="5" Role="Topic" RoleCodeListOID="ROLECODELIST"/>
                    <ItemRef ItemOID="OM.OMTEST" Mandatory="Yes"
                         OrderNumber="6" Role="Synonym Qualifier" RoleCodeListOID="ROLECODELIST"/>
                    <ItemRef ItemOID="OM.OMORRES" Mandatory="No"
                         OrderNumber="7" Role="Result Qualifier" RoleCodeListOID="ROLECODELIST"/>
                    <ItemRef ItemOID="OM.OMORRESU" Mandatory="No"
                         OrderNumber="8" Role="Variable Qualifier" RoleCodeListOID="ROLECODELIST"/>
                    <ItemRef ItemOID="OM.OMSTRESC" Mandatory="No"
                         OrderNumber="9" Role="Result Qualifier" RoleCodeListOID="ROLECODELIST"/>
                    <ItemRef ItemOID="OM.OMSTRESN" Mandatory="No"
                         OrderNumber="10" Role="Result Qualifier" RoleCodeListOID="ROLECODELIST"/>
                    <ItemRef ItemOID="OM.OMSTRESU" Mandatory="No"
                         OrderNumber="11" Role="Variable Qualifier" RoleCodeListOID="ROLECODELIST"/>
                    <ItemRef ItemOID="OM.OMSTAT" Mandatory="No"
                         OrderNumber="12" Role="Record Qualifier" RoleCodeListOID="ROLECODELIST"/>
                    <ItemRef ItemOID="OM.OMREASND" Mandatory="No"
                         OrderNumber="13" Role="Record Qualifier" RoleCodeListOID="ROLECODELIST"/>
                    <ItemRef ItemOID="OM.OMSPEC" Mandatory="Yes"
                         OrderNumber="14" Role="Record Qualifier" RoleCodeListOID="ROLECODELIST"/>
                    <ItemRef ItemOID="OM.OMANTREG" Mandatory="No"
                         OrderNumber="15" Role="Variable Qualifier" RoleCodeListOID="ROLECODELIST"/>
                    <ItemRef ItemOID="OM.OMSPCCND" Mandatory="No"
                         OrderNumber="16" Role="Variable Qualifier" RoleCodeListOID="ROLECODELIST"/>
                    <ItemRef ItemOID="OM.OMSPCUFL" Mandatory="No"
                         OrderNumber="17" Role="Variable Qualifier" RoleCodeListOID="ROLECODELIST"/>
                    <ItemRef ItemOID="OM.OMLAT" Mandatory="No"
                         OrderNumber="18" Role="Variable Qualifier" RoleCodeListOID="ROLECODELIST"/>
                    <ItemRef ItemOID="OM.OMDIR" Mandatory="No"
                         OrderNumber="19" Role="Variable Qualifier" RoleCodeListOID="ROLECODELIST"/>
                    <ItemRef ItemOID="OM.OMPORTOT" Mandatory="No"
                         OrderNumber="20" Role="Variable Qualifier" RoleCodeListOID="ROLECODELIST"/>
                    <ItemRef ItemOID="OM.OMEXCLFL" Mandatory="No"
                         OrderNumber="21" Role="Record Qualifier" RoleCodeListOID="ROLECODELIST"/>
                    <ItemRef ItemOID="OM.OMREASEX" Mandatory="No"
                         OrderNumber="22" Role="Record Qualifier" RoleCodeListOID="ROLECODELIST"/>
                    <ItemRef ItemOID="OM.OMDTC" Mandatory="No"
                         OrderNumber="23" Role="Timing" RoleCodeListOID="ROLECODELIST"/>
                    <ItemRef ItemOID="OM.OMDY" Mandatory="No"
                         OrderNumber="24" Role="Timing" RoleCodeListOID="ROLECODELIST"/>
                    <def:leaf ID="Location.OM" xlink:href="om.xpt">
                         <def:title>om.xpt</def:title>
                    </def:leaf>
               </ItemGroupDef>
               <ItemGroupDef IsReferenceData="No" Name="PC" OID="PC"
                    Purpose="Tabulation" Repeating="Yes"
                    def:ArchiveLocationID="Location.PC"
                    def:Class="Findings"
                    def:DomainKeys="STUDYID, USUBJID, POOLID, PCTESTCD, PCSPEC, PCDTC, PCTPT"
                    def:Label="PHARMACOKINETICS CONCENTRATIONS" def:Structure="One record per test per specimen per observation time per subject or pool">
                    <ItemRef ItemOID="PC.STUDYID" Mandatory="Yes"
                         OrderNumber="1" Role="Identifier" RoleCodeListOID="ROLECODELIST"/>
                    <ItemRef ItemOID="PC.DOMAIN" Mandatory="Yes"
                         OrderNumber="2" Role="Identifier" RoleCodeListOID="ROLECODELIST"/>
                    <ItemRef ItemOID="PC.USUBJID" Mandatory="No"
                         OrderNumber="3" Role="Identifier" RoleCodeListOID="ROLECODELIST"/>
                    <ItemRef ItemOID="PC.POOLID" Mandatory="No"
                         OrderNumber="4" Role="Identifier" RoleCodeListOID="ROLECODELIST"/>
                    <ItemRef ItemOID="PC.PCSEQ" Mandatory="Yes"
                         OrderNumber="5" Role="Identifier" RoleCodeListOID="ROLECODELIST"/>
                    <ItemRef ItemOID="PC.PCGRPID" Mandatory="No"
                         OrderNumber="6" Role="Identifier" RoleCodeListOID="ROLECODELIST"/>
                    <ItemRef ItemOID="PC.PCREFID" Mandatory="No"
                         OrderNumber="7" Role="Identifier" RoleCodeListOID="ROLECODELIST"/>
                    <ItemRef ItemOID="PC.PCSPID" Mandatory="No"
                         OrderNumber="8" Role="Identifier" RoleCodeListOID="ROLECODELIST"/>
                    <ItemRef ItemOID="PC.PCTESTCD" Mandatory="Yes"
                         OrderNumber="9" Role="Topic" RoleCodeListOID="ROLECODELIST"/>
                    <ItemRef ItemOID="PC.PCTEST" Mandatory="Yes"
                         OrderNumber="10" Role="Synonym Qualifier" RoleCodeListOID="ROLECODELIST"/>
                    <ItemRef ItemOID="PC.PCCAT" Mandatory="No"
                         OrderNumber="11" Role="Grouping Qualifier" RoleCodeListOID="ROLECODELIST"/>
                    <ItemRef ItemOID="PC.PCSCAT" Mandatory="No"
                         OrderNumber="12" Role="Grouping Qualifier" RoleCodeListOID="ROLECODELIST"/>
                    <ItemRef ItemOID="PC.PCORRES" Mandatory="No"
                         OrderNumber="13" Role="Result Qualifier" RoleCodeListOID="ROLECODELIST"/>
                    <ItemRef ItemOID="PC.PCORRESU" Mandatory="No"
                         OrderNumber="14" Role="Variable Qualifier" RoleCodeListOID="ROLECODELIST"/>
                    <ItemRef ItemOID="PC.PCSTRESC" Mandatory="No"
                         OrderNumber="15" Role="Result Qualifier" RoleCodeListOID="ROLECODELIST"/>
                    <ItemRef ItemOID="PC.PCSTRESN" Mandatory="No"
                         OrderNumber="16" Role="Result Qualifier" RoleCodeListOID="ROLECODELIST"/>
                    <ItemRef ItemOID="PC.PCSTRESU" Mandatory="No"
                         OrderNumber="17" Role="Variable Qualifier" RoleCodeListOID="ROLECODELIST"/>
                    <ItemRef ItemOID="PC.PCSTAT" Mandatory="No"
                         OrderNumber="18" Role="Record Qualifier" RoleCodeListOID="ROLECODELIST"/>
                    <ItemRef ItemOID="PC.PCREASND" Mandatory="No"
                         OrderNumber="19" Role="Record Qualifier" RoleCodeListOID="ROLECODELIST"/>
                    <ItemRef ItemOID="PC.PCNAM" Mandatory="No"
                         OrderNumber="20" Role="Record Qualifier" RoleCodeListOID="ROLECODELIST"/>
                    <ItemRef ItemOID="PC.PCSPEC" Mandatory="Yes"
                         OrderNumber="21" Role="Record Qualifier" RoleCodeListOID="ROLECODELIST"/>
                    <ItemRef ItemOID="PC.PCSPCCND" Mandatory="No"
                         OrderNumber="22" Role="Variable Qualifier" RoleCodeListOID="ROLECODELIST"/>
                    <ItemRef ItemOID="PC.PCMETHOD" Mandatory="No"
                         OrderNumber="23" Role="Record Qualifier" RoleCodeListOID="ROLECODELIST"/>
                    <ItemRef ItemOID="PC.PCBLFL" Mandatory="No"
                         OrderNumber="24" Role="Record Qualifier" RoleCodeListOID="ROLECODELIST"/>
                    <ItemRef ItemOID="PC.PCFAST" Mandatory="No"
                         OrderNumber="25" Role="Record Qualifier" RoleCodeListOID="ROLECODELIST"/>
                    <ItemRef ItemOID="PC.PCDRVFL" Mandatory="No"
                         OrderNumber="26" Role="Record Qualifier" RoleCodeListOID="ROLECODELIST"/>
                    <ItemRef ItemOID="PC.PCLLOQ" Mandatory="No"
                         OrderNumber="27" Role="Variable Qualifier" RoleCodeListOID="ROLECODELIST"/>
                    <ItemRef ItemOID="PC.PCEXCLFL" Mandatory="No"
                         OrderNumber="28" Role="Record Qualifier" RoleCodeListOID="ROLECODELIST"/>
                    <ItemRef ItemOID="PC.PCREASEX" Mandatory="No"
                         OrderNumber="29" Role="Record Qualifier" RoleCodeListOID="ROLECODELIST"/>
                    <ItemRef ItemOID="PC.VISITDY" Mandatory="No"
                         OrderNumber="30" Role="Timing" RoleCodeListOID="ROLECODELIST"/>
                    <ItemRef ItemOID="PC.PCDTC" Mandatory="No"
                         OrderNumber="31" Role="Timing" RoleCodeListOID="ROLECODELIST"/>
                    <ItemRef ItemOID="PC.PCENDTC" Mandatory="No"
                         OrderNumber="32" Role="Timing" RoleCodeListOID="ROLECODELIST"/>
                    <ItemRef ItemOID="PC.PCDY" Mandatory="No"
                         OrderNumber="33" Role="Timing" RoleCodeListOID="ROLECODELIST"/>
                    <ItemRef ItemOID="PC.PCENDY" Mandatory="No"
                         OrderNumber="34" Role="Timing" RoleCodeListOID="ROLECODELIST"/>
                    <ItemRef ItemOID="PC.PCTPT" Mandatory="No"
                         OrderNumber="35" Role="Timing" RoleCodeListOID="ROLECODELIST"/>
                    <ItemRef ItemOID="PC.PCTPTNUM" Mandatory="No"
                         OrderNumber="36" Role="Timing" RoleCodeListOID="ROLECODELIST"/>
                    <ItemRef ItemOID="PC.PCELTM" Mandatory="No"
                         OrderNumber="37" Role="Timing" RoleCodeListOID="ROLECODELIST"/>
                    <ItemRef ItemOID="PC.PCTPTREF" Mandatory="No"
                         OrderNumber="38" Role="Timing" RoleCodeListOID="ROLECODELIST"/>
                    <ItemRef ItemOID="PC.PCRFTDTC" Mandatory="No"
                         OrderNumber="39" Role="Timing" RoleCodeListOID="ROLECODELIST"/>
                    <ItemRef ItemOID="PC.PCEVLINT" Mandatory="No"
                         OrderNumber="40" Role="Timing" RoleCodeListOID="ROLECODELIST"/>
                    <def:leaf ID="Location.PC" xlink:href="pc.xpt">
                         <def:title>pc.xpt</def:title>
                    </def:leaf>
               </ItemGroupDef>
               <ItemGroupDef IsReferenceData="No" Name="PP" OID="PP"
                    Purpose="Tabulation" Repeating="Yes"
                    def:ArchiveLocationID="Location.PP"
                    def:Class="Findings"
                    def:DomainKeys="STUDYID, USUBJID, POOLID, PPTESTCD, PPCAT, PPSPEC, PPRFTDTC"
                    def:Label="PHARMACOKINETICS PARAMETERS" def:Structure="One record per test per time-concentration profile per specimen per subject or pool">
                    <ItemRef ItemOID="PP.STUDYID" Mandatory="Yes"
                         OrderNumber="1" Role="Identifier" RoleCodeListOID="ROLECODELIST"/>
                    <ItemRef ItemOID="PP.DOMAIN" Mandatory="Yes"
                         OrderNumber="2" Role="Identifier" RoleCodeListOID="ROLECODELIST"/>
                    <ItemRef ItemOID="PP.USUBJID" Mandatory="No"
                         OrderNumber="3" Role="Identifier" RoleCodeListOID="ROLECODELIST"/>
                    <ItemRef ItemOID="PP.POOLID" Mandatory="No"
                         OrderNumber="4" Role="Identifier" RoleCodeListOID="ROLECODELIST"/>
                    <ItemRef ItemOID="PP.PPSEQ" Mandatory="Yes"
                         OrderNumber="5" Role="Identifier" RoleCodeListOID="ROLECODELIST"/>
                    <ItemRef ItemOID="PP.PPGRPID" Mandatory="No"
                         OrderNumber="6" Role="Identifier" RoleCodeListOID="ROLECODELIST"/>
                    <ItemRef ItemOID="PP.PPTESTCD" Mandatory="Yes"
                         OrderNumber="7" Role="Topic" RoleCodeListOID="ROLECODELIST"/>
                    <ItemRef ItemOID="PP.PPTEST" Mandatory="Yes"
                         OrderNumber="8" Role="Synonym Qualifier" RoleCodeListOID="ROLECODELIST"/>
                    <ItemRef ItemOID="PP.PPCAT" Mandatory="No"
                         OrderNumber="9" Role="Grouping Qualifier" RoleCodeListOID="ROLECODELIST"/>
                    <ItemRef ItemOID="PP.PPSCAT" Mandatory="No"
                         OrderNumber="10" Role="Grouping Qualifier" RoleCodeListOID="ROLECODELIST"/>
                    <ItemRef ItemOID="PP.PPORRES" Mandatory="No"
                         OrderNumber="11" Role="Result Qualifier" RoleCodeListOID="ROLECODELIST"/>
                    <ItemRef ItemOID="PP.PPORRESU" Mandatory="No"
                         OrderNumber="12" Role="Variable Qualifier" RoleCodeListOID="ROLECODELIST"/>
                    <ItemRef ItemOID="PP.PPSTRESC" Mandatory="No"
                         OrderNumber="13" Role="Result Qualifier" RoleCodeListOID="ROLECODELIST"/>
                    <ItemRef ItemOID="PP.PPSTRESN" Mandatory="No"
                         OrderNumber="14" Role="Result Qualifier" RoleCodeListOID="ROLECODELIST"/>
                    <ItemRef ItemOID="PP.PPSTRESU" Mandatory="No"
                         OrderNumber="15" Role="Variable Qualifier" RoleCodeListOID="ROLECODELIST"/>
                    <ItemRef ItemOID="PP.PPSTAT" Mandatory="No"
                         OrderNumber="16" Role="Record Qualifier" RoleCodeListOID="ROLECODELIST"/>
                    <ItemRef ItemOID="PP.PPREASND" Mandatory="No"
                         OrderNumber="17" Role="Record Qualifier" RoleCodeListOID="ROLECODELIST"/>
                    <ItemRef ItemOID="PP.PPSPEC" Mandatory="No"
                         OrderNumber="18" Role="Record Qualifier" RoleCodeListOID="ROLECODELIST"/>
                    <ItemRef ItemOID="PP.VISITDY" Mandatory="No"
                         OrderNumber="19" Role="Timing" RoleCodeListOID="ROLECODELIST"/>
                    <ItemRef ItemOID="PP.PPTPTREF" Mandatory="No"
                         OrderNumber="20" Role="Timing" RoleCodeListOID="ROLECODELIST"/>
                    <ItemRef ItemOID="PP.PPRFTDTC" Mandatory="No"
                         OrderNumber="21" Role="Timing" RoleCodeListOID="ROLECODELIST"/>
                    <ItemRef ItemOID="PP.PPSTINT" Mandatory="No"
                         OrderNumber="22" Role="Timing" RoleCodeListOID="ROLECODELIST"/>
                    <ItemRef ItemOID="PP.PPENINT" Mandatory="No"
                         OrderNumber="23" Role="Timing" RoleCodeListOID="ROLECODELIST"/>
                    <def:leaf ID="Location.PP" xlink:href="pp.xpt">
                         <def:title>pp.xpt</def:title>
                    </def:leaf>
               </ItemGroupDef>
               <ItemGroupDef IsReferenceData="No" Name="TF" OID="TF"
                    Purpose="Tabulation" Repeating="No"
                    def:ArchiveLocationID="Location.TF"
                    def:Class="Findings"
                    def:DomainKeys="STUDYID, USUBJID, TFTESTCD, TFSPEC, TFANTREG, TFLAT, TFDIR, TFSTRESC, TFMETHOD"
                    def:Label="TUMOR FINDINGS" def:Structure="One record per tumor per specimen per subject">
                    <ItemRef ItemOID="TF.STUDYID" Mandatory="Yes"
                         OrderNumber="1" Role="Identifier" RoleCodeListOID="ROLECODELIST"/>
                    <ItemRef ItemOID="TF.DOMAIN" Mandatory="Yes"
                         OrderNumber="2" Role="Identifier" RoleCodeListOID="ROLECODELIST"/>
                    <ItemRef ItemOID="TF.USUBJID" Mandatory="Yes"
                         OrderNumber="3" Role="Identifier" RoleCodeListOID="ROLECODELIST"/>
                    <ItemRef ItemOID="TF.TFSEQ" Mandatory="Yes"
                         OrderNumber="4" Role="Identifier" RoleCodeListOID="ROLECODELIST"/>
                    <ItemRef ItemOID="TF.TFGRPID" Mandatory="No"
                         OrderNumber="5" Role="Identifier" RoleCodeListOID="ROLECODELIST"/>
                    <ItemRef ItemOID="TF.TFREFID" Mandatory="No"
                         OrderNumber="6" Role="Identifier" RoleCodeListOID="ROLECODELIST"/>
                    <ItemRef ItemOID="TF.TFSPID" Mandatory="No"
                         OrderNumber="7" Role="Identifier" RoleCodeListOID="ROLECODELIST"/>
                    <ItemRef ItemOID="TF.TFTESTCD" Mandatory="Yes"
                         OrderNumber="8" Role="Topic" RoleCodeListOID="ROLECODELIST"/>
                    <ItemRef ItemOID="TF.TFTEST" Mandatory="Yes"
                         OrderNumber="9" Role="Synonym Qualifier" RoleCodeListOID="ROLECODELIST"/>
                    <ItemRef ItemOID="TF.TFORRES" Mandatory="No"
                         OrderNumber="10" Role="Result Qualifier" RoleCodeListOID="ROLECODELIST"/>
                    <ItemRef ItemOID="TF.TFSTRESC" Mandatory="No"
                         OrderNumber="11" Role="Result Qualifier" RoleCodeListOID="ROLECODELIST"/>
                    <ItemRef ItemOID="TF.TFRESCAT" Mandatory="Yes"
                         OrderNumber="12" Role="Variable Qualifier" RoleCodeListOID="ROLECODELIST"/>
                    <ItemRef ItemOID="TF.TFSTAT" Mandatory="No"
                         OrderNumber="13" Role="Record Qualifier" RoleCodeListOID="ROLECODELIST"/>
                    <ItemRef ItemOID="TF.TFREASND" Mandatory="No"
                         OrderNumber="14" Role="Record Qualifier" RoleCodeListOID="ROLECODELIST"/>
                    <ItemRef ItemOID="TF.TFNAM" Mandatory="No"
                         OrderNumber="15" Role="Record Qualifier" RoleCodeListOID="ROLECODELIST"/>
                    <ItemRef ItemOID="TF.TFSPEC" Mandatory="Yes"
                         OrderNumber="16" Role="Record Qualifier" RoleCodeListOID="ROLECODELIST"/>
                    <ItemRef ItemOID="TF.TFANTREG" Mandatory="No"
                         OrderNumber="17" Role="Variable Qualifier" RoleCodeListOID="ROLECODELIST"/>
                    <ItemRef ItemOID="TF.TFSPCCND" Mandatory="No"
                         OrderNumber="18" Role="Variable Qualifier" RoleCodeListOID="ROLECODELIST"/>
                    <ItemRef ItemOID="TF.TFMETHOD" Mandatory="No"
                         OrderNumber="19" Role="Record Qualifier" RoleCodeListOID="ROLECODELIST"/>
                    <ItemRef ItemOID="TF.TFLAT" Mandatory="No"
                         OrderNumber="20" Role="Variable Qualifier" RoleCodeListOID="ROLECODELIST"/>
                    <ItemRef ItemOID="TF.TFDIR" Mandatory="No"
                         OrderNumber="21" Role="Variable Qualifier" RoleCodeListOID="ROLECODELIST"/>
                    <ItemRef ItemOID="TF.TFEVAL" Mandatory="No"
                         OrderNumber="22" Role="Record Qualifier" RoleCodeListOID="ROLECODELIST"/>
                    <ItemRef ItemOID="TF.TFDTHREL" Mandatory="Yes"
                         OrderNumber="23" Role="Record Qualifier" RoleCodeListOID="ROLECODELIST"/>
                    <ItemRef ItemOID="TF.TFDTC" Mandatory="No"
                         OrderNumber="24" Role="Timing" RoleCodeListOID="ROLECODELIST"/>
                    <ItemRef ItemOID="TF.TFDY" Mandatory="No"
                         OrderNumber="25" Role="Timing" RoleCodeListOID="ROLECODELIST"/>
                    <ItemRef ItemOID="TF.TFDETECT" Mandatory="Yes"
                         OrderNumber="26" Role="Timing" RoleCodeListOID="ROLECODELIST"/>
                    <def:leaf ID="Location.TF" xlink:href="tf.xpt">
                         <def:title>tf.xpt</def:title>
                    </def:leaf>
               </ItemGroupDef>
               <ItemGroupDef IsReferenceData="No" Name="POOLDEF"
                    OID="POOLDEF" Purpose="Tabulation" Repeating="Yes"
                    def:ArchiveLocationID="Location.POOLDEF"
                    def:Class="Relationship"
                    def:DomainKeys="STUDYID, USUBJID, POOLID"
                    def:Label="POOLED DEFINITION" def:Structure="One record per subject per pool">
                    <ItemRef ItemOID="POOLDEF.STUDYID" Mandatory="Yes"
                         OrderNumber="1" Role="Identifier" RoleCodeListOID="ROLECODELIST"/>
                    <ItemRef ItemOID="POOLDEF.POOLID" Mandatory="Yes"
                         OrderNumber="2" Role="Identifier" RoleCodeListOID="ROLECODELIST"/>
                    <ItemRef ItemOID="POOLDEF.USUBJID" Mandatory="Yes"
                         OrderNumber="3" Role="Identifier" RoleCodeListOID="ROLECODELIST"/>
                    <def:leaf ID="Location.POOLDEF" xlink:href="pooldef.xpt">
                         <def:title>pooldef.xpt</def:title>
                    </def:leaf>
               </ItemGroupDef>
               <ItemGroupDef IsReferenceData="No" Name="RELREC"
                    OID="RELREC" Purpose="Tabulation" Repeating="Yes"
                    def:ArchiveLocationID="Location.RELREC"
                    def:Class="Relationship"
                    def:DomainKeys="STUDYID, RDOMAIN, USUBJID, IDVAR, IDVARVAL, RELID"
                    def:Label="RELATED RECORDS" def:Structure="One record per related record, related group of records, or related dataset">
                    <ItemRef ItemOID="RELREC.STUDYID" Mandatory="Yes"
                         OrderNumber="1" Role="Identifier" RoleCodeListOID="ROLECODELIST"/>
                    <ItemRef ItemOID="RELREC.RDOMAIN" Mandatory="Yes" OrderNumber="2"/>
                    <ItemRef ItemOID="RELREC.USUBJID" Mandatory="No"
                         OrderNumber="3" Role="Identifier" RoleCodeListOID="ROLECODELIST"/>
                    <ItemRef ItemOID="RELREC.POOLID" Mandatory="No" OrderNumber="4"/>
                    <ItemRef ItemOID="RELREC.IDVAR" Mandatory="No" OrderNumber="5"/>
                    <ItemRef ItemOID="RELREC.IDVARVAL" Mandatory="No" OrderNumber="6"/>
                    <ItemRef ItemOID="RELREC.RELTYPE" Mandatory="No" OrderNumber="7"/>
                    <ItemRef ItemOID="RELREC.RELID" Mandatory="Yes" OrderNumber="8"/>
                    <def:leaf ID="Location.RELREC" xlink:href="relrec.xpt">
                         <def:title>relrec.xpt</def:title>
                    </def:leaf>
               </ItemGroupDef>
               <ItemGroupDef IsReferenceData="No" Name="SUPPMA"
                    OID="SUPPMA" Purpose="Tabulation" Repeating="Yes"
                    def:ArchiveLocationID="Location.SUPPMA"
                    def:Class="Relationship"
                    def:DomainKeys="STUDYID, RDOMAIN, USUBJID, IDVAR, IDVARVAL, QNAM"
                    def:Label="SUPPLEMENTAL QUALIFIERS FOR MA" def:Structure="One record per supplemental qualifier value per original domain record">
                    <ItemRef ItemOID="SUPPMA.STUDYID" Mandatory="Yes"
                         OrderNumber="1" Role="Identifier" RoleCodeListOID="ROLECODELIST"/>
                    <ItemRef ItemOID="SUPPMA.RDOMAIN" Mandatory="Yes"
                         OrderNumber="2" Role="Identifier" RoleCodeListOID="ROLECODELIST"/>
                    <ItemRef ItemOID="SUPPMA.USUBJID" Mandatory="No"
                         OrderNumber="3" Role="Identifier" RoleCodeListOID="ROLECODELIST"/>
                    <ItemRef ItemOID="SUPPMA.POOLID" Mandatory="No" OrderNumber="4"/>
                    <ItemRef ItemOID="SUPPMA.IDVAR" Mandatory="No"
                         OrderNumber="5" Role="Identifier" RoleCodeListOID="ROLECODELIST"/>
                    <ItemRef ItemOID="SUPPMA.IDVARVAL" Mandatory="No"
                         OrderNumber="6" Role="Identifier" RoleCodeListOID="ROLECODELIST"/>
                    <ItemRef ItemOID="SUPPMA.QNAM" Mandatory="Yes"
                         OrderNumber="7" Role="Topic" RoleCodeListOID="ROLECODELIST"/>
                    <ItemRef ItemOID="SUPPMA.QLABEL" Mandatory="Yes"
                         OrderNumber="8" Role="Synonym Qualifier" RoleCodeListOID="ROLECODELIST"/>
                    <ItemRef ItemOID="SUPPMA.QVAL" Mandatory="Yes"
                         OrderNumber="9" Role="Result" RoleCodeListOID="ROLECODELIST"/>
                    <ItemRef ItemOID="SUPPMA.QORIG" Mandatory="No"
                         OrderNumber="10" Role="Synonym Qualifier" RoleCodeListOID="ROLECODELIST"/>
                    <ItemRef ItemOID="SUPPMA.QEVAL" Mandatory="No"
                         OrderNumber="11" Role="Synonym Qualifier" RoleCodeListOID="ROLECODELIST"/>
                    <def:leaf ID="Location.SUPPMA" xlink:href="suppma.xpt">
                         <def:title>suppma.xpt</def:title>
                    </def:leaf>
               </ItemGroupDef>
               <ItemGroupDef IsReferenceData="No" Name="SUPPMI"
                    OID="SUPPMI" Purpose="Tabulation" Repeating="Yes"
                    def:ArchiveLocationID="Location.SUPPMI"
                    def:Class="Relationship"
                    def:DomainKeys="STUDYID, RDOMAIN, USUBJID, IDVAR, IDVARVAL, QNAM"
                    def:Label="SUPPLEMENTAL QUALIFIERS FOR MI" def:Structure="One record per supplemental qualifier value per original domain record">
                    <ItemRef ItemOID="SUPPMI.STUDYID" Mandatory="Yes"
                         OrderNumber="1" Role="Identifier" RoleCodeListOID="ROLECODELIST"/>
                    <ItemRef ItemOID="SUPPMI.RDOMAIN" Mandatory="Yes"
                         OrderNumber="2" Role="Identifier" RoleCodeListOID="ROLECODELIST"/>
                    <ItemRef ItemOID="SUPPMI.USUBJID" Mandatory="No"
                         OrderNumber="3" Role="Identifier" RoleCodeListOID="ROLECODELIST"/>
                    <ItemRef ItemOID="SUPPMI.POOLID" Mandatory="No" OrderNumber="4"/>
                    <ItemRef ItemOID="SUPPMI.IDVAR" Mandatory="No"
                         OrderNumber="5" Role="Identifier" RoleCodeListOID="ROLECODELIST"/>
                    <ItemRef ItemOID="SUPPMI.IDVARVAL" Mandatory="No"
                         OrderNumber="6" Role="Identifier" RoleCodeListOID="ROLECODELIST"/>
                    <ItemRef ItemOID="SUPPMI.QNAM" Mandatory="Yes"
                         OrderNumber="7" Role="Topic" RoleCodeListOID="ROLECODELIST"/>
                    <ItemRef ItemOID="SUPPMI.QLABEL" Mandatory="Yes"
                         OrderNumber="8" Role="Synonym Qualifier" RoleCodeListOID="ROLECODELIST"/>
                    <ItemRef ItemOID="SUPPMI.QVAL" Mandatory="Yes"
                         OrderNumber="9" Role="Result" RoleCodeListOID="ROLECODELIST"/>
                    <ItemRef ItemOID="SUPPMI.QORIG" Mandatory="No"
                         OrderNumber="10" Role="Synonym Qualifier" RoleCodeListOID="ROLECODELIST"/>
                    <ItemRef ItemOID="SUPPMI.QEVAL" Mandatory="No"
                         OrderNumber="11" Role="Synonym Qualifier" RoleCodeListOID="ROLECODELIST"/>
                    <def:leaf ID="Location.SUPPMI" xlink:href="suppmi.xpt">
                         <def:title>suppmi.xpt</def:title>
                    </def:leaf>
               </ItemGroupDef>
               <ItemDef Comment="" DataType="text" Length="6"
                    Name="STUDYID" OID="BG.STUDYID" Origin="OTHER" def:Label="Study Identifier"/>
               <ItemDef Comment="" DataType="text" Length="2"
                    Name="DOMAIN" OID="BG.DOMAIN" Origin="OTHER" def:Label="Domain Abbreviation">
                    <CodeListRef CodeListOID="DOMAIN"/>
               </ItemDef>
               <ItemDef Comment="" DataType="text" Length="9"
                    Name="USUBJID" OID="BG.USUBJID" Origin="OTHER"
                    def:ComputationMethodOID="COMPMETHOD.COMPUSUBJID" def:Label="Unique Subject Identifier"/>
               <ItemDef Comment="" DataType="integer" Length="8"
                    Name="BGSEQ" OID="BG.BGSEQ" Origin="OTHER"
                    def:ComputationMethodOID="COMPMETHOD.COMPSEQ"
                    def:DisplayFormat="8.0" def:Label="Sequence Number"/>
               <ItemDef
                    Comment="Mapped from the test name used to report the calculated gain"
                    DataType="text" Length="6" Name="BGTESTCD"
                    OID="BG.BGTESTCD" Origin="DERIVED" def:Label="Test Short Name">
                    <CodeListRef CodeListOID="BGTESTCD"/>
                    <def:ValueListRef ValueListOID="ValueList.BG.BGTESTCD"/>
               </ItemDef>
               <ItemDef Comment="" DataType="text" Length="16"
                    Name="BGTEST" OID="BG.BGTEST" Origin="OTHER" def:Label="Test Name">
                    <CodeListRef CodeListOID="BGTEST"/>
               </ItemDef>
               <ItemDef
                    Comment="Difference between values in BWORRES values for interval specified"
                    DataType="text" Length="6" Name="BGORRES"
                    OID="BG.BGORRES" Origin="DERIVED" def:Label="Result or Findings as Collected"/>
               <ItemDef
                    Comment="Unit that body weight was collected in, from BWORRESU"
                    DataType="text" Length="1" Name="BGORRESU"
                    OID="BG.BGORRESU" Origin="DERIVED" def:Label="Unit of the Original Result">
                    <CodeListRef CodeListOID="UNIT"/>
               </ItemDef>
               <ItemDef Comment="" DataType="text" Length="6"
                    Name="BGSTRESC" OID="BG.BGSTRESC" Origin="DERIVED"
                    def:ComputationMethodOID="COMPMETHOD.COMPSTRESC" def:Label="Standardized Result in Character Format"/>
               <ItemDef Comment="" DataType="integer" Length="8"
                    Name="BGSTRESN" OID="BG.BGSTRESN" Origin="DERIVED"
                    def:ComputationMethodOID="COMPMETHOD.COMPSTRESN"
                    def:DisplayFormat="8.0" def:Label="Standardized Result in Numeric Format"/>
               <ItemDef Comment="" DataType="text" Length="1"
                    Name="BGSTRESU" OID="BG.BGSTRESU" Origin="DERIVED"
                    def:ComputationMethodOID="COMPMETHOD.COMPSTRESU" def:Label="Unit of the Standardized Result">
                    <CodeListRef CodeListOID="UNIT"/>
               </ItemDef>
               <ItemDef Comment="Not populated" DataType="text"
                    Length="8" Name="BGSTAT" OID="BG.BGSTAT"
                    Origin="OTHER" def:Label="Examination Status">
                    <CodeListRef CodeListOID="ND"/>
               </ItemDef>
               <ItemDef Comment="Not populated" DataType="text"
                    Length="36" Name="BGREASND" OID="BG.BGREASND"
                    Origin="OTHER" def:Label="Reason Not Done"/>
               <ItemDef Comment="" DataType="text" Length="1"
                    Name="BGEXCLFL" OID="BG.BGEXCLFL" Origin="COLLECTED" def:Label="Exclusion Flag">
                    <CodeListRef CodeListOID="NY"/>
               </ItemDef>
               <ItemDef Comment="" DataType="text" Length="1"
                    Name="BGREASEX" OID="BG.BGREASEX" Origin="COLLECTED" def:Label="Reason for Exclusion"/>
               <ItemDef Comment="" DataType="date" Length="10"
                    Name="BGDTC" OID="BG.BGDTC" Origin="COLLECTED" def:Label="Date/Time Animal Weighed"/>
               <ItemDef Comment="" DataType="date" Length="10"
                    Name="BGENDTC" OID="BG.BGENDTC" Origin="COLLECTED" def:Label="End Date/Time Animal Weighed"/>
               <ItemDef Comment="" DataType="integer" Length="8"
                    Name="BGDY" OID="BG.BGDY" Origin="DERIVED"
                    def:ComputationMethodOID="COMPMETHOD.COMPDY"
                    def:DisplayFormat="8.0" def:Label="Study Day Animal Weighed"/>
               <ItemDef Comment="" DataType="integer" Length="8"
                    Name="BGENDY" OID="BG.BGENDY" Origin="DERIVED"
                    def:ComputationMethodOID="COMPMETHOD.COMPENDY"
                    def:DisplayFormat="8.0" def:Label="Study Day of End of Weight Interval"/>
               <ItemDef Comment="Not populated" DataType="text"
                    Length="1" Name="BGELTM" OID="BG.BGELTM"
                    Origin="OTHER" def:Label="Planned Elapsed Time from Time Point Ref"/>
               <ItemDef Comment="Not populated" DataType="text"
                    Length="1" Name="BGTPTREF" OID="BG.BGTPTREF"
                    Origin="OTHER" def:Label="Time Point Reference"/>
               <ItemDef Comment="Not populated" DataType="datetime"
                    Length="1" Name="BGRFTDTC" OID="BG.BGRFTDTC"
                    Origin="OTHER" def:Label="Date/Time of Reference Time Point"/>
               <ItemDef Comment="" DataType="text" Length="6"
                    Name="STUDYID" OID="BW.STUDYID" Origin="OTHER" def:Label="Study Identifier"/>
               <ItemDef Comment="" DataType="text" Length="2"
                    Name="DOMAIN" OID="BW.DOMAIN" Origin="OTHER" def:Label="Domain Abbreviation">
                    <CodeListRef CodeListOID="DOMAIN"/>
               </ItemDef>
               <ItemDef Comment="" DataType="text" Length="9"
                    Name="USUBJID" OID="BW.USUBJID" Origin="OTHER"
                    def:ComputationMethodOID="COMPMETHOD.COMPUSUBJID" def:Label="Unique Subject Identifier"/>
               <ItemDef Comment="" DataType="integer" Length="8"
                    Name="BWSEQ" OID="BW.BWSEQ" Origin="OTHER"
                    def:ComputationMethodOID="COMPMETHOD.COMPSEQ"
                    def:DisplayFormat="8.0" def:Label="Sequence Number"/>
               <ItemDef
                    Comment="Mapped from test name used during data collection"
                    DataType="text" Length="6" Name="BWTESTCD"
                    OID="BW.BWTESTCD" Origin="DERIVED" def:Label="Test Short Name">
                    <CodeListRef CodeListOID="BWTESTCD"/>
                    <def:ValueListRef ValueListOID="ValueList.BW.BWTESTCD"/>
               </ItemDef>
               <ItemDef Comment="" DataType="text" Length="20"
                    Name="BWTEST" OID="BW.BWTEST" Origin="OTHER" def:Label="Test Name">
                    <CodeListRef CodeListOID="BWTEST"/>
               </ItemDef>
               <ItemDef Comment="" DataType="text" Length="5"
                    Name="BWORRES" OID="BW.BWORRES" Origin="COLLECTED" def:Label="Result or Findings as Collected"/>
               <ItemDef Comment="" DataType="text" Length="1"
                    Name="BWORRESU" OID="BW.BWORRESU" Origin="COLLECTED" def:Label="Unit of the Original Result">
                    <CodeListRef CodeListOID="UNIT"/>
               </ItemDef>
               <ItemDef Comment="" DataType="text" Length="5"
                    Name="BWSTRESC" OID="BW.BWSTRESC" Origin="DERIVED"
                    def:ComputationMethodOID="COMPMETHOD.COMPSTRESC" def:Label="Standardized Result in Character Format"/>
               <ItemDef Comment="" DataType="float" Length="8"
                    Name="BWSTRESN" OID="BW.BWSTRESN" Origin="DERIVED"
                    SignificantDigits="1"
                    def:ComputationMethodOID="COMPMETHOD.COMPSTRESN"
                    def:DisplayFormat="5.1" def:Label="Standardized Result in Numeric Format"/>
               <ItemDef Comment="" DataType="text" Length="1"
                    Name="BWSTRESU" OID="BW.BWSTRESU" Origin="DERIVED"
                    def:ComputationMethodOID="COMPMETHOD.COMPSTRESU" def:Label="Unit of the Standardized Result">
                    <CodeListRef CodeListOID="UNIT"/>
               </ItemDef>
               <ItemDef Comment="" DataType="text" Length="8"
                    Name="BWSTAT" OID="BW.BWSTAT" Origin="COLLECTED" def:Label="Examination Status">
                    <CodeListRef CodeListOID="ND"/>
               </ItemDef>
               <ItemDef Comment="" DataType="text" Length="35"
                    Name="BWREASND" OID="BW.BWREASND" Origin="COLLECTED" def:Label="Reason Not Done"/>
               <ItemDef Comment="" DataType="text" Length="1"
                    Name="BWBLFL" OID="BW.BWBLFL" Origin="DERIVED"
                    def:ComputationMethodOID="COMPMETHOD.COMPBLFL" def:Label="Baseline Flag">
                    <CodeListRef CodeListOID="NY"/>
               </ItemDef>
               <ItemDef Comment="" DataType="text" Length="1"
                    Name="BWFAST" OID="BW.BWFAST" Origin="COLLECTED" def:Label="Fasting Status">
                    <CodeListRef CodeListOID="NY"/>
               </ItemDef>
               <ItemDef Comment="" DataType="text" Length="1"
                    Name="BWEXCLFL" OID="BW.BWEXCLFL" Origin="COLLECTED" def:Label="Exclusion Flag">
                    <CodeListRef CodeListOID="NY"/>
               </ItemDef>
               <ItemDef Comment="" DataType="text" Length="1"
                    Name="BWREASEX" OID="BW.BWREASEX" Origin="COLLECTED" def:Label="Reason for Exclusion"/>
               <ItemDef Comment="" DataType="integer" Length="8"
                    Name="VISITDY" OID="BW.VISITDY" Origin="DERIVED"
                    def:ComputationMethodOID="COMPMETHOD.COMPVISITDY"
                    def:DisplayFormat="8.0" def:Label="Planned Study Day of Collection"/>
               <ItemDef Comment="" DataType="datetime" Length="19"
                    Name="BWDTC" OID="BW.BWDTC" Origin="COLLECTED" def:Label="Date/Time Animal Weighed"/>
               <ItemDef Comment="" DataType="integer" Length="8"
                    Name="BWDY" OID="BW.BWDY" Origin="DERIVED"
                    def:ComputationMethodOID="COMPMETHOD.COMPDY"
                    def:DisplayFormat="8.0" def:Label="Study Day Animal Weighed"/>
               <ItemDef Comment="" DataType="text" Length="6"
                    Name="STUDYID" OID="CL.STUDYID" Origin="OTHER" def:Label="Study Identifier"/>
               <ItemDef Comment="" DataType="text" Length="2"
                    Name="DOMAIN" OID="CL.DOMAIN" Origin="OTHER" def:Label="Domain Abbreviation">
                    <CodeListRef CodeListOID="DOMAIN"/>
               </ItemDef>
               <ItemDef Comment="" DataType="text" Length="9"
                    Name="USUBJID" OID="CL.USUBJID" Origin="OTHER"
                    def:ComputationMethodOID="COMPMETHOD.COMPUSUBJID" def:Label="Unique Subject Identifier"/>
               <ItemDef Comment="Not populated" DataType="text"
                    Length="1" Name="POOLID" OID="CL.POOLID"
                    Origin="OTHER" def:Label="Pool Identifier"/>
               <ItemDef Comment="" DataType="integer" Length="8"
                    Name="CLSEQ" OID="CL.CLSEQ" Origin="OTHER"
                    def:ComputationMethodOID="COMPMETHOD.COMPSEQ"
                    def:DisplayFormat="8.0" def:Label="Sequence Number"/>
               <ItemDef Comment="Not populated" DataType="text"
                    Length="1" Name="CLGRPID" OID="CL.CLGRPID"
                    Origin="OTHER" def:Label="Group Identifier"/>
               <ItemDef Comment="" DataType="text" Length="1"
                    Name="CLSPID" OID="CL.CLSPID" Origin="OTHER" def:Label="Mass Identifier"/>
               <ItemDef
                    Comment="Mapped from test name used during data collection"
                    DataType="text" Length="4" Name="CLTESTCD"
                    OID="CL.CLTESTCD" Origin="DERIVED" def:Label="Test Short Name"/>
               <ItemDef Comment="" DataType="text" Length="27"
                    Name="CLTEST" OID="CL.CLTEST" Origin="OTHER" def:Label="Test Name"/>
               <ItemDef
                    Comment="Mapped from the collected clinical signs category"
                    DataType="text" Length="14" Name="CLCAT"
                    OID="CL.CLCAT" Origin="OTHER" def:Label="Category for Clinical Observations">
                    <CodeListRef CodeListOID="CLCAT"/>
                    <def:ValueListRef ValueListOID="ValueList.CL.CLCAT"/>
               </ItemDef>
               <ItemDef Comment="Not populated" DataType="text"
                    Length="1" Name="CLSCAT" OID="CL.CLSCAT"
                    Origin="OTHER" def:Label="Subcategory for Clinical Observations"/>
               <ItemDef Comment="" DataType="text" Length="1"
                    Name="CLBODSYS" OID="CL.CLBODSYS" Origin="OTHER" def:Label="Body System or Organ Class"/>
               <ItemDef
                    Comment="A concatenation of the individual observation components collected"
                    DataType="text" Length="40" Name="CLORRES"
                    OID="CL.CLORRES" Origin="DERIVED" def:Label="Result or Findings as Collected"/>
               <ItemDef Comment="" DataType="text" Length="24"
                    Name="CLSTRESC" OID="CL.CLSTRESC" Origin="COLLECTED" def:Label="Standardized Result in Character Format"/>
               <ItemDef Comment="Not populated" DataType="text"
                    Length="1" Name="CLRESCAT" OID="CL.CLRESCAT"
                    Origin="OTHER" def:Label="Result Category"/>
               <ItemDef Comment="" DataType="text" Length="1"
                    Name="CLSTAT" OID="CL.CLSTAT" Origin="COLLECTED" def:Label="Examination Status">
                    <CodeListRef CodeListOID="ND"/>
               </ItemDef>
               <ItemDef Comment="" DataType="text" Length="1"
                    Name="CLREASND" OID="CL.CLREASND" Origin="COLLECTED" def:Label="Reason Not Done"/>
               <ItemDef Comment="" DataType="text" Length="22"
                    Name="CLLOC" OID="CL.CLLOC" Origin="COLLECTED" def:Label="Location of a Finding"/>
               <ItemDef Comment="Not populated" DataType="text"
                    Length="1" Name="CLEVAL" OID="CL.CLEVAL"
                    Origin="OTHER" def:Label="Evaluator"/>
               <ItemDef Comment="" DataType="text" Length="6"
                    Name="CLSEV" OID="CL.CLSEV" Origin="COLLECTED" def:Label="Severity"/>
               <ItemDef Comment="Not populated" DataType="text"
                    Length="1" Name="CLEXCLFL" OID="CL.CLEXCLFL"
                    Origin="OTHER" def:Label="Exclusion Flag">
                    <CodeListRef CodeListOID="NY"/>
               </ItemDef>
               <ItemDef Comment="Not populated" DataType="text"
                    Length="1" Name="CLREASEX" OID="CL.CLREASEX"
                    Origin="OTHER" def:Label="Reason for Exclusion"/>
               <ItemDef Comment="" DataType="integer" Length="8"
                    Name="VISITDY" OID="CL.VISITDY" Origin="DERIVED"
                    def:ComputationMethodOID="COMPMETHOD.COMPVISITDY"
                    def:DisplayFormat="8.0" def:Label="Planned Study Day of Collection"/>
               <ItemDef Comment="" DataType="datetime" Length="19"
                    Name="CLDTC" OID="CL.CLDTC" Origin="COLLECTED" def:Label="Start Date/Time of Observation"/>
               <ItemDef Comment="" DataType="integer" Length="8"
                    Name="CLDY" OID="CL.CLDY" Origin="DERIVED"
                    def:ComputationMethodOID="COMPMETHOD.COMPDY"
                    def:DisplayFormat="8.0" def:Label="Study Day of Observation"/>
               <ItemDef Comment="" DataType="text" Length="1"
                    Name="CLTPT" OID="CL.CLTPT" Origin="COLLECTED" def:Label="Planned Time Point Name"/>
               <ItemDef Comment="" DataType="integer" Length="8"
                    Name="CLTPTNUM" OID="CL.CLTPTNUM" Origin="OTHER"
                    def:ComputationMethodOID="COMPMETHOD.COMPTPTNUM"
                    def:DisplayFormat="8.0" def:Label="Planned Time Point Number"/>
               <ItemDef Comment="Not populated" DataType="text"
                    Length="1" Name="CLELTM" OID="CL.CLELTM"
                    Origin="OTHER" def:Label="Planned Elapsed Time from Time Point Ref"/>
               <ItemDef Comment="Not populated" DataType="text"
                    Length="1" Name="CLTPTREF" OID="CL.CLTPTREF"
                    Origin="OTHER" def:Label="Time Point Reference"/>
               <ItemDef Comment="Not populated" DataType="datetime"
                    Length="1" Name="CLRFTDTC" OID="CL.CLRFTDTC"
                    Origin="OTHER" def:Label="Date/Time of Reference Time Point"/>
               <ItemDef Comment="" DataType="text" Length="6"
                    Name="STUDYID" OID="CO.STUDYID" Origin="OTHER" def:Label="Study Identifier"/>
               <ItemDef Comment="" DataType="text" Length="2"
                    Name="DOMAIN" OID="CO.DOMAIN" Origin="OTHER" def:Label="Domain Abbreviation">
                    <CodeListRef CodeListOID="DOMAIN"/>
               </ItemDef>
               <ItemDef Comment="" DataType="text" Length="2"
                    Name="RDOMAIN" OID="CO.RDOMAIN" Origin="OTHER" def:Label="Related Domain Abbreviation">
                    <CodeListRef CodeListOID="DOMAIN"/>
               </ItemDef>
               <ItemDef Comment="" DataType="text" Length="9"
                    Name="USUBJID" OID="CO.USUBJID" Origin="OTHER"
                    def:ComputationMethodOID="COMPMETHOD.COMPUSUBJID" def:Label="Unique Subject Identifier"/>
               <ItemDef Comment="" DataType="text" Length="1"
                    Name="POOLID" OID="CO.POOLID" Origin="OTHER" def:Label="Pool Identifier"/>
               <ItemDef Comment="" DataType="integer" Length="8"
                    Name="COSEQ" OID="CO.COSEQ" Origin="OTHER"
                    def:ComputationMethodOID="COMPMETHOD.COMPSEQ"
                    def:DisplayFormat="8.0" def:Label="Sequence Number"/>
               <ItemDef Comment="" DataType="text" Length="5"
                    Name="IDVAR" OID="CO.IDVAR" Origin="OTHER" def:Label="Identifying Variable"/>
               <ItemDef Comment="" DataType="text" Length="5"
                    Name="IDVARVAL" OID="CO.IDVARVAL" Origin="OTHER" def:Label="Identifying Variable Value"/>
               <ItemDef Comment="Not populated" DataType="text"
                    Length="1" Name="COREF" OID="CO.COREF"
                    Origin="OTHER" def:Label="Comment Reference"/>
               <ItemDef Comment="" DataType="text" Length="192"
                    Name="COVAL" OID="CO.COVAL" Origin="COLLECTED" def:Label="Comment"/>
               <ItemDef Comment="Not populated" DataType="text"
                    Length="1" Name="COEVAL" OID="CO.COEVAL"
                    Origin="OTHER" def:Label="Evaluator"/>
               <ItemDef Comment="" DataType="datetime" Length="1"
                    Name="CODTC" OID="CO.CODTC" Origin="COLLECTED" def:Label="Date/Time of Comment"/>
               <ItemDef Comment="" DataType="integer" Length="8"
                    Name="CODY" OID="CO.CODY" Origin="DERIVED"
                    def:ComputationMethodOID="COMPMETHOD.COMPDY"
                    def:DisplayFormat="8.0" def:Label="Study Day of Comment"/>
               <ItemDef Comment="" DataType="text" Length="6"
                    Name="STUDYID" OID="DD.STUDYID" Origin="OTHER" def:Label="Study Identifier"/>
               <ItemDef Comment="" DataType="text" Length="2"
                    Name="DOMAIN" OID="DD.DOMAIN" Origin="OTHER" def:Label="Domain Abbreviation">
                    <CodeListRef CodeListOID="DOMAIN"/>
               </ItemDef>
               <ItemDef Comment="" DataType="text" Length="9"
                    Name="USUBJID" OID="DD.USUBJID" Origin="OTHER"
                    def:ComputationMethodOID="COMPMETHOD.COMPUSUBJID" def:Label="Unique Subject Identifier"/>
               <ItemDef Comment="" DataType="integer" Length="8"
                    Name="DDSEQ" OID="DD.DDSEQ" Origin="OTHER"
                    def:ComputationMethodOID="COMPMETHOD.COMPSEQ"
                    def:DisplayFormat="8.0" def:Label="Sequence Number"/>
               <ItemDef
                    Comment="Mapped from test name used during data collection"
                    DataType="text" Length="6" Name="DDTESTCD"
                    OID="DD.DDTESTCD" Origin="DERIVED" def:Label="Death Diagnosis Short Name">
                    <CodeListRef CodeListOID="DDTESTCD"/>
                    <def:ValueListRef ValueListOID="ValueList.DD.DDTESTCD"/>
               </ItemDef>
               <ItemDef Comment="" DataType="text" Length="15"
                    Name="DDTEST" OID="DD.DDTEST" Origin="OTHER" def:Label="Death Diagnosis Name">
                    <CodeListRef CodeListOID="DDTEST"/>
               </ItemDef>
               <ItemDef Comment="" DataType="text" Length="66"
                    Name="DDORRES" OID="DD.DDORRES" Origin="COLLECTED" def:Label="Result or Findings as Collected"/>
               <ItemDef Comment="" DataType="text" Length="19"
                    Name="DDSTRESC" OID="DD.DDSTRESC" Origin="DERIVED"
                    def:ComputationMethodOID="COMPMETHOD.COMPSTRESC" def:Label="Standardized Result in Character Format"/>
               <ItemDef Comment="" DataType="text" Length="1"
                    Name="DDRESCAT" OID="DD.DDRESCAT" Origin="OTHER" def:Label="Result Category"/>
               <ItemDef Comment="Not populated" DataType="text"
                    Length="1" Name="DDEVAL" OID="DD.DDEVAL"
                    Origin="OTHER" def:Label="Evaluator"/>
               <ItemDef Comment="" DataType="datetime" Length="1"
                    Name="DDDTC" OID="DD.DDDTC" Origin="COLLECTED" def:Label="Date/time of Diagnosis"/>
               <ItemDef Comment="" DataType="integer" Length="8"
                    Name="DDDY" OID="DD.DDDY" Origin="DERIVED"
                    def:ComputationMethodOID="COMPMETHOD.COMPDY"
                    def:DisplayFormat="8.0" def:Label="Study Day of Diagnosis"/>
               <ItemDef Comment="" DataType="text" Length="6"
                    Name="STUDYID" OID="DM.STUDYID" Origin="OTHER" def:Label="Study Identifier"/>
               <ItemDef Comment="" DataType="text" Length="2"
                    Name="DOMAIN" OID="DM.DOMAIN" Origin="OTHER" def:Label="Domain Abbreviation">
                    <CodeListRef CodeListOID="DOMAIN"/>
               </ItemDef>
               <ItemDef Comment="" DataType="text" Length="9"
                    Name="USUBJID" OID="DM.USUBJID" Origin="OTHER"
                    def:ComputationMethodOID="COMPMETHOD.COMPUSUBJID" def:Label="Unique Subject Identifier"/>
               <ItemDef Comment="" DataType="text" Length="5"
                    Name="SUBJID" OID="DM.SUBJID" Origin="OTHER" def:Label="Subject Identifier for the Study"/>
               <ItemDef
                    Comment="Animal's start date of the dosing phase"
                    DataType="date" Length="10" Name="RFSTDTC"
                    OID="DM.RFSTDTC" Origin="COLLECTED" def:Label="Subject Reference Start Date/Time"/>
               <ItemDef
                    Comment="Animal's date of death on the study.  If animal did not die during the study this is the study end date."
                    DataType="datetime" Length="19" Name="RFENDTC"
                    OID="DM.RFENDTC" Origin="COLLECTED" def:Label="Subject Reference End Date/Time"/>
               <ItemDef Comment="Not populated" DataType="text"
                    Length="1" Name="SITEID" OID="DM.SITEID"
                    Origin="OTHER" def:Label="Study Site Identifier"/>
               <ItemDef Comment="" DataType="date" Length="10"
                    Name="BRTHDTC" OID="DM.BRTHDTC" Origin="COLLECTED" def:Label="Date/Time of Birth"/>
               <ItemDef Comment="" DataType="integer" Length="8"
                    Name="AGE" OID="DM.AGE" Origin="OTHER"
                    def:ComputationMethodOID="COMPMETHOD.COMPAGE"
                    def:DisplayFormat="8.0" def:Label="Age"/>
               <ItemDef
                    Comment="This is populated only if an age range rather than a specific age or birth date is recorded for the study animals"
                    DataType="text" Length="1" Name="AGETXT"
                    OID="DM.AGETXT" Origin="OTHER" def:Label="Age Range"/>
               <ItemDef Comment="" DataType="text" Length="4"
                    Name="AGEU" OID="DM.AGEU" Origin="OTHER" def:Label="Age Unit">
                    <CodeListRef CodeListOID="AGEU"/>
               </ItemDef>
               <ItemDef Comment="" DataType="text" Length="1" Name="SEX"
                    OID="DM.SEX" Origin="COLLECTED" def:Label="Sex">
                    <CodeListRef CodeListOID="SEX"/>
               </ItemDef>
               <ItemDef
                    Comment="If not populated, see the TS domain entry."
                    DataType="text" Length="1" Name="SPECIES"
                    OID="DM.SPECIES" Origin="OTHER" def:Label="Species">
                    <CodeListRef CodeListOID="SPECIES"/>
               </ItemDef>
               <ItemDef
                    Comment="If not populated, see the TS domain entry."
                    DataType="text" Length="1" Name="STRAIN"
                    OID="DM.STRAIN" Origin="OTHER" def:Label="Strain/Substrain">
                    <CodeListRef CodeListOID="STRAIN"/>
               </ItemDef>
               <ItemDef Comment="Not populated" DataType="text"
                    Length="1" Name="SBSTRAIN" OID="DM.SBSTRAIN"
                    Origin="OTHER" def:Label="Strain/Substrain Details"/>
               <ItemDef Comment="" DataType="text" Length="2"
                    Name="ARMCD" OID="DM.ARMCD" Origin="OTHER" def:Label="Planned Arm Code"/>
               <ItemDef Comment="" DataType="text" Length="26"
                    Name="ARM" OID="DM.ARM" Origin="OTHER" def:Label="Description of Planned Arm"/>
               <ItemDef Comment="" DataType="text" Length="2"
                    Name="SETCD" OID="DM.SETCD" Origin="OTHER" def:Label="Set Code"/>
               <ItemDef Comment="" DataType="text" Length="6"
                    Name="STUDYID" OID="DS.STUDYID" Origin="OTHER" def:Label="Study Identifier"/>
               <ItemDef Comment="" DataType="text" Length="2"
                    Name="DOMAIN" OID="DS.DOMAIN" Origin="OTHER" def:Label="Domain Abbreviation">
                    <CodeListRef CodeListOID="DOMAIN"/>
               </ItemDef>
               <ItemDef Comment="" DataType="text" Length="9"
                    Name="USUBJID" OID="DS.USUBJID" Origin="OTHER"
                    def:ComputationMethodOID="COMPMETHOD.COMPUSUBJID" def:Label="Unique Subject Identifier"/>
               <ItemDef Comment="" DataType="integer" Length="8"
                    Name="DSSEQ" OID="DS.DSSEQ" Origin="OTHER"
                    def:ComputationMethodOID="COMPMETHOD.COMPSEQ"
                    def:DisplayFormat="8.0" def:Label="Sequence Number"/>
               <ItemDef Comment="" DataType="text" Length="26"
                    Name="DSTERM" OID="DS.DSTERM" Origin="COLLECTED" def:Label="Reported Term for the Disposition Event"/>
               <ItemDef
                    Comment="Translated from collected DSTERM to controlled terminology"
                    DataType="text" Length="18" Name="DSDECOD"
                    OID="DS.DSDECOD" Origin="DERIVED" def:Label="Standardized Disposition Term">
                    <CodeListRef CodeListOID="DSDECOD"/>
               </ItemDef>
               <ItemDef Comment="" DataType="integer" Length="8"
                    Name="VISITDY" OID="DS.VISITDY" Origin="DERIVED"
                    def:ComputationMethodOID="COMPMETHOD.COMPVISITDY"
                    def:DisplayFormat="8.0" def:Label="Planned Study Day of Disposition"/>
               <ItemDef Comment="" DataType="datetime" Length="19"
                    Name="DSSTDTC" OID="DS.DSSTDTC" Origin="COLLECTED" def:Label="Date/Time of Disposition"/>
               <ItemDef Comment="" DataType="integer" Length="8"
                    Name="DSSTDY" OID="DS.DSSTDY" Origin="DERIVED"
                    def:ComputationMethodOID="COMPMETHOD.COMPSTDY"
                    def:DisplayFormat="8.0" def:Label="Study Day of Disposition"/>
               <ItemDef Comment="" DataType="text" Length="6"
                    Name="STUDYID" OID="EX.STUDYID" Origin="OTHER" def:Label="Study Identifier"/>
               <ItemDef Comment="" DataType="text" Length="2"
                    Name="DOMAIN" OID="EX.DOMAIN" Origin="OTHER" def:Label="Domain Abbreviation">
                    <CodeListRef CodeListOID="DOMAIN"/>
               </ItemDef>
               <ItemDef Comment="" DataType="text" Length="9"
                    Name="USUBJID" OID="EX.USUBJID" Origin="OTHER"
                    def:ComputationMethodOID="COMPMETHOD.COMPUSUBJID" def:Label="Unique Subject Identifier"/>
               <ItemDef Comment="Not populated" DataType="text"
                    Length="1" Name="POOLID" OID="EX.POOLID"
                    Origin="OTHER" def:Label="Pool Identifier"/>
               <ItemDef Comment="" DataType="integer" Length="8"
                    Name="EXSEQ" OID="EX.EXSEQ" Origin="OTHER"
                    def:ComputationMethodOID="COMPMETHOD.COMPSEQ"
                    def:DisplayFormat="8.0" def:Label="Sequence Number"/>
               <ItemDef Comment="" DataType="text" Length="9"
                    Name="EXTRT" OID="EX.EXTRT" Origin="OTHER" def:Label="Name of Actual Treatment"/>
               <ItemDef Comment="" DataType="integer" Length="8"
                    Name="EXDOSE" OID="EX.EXDOSE" Origin="COLLECTED"
                    def:ComputationMethodOID="COMPMETHOD.COMPDOSE"
                    def:DisplayFormat="8.0" def:Label="Dose per Administration"/>
               <ItemDef Comment="Not Populated" DataType="text"
                    Length="1" Name="EXDOSTXT" OID="EX.EXDOSTXT"
                    Origin="OTHER" def:Label="Dose Description"/>
               <ItemDef Comment="" DataType="text" Length="5"
                    Name="EXDOSU" OID="EX.EXDOSU" Origin="COLLECTED" def:Label="Dose Units">
                    <CodeListRef CodeListOID="UNIT"/>
               </ItemDef>
               <ItemDef Comment="" DataType="text" Length="10"
                    Name="EXDOSFRM" OID="EX.EXDOSFRM" Origin="OTHER" def:Label="Dose Form">
                    <CodeListRef CodeListOID="FRM"/>
               </ItemDef>
               <ItemDef Comment="" DataType="text" Length="2"
                    Name="EXDOSFRQ" OID="EX.EXDOSFRQ" Origin="OTHER" def:Label="Dosing Frequency Per Interval">
                    <CodeListRef CodeListOID="FREQ"/>
               </ItemDef>
               <ItemDef Comment="" DataType="text" Length="11"
                    Name="EXROUTE" OID="EX.EXROUTE" Origin="OTHER" def:Label="Route of Administration">
                    <CodeListRef CodeListOID="ROUTE"/>
               </ItemDef>
               <ItemDef Comment="" DataType="text" Length="7"
                    Name="EXLOT" OID="EX.EXLOT" Origin="COLLECTED" def:Label="Lot Number"/>
               <ItemDef Comment="" DataType="text" Length="1"
                    Name="EXLOC" OID="EX.EXLOC" Origin="COLLECTED" def:Label="Location of Dose Administration"/>
               <ItemDef Comment="Not populated" DataType="text"
                    Length="1" Name="EXMETHOD" OID="EX.EXMETHOD"
                    Origin="OTHER" def:Label="Method of Administration"/>
               <ItemDef Comment="" DataType="text" Length="41"
                    Name="EXTRTV" OID="EX.EXTRTV" Origin="OTHER" def:Label="Treatment Vehicle"/>
               <ItemDef Comment="" DataType="integer" Length="8"
                    Name="EXVAMT" OID="EX.EXVAMT" Origin="COLLECTED"
                    def:DisplayFormat="8.0" def:Label="Amount Administered"/>
               <ItemDef Comment="" DataType="text" Length="1"
                    Name="EXVAMTU" OID="EX.EXVAMTU" Origin="COLLECTED" def:Label="Amount Administered Units">
                    <CodeListRef CodeListOID="UNIT"/>
               </ItemDef>
               <ItemDef Comment="" DataType="text" Length="1"
                    Name="EXADJ" OID="EX.EXADJ" Origin="COLLECTED" def:Label="Reason for Dose Adjustment"/>
               <ItemDef Comment="" DataType="date" Length="10"
                    Name="EXSTDTC" OID="EX.EXSTDTC" Origin="COLLECTED" def:Label="Start Date/Time of Treatment"/>
               <ItemDef Comment="" DataType="date" Length="10"
                    Name="EXENDTC" OID="EX.EXENDTC" Origin="COLLECTED" def:Label="End Date/Time of Treatment"/>
               <ItemDef Comment="" DataType="integer" Length="8"
                    Name="EXSTDY" OID="EX.EXSTDY" Origin="DERIVED"
                    def:ComputationMethodOID="COMPMETHOD.COMPSTDY"
                    def:DisplayFormat="8.0" def:Label="Study Day of Start of Treatment"/>
               <ItemDef Comment="" DataType="integer" Length="8"
                    Name="EXENDY" OID="EX.EXENDY" Origin="DERIVED"
                    def:ComputationMethodOID="COMPMETHOD.COMPENDY"
                    def:DisplayFormat="8.0" def:Label="Study Day of End of Treatment"/>
               <ItemDef Comment="" DataType="text" Length="1"
                    Name="EXDUR" OID="EX.EXDUR" Origin="OTHER" def:Label="Duration of Treatment"/>
               <ItemDef Comment="" DataType="text" Length="1"
                    Name="EXTPT" OID="EX.EXTPT" Origin="COLLECTED" def:Label="Planned Time Point Name"/>
               <ItemDef Comment="" DataType="integer" Length="8"
                    Name="EXTPTNUM" OID="EX.EXTPTNUM" Origin="OTHER"
                    def:ComputationMethodOID="COMPMETHOD.COMPTPTNUM"
                    def:DisplayFormat="8.0" def:Label="Planned Time Point Number"/>
               <ItemDef Comment="Not populated" DataType="text"
                    Length="1" Name="EXELTM" OID="EX.EXELTM"
                    Origin="OTHER" def:Label="Planned Elapsed Time from Time Point Ref"/>
               <ItemDef Comment="Not populated" DataType="text"
                    Length="1" Name="EXTPTREF" OID="EX.EXTPTREF"
                    Origin="OTHER" def:Label="Time Point Reference"/>
               <ItemDef Comment="Not populated" DataType="datetime"
                    Length="1" Name="EXRFTDTC" OID="EX.EXRFTDTC"
                    Origin="OTHER" def:Label="Date/Time of Reference Time Point"/>
               <ItemDef Comment="" DataType="text" Length="6"
                    Name="STUDYID" OID="FW.STUDYID" Origin="OTHER" def:Label="Study Identifier"/>
               <ItemDef Comment="" DataType="text" Length="2"
                    Name="DOMAIN" OID="FW.DOMAIN" Origin="OTHER" def:Label="Domain Abbreviation">
                    <CodeListRef CodeListOID="DOMAIN"/>
               </ItemDef>
               <ItemDef Comment="" DataType="text" Length="9"
                    Name="USUBJID" OID="FW.USUBJID" Origin="OTHER"
                    def:ComputationMethodOID="COMPMETHOD.COMPUSUBJID" def:Label="Unique Subject Identifier"/>
               <ItemDef Comment="" DataType="text" Length="1"
                    Name="POOLID" OID="FW.POOLID" Origin="OTHER" def:Label="Pool Identifier"/>
               <ItemDef Comment="" DataType="integer" Length="8"
                    Name="FWSEQ" OID="FW.FWSEQ" Origin="OTHER"
                    def:ComputationMethodOID="COMPMETHOD.COMPSEQ"
                    def:DisplayFormat="8.0" def:Label="Sequence Number"/>
               <ItemDef Comment="Not populated" DataType="text"
                    Length="1" Name="FWGRPID" OID="FW.FWGRPID"
                    Origin="OTHER" def:Label="Group Identifier"/>
               <ItemDef
                    Comment="Mapped from test name used during data collection"
                    DataType="text" Length="2" Name="FWTESTCD"
                    OID="FW.FWTESTCD" Origin="DERIVED" def:Label="Food /Water Consumption Short Name">
                    <CodeListRef CodeListOID="FWTESTCD"/>
                    <def:ValueListRef ValueListOID="ValueList.FW.FWTESTCD"/>
               </ItemDef>
               <ItemDef Comment="" DataType="text" Length="17"
                    Name="FWTEST" OID="FW.FWTEST" Origin="OTHER" def:Label="Food /Water Consumption Name">
                    <CodeListRef CodeListOID="FWTEST"/>
               </ItemDef>
               <ItemDef Comment="" DataType="text" Length="5"
                    Name="FWORRES" OID="FW.FWORRES" Origin="COLLECTED" def:Label="Result or Findings as Collected"/>
               <ItemDef Comment="" DataType="text" Length="1"
                    Name="FWORRESU" OID="FW.FWORRESU" Origin="COLLECTED" def:Label="Unit of the Original Result">
                    <CodeListRef CodeListOID="UNIT"/>
               </ItemDef>
               <ItemDef Comment="" DataType="text" Length="5"
                    Name="FWSTRESC" OID="FW.FWSTRESC" Origin="DERIVED"
                    def:ComputationMethodOID="COMPMETHOD.COMPFWPERDAY" def:Label="Standardized Result in Character Format"/>
               <ItemDef Comment="" DataType="float" Length="8"
                    Name="FWSTRESN" OID="FW.FWSTRESN" Origin="DERIVED"
                    SignificantDigits="2"
                    def:ComputationMethodOID="COMPMETHOD.COMPSTRESN"
                    def:DisplayFormat="5.2" def:Label="Standardized Result in Numeric Format"/>
               <ItemDef Comment="FWORRESU/animal/day" DataType="text"
                    Length="12" Name="FWSTRESU" OID="FW.FWSTRESU"
                    Origin="OTHER" def:Label="Unit of the Standardized Result">
                    <CodeListRef CodeListOID="UNIT"/>
               </ItemDef>
               <ItemDef Comment="" DataType="text" Length="1"
                    Name="FWSTAT" OID="FW.FWSTAT" Origin="COLLECTED" def:Label="Completion Status">
                    <CodeListRef CodeListOID="ND"/>
               </ItemDef>
               <ItemDef Comment="" DataType="text" Length="1"
                    Name="FWREASND" OID="FW.FWREASND" Origin="COLLECTED" def:Label="Reason Not Done"/>
               <ItemDef Comment="" DataType="text" Length="1"
                    Name="FWEXCLFL" OID="FW.FWEXCLFL" Origin="COLLECTED" def:Label="Exclusion Flag">
                    <CodeListRef CodeListOID="NY"/>
               </ItemDef>
               <ItemDef Comment="" DataType="text" Length="1"
                    Name="FWREASEX" OID="FW.FWREASEX" Origin="COLLECTED" def:Label="Reason for Exclusion"/>
               <ItemDef Comment="" DataType="datetime" Length="19"
                    Name="FWDTC" OID="FW.FWDTC" Origin="COLLECTED" def:Label="Date/Time of Observation"/>
               <ItemDef Comment="" DataType="datetime" Length="19"
                    Name="FWENDTC" OID="FW.FWENDTC" Origin="COLLECTED" def:Label="End Date/Time of Observation"/>
               <ItemDef Comment="" DataType="integer" Length="8"
                    Name="FWDY" OID="FW.FWDY" Origin="DERIVED"
                    def:ComputationMethodOID="COMPMETHOD.COMPDY"
                    def:DisplayFormat="8.0" def:Label="Study Day of Observation"/>
               <ItemDef Comment="" DataType="integer" Length="8"
                    Name="FWENDY" OID="FW.FWENDY" Origin="DERIVED"
                    def:ComputationMethodOID="COMPMETHOD.COMPENDY"
                    def:DisplayFormat="8.0" def:Label="Study Day of End of Observation"/>
               <ItemDef Comment="" DataType="text" Length="6"
                    Name="STUDYID" OID="LB.STUDYID" Origin="OTHER" def:Label="Study Identifier"/>
               <ItemDef Comment="" DataType="text" Length="2"
                    Name="DOMAIN" OID="LB.DOMAIN" Origin="OTHER" def:Label="Domain Abbreviation">
                    <CodeListRef CodeListOID="DOMAIN"/>
               </ItemDef>
               <ItemDef Comment="" DataType="text" Length="9"
                    Name="USUBJID" OID="LB.USUBJID" Origin="OTHER"
                    def:ComputationMethodOID="COMPMETHOD.COMPUSUBJID" def:Label="Unique Subject Identifier"/>
               <ItemDef Comment="Not populated" DataType="text"
                    Length="1" Name="POOLID" OID="LB.POOLID"
                    Origin="OTHER" def:Label="Pool Identifier"/>
               <ItemDef Comment="" DataType="integer" Length="8"
                    Name="LBSEQ" OID="LB.LBSEQ" Origin="OTHER"
                    def:ComputationMethodOID="COMPMETHOD.COMPSEQ"
                    def:DisplayFormat="8.0" def:Label="Sequence Number"/>
               <ItemDef Comment="Not populated" DataType="text"
                    Length="1" Name="LBGRPID" OID="LB.LBGRPID"
                    Origin="OTHER" def:Label="Group Identifier"/>
               <ItemDef Comment="" DataType="text" Length="1"
                    Name="LBREFID" OID="LB.LBREFID" Origin="OTHER" def:Label="Specimen Identifier"/>
               <ItemDef Comment="Not populated" DataType="text"
                    Length="1" Name="LBSPID" OID="LB.LBSPID"
                    Origin="OTHER" def:Label="Sponsor-Defined Identifier"/>
               <ItemDef
                    Comment="Mapped from test name used during data collection"
                    DataType="text" Length="8" Name="LBTESTCD"
                    OID="LB.LBTESTCD" Origin="DERIVED" def:Label="Lab Test or Examination Short Name">
                    <CodeListRef CodeListOID="LBTESTCD"/>
               </ItemDef>
               <ItemDef Comment="" DataType="text" Length="39"
                    Name="LBTEST" OID="LB.LBTEST" Origin="OTHER" def:Label="Lab Test or Examination Name">
                    <CodeListRef CodeListOID="LBTEST"/>
               </ItemDef>
               <ItemDef
                    Comment="Mapped from the test name used during sample collection"
                    DataType="text" Length="15" Name="LBCAT"
                    OID="LB.LBCAT" Origin="OTHER" def:Label="Category for Lab Test">
                    <def:ValueListRef ValueListOID="ValueList.LB.LBCAT"/>
               </ItemDef>
               <ItemDef Comment="" DataType="text" Length="1"
                    Name="LBSCAT" OID="LB.LBSCAT" Origin="OTHER" def:Label="Subcategory for Lab Test"/>
               <ItemDef Comment="" DataType="text" Length="9"
                    Name="LBORRES" OID="LB.LBORRES" Origin="COLLECTED" def:Label="Result or Findings as Collected"/>
               <ItemDef Comment="" DataType="text" Length="7"
                    Name="LBORRESU" OID="LB.LBORRESU" Origin="COLLECTED" def:Label="Unit of the Original Result">
                    <CodeListRef CodeListOID="UNIT"/>
               </ItemDef>
               <ItemDef Comment="Not populated" DataType="text"
                    Length="1" Name="LBORNRLO" OID="LB.LBORNRLO"
                    Origin="OTHER" def:Label="Reference Range Lower Limit-Orig Unit"/>
               <ItemDef Comment="Not populated" DataType="text"
                    Length="1" Name="LBORNRHI" OID="LB.LBORNRHI"
                    Origin="OTHER" def:Label="Reference Range Upper Limit-Orig Unit"/>
               <ItemDef Comment="" DataType="text" Length="9"
                    Name="LBSTRESC" OID="LB.LBSTRESC" Origin="DERIVED"
                    def:ComputationMethodOID="COMPMETHOD.COMPSTRESC" def:Label="Standardized Result in Character Format"/>
               <ItemDef Comment="" DataType="float" Length="8"
                    Name="LBSTRESN" OID="LB.LBSTRESN" Origin="DERIVED"
                    SignificantDigits="3"
                    def:ComputationMethodOID="COMPMETHOD.COMPSTRESN"
                    def:DisplayFormat="8.3" def:Label="Standardized Result in Numeric Format"/>
               <ItemDef Comment="" DataType="text" Length="7"
                    Name="LBSTRESU" OID="LB.LBSTRESU" Origin="DERIVED"
                    def:ComputationMethodOID="COMPMETHOD.COMPSTRESU" def:Label="Unit of the Standardized Result">
                    <CodeListRef CodeListOID="UNIT"/>
               </ItemDef>
               <ItemDef Comment="Not populated" DataType="integer"
                    Length="8" Name="LBSTNRLO" OID="LB.LBSTNRLO"
                    Origin="OTHER" def:DisplayFormat="8.0" def:Label="Reference Range Lower Limit-Std Unit"/>
               <ItemDef Comment="Not populated" DataType="integer"
                    Length="8" Name="LBSTNRHI" OID="LB.LBSTNRHI"
                    Origin="OTHER" def:DisplayFormat="8.0" def:Label="Reference Range Upper Limit-Std Unit"/>
               <ItemDef Comment="Not populated" DataType="text"
                    Length="1" Name="LBSTNRC" OID="LB.LBSTNRC"
                    Origin="OTHER" def:Label="Reference Range for Char Rslt-Std Unit"/>
               <ItemDef Comment="Not populated" DataType="text"
                    Length="1" Name="LBNRIND" OID="LB.LBNRIND"
                    Origin="OTHER" def:Label="Reference Range Indicator"/>
               <ItemDef Comment="" DataType="text" Length="8"
                    Name="LBSTAT" OID="LB.LBSTAT" Origin="COLLECTED" def:Label="Completion Status">
                    <CodeListRef CodeListOID="ND"/>
               </ItemDef>
               <ItemDef Comment="" DataType="text" Length="47"
                    Name="LBREASND" OID="LB.LBREASND" Origin="COLLECTED" def:Label="Reason Not Done"/>
               <ItemDef Comment="Not populated" DataType="text"
                    Length="1" Name="LBNAM" OID="LB.LBNAM"
                    Origin="OTHER" def:Label="Vendor Name"/>
               <ItemDef
                    Comment="Derived from the test name used during sample collection"
                    DataType="text" Length="11" Name="LBSPEC"
                    OID="LB.LBSPEC" Origin="DERIVED" def:Label="Specimen Type">
                    <CodeListRef CodeListOID="SPEC"/>
               </ItemDef>
               <ItemDef Comment="Not populated" DataType="text"
                    Length="1" Name="LBANTREG" OID="LB.LBANTREG"
                    Origin="OTHER" def:Label="Anatomical Region of Specimen"/>
               <ItemDef Comment="" DataType="text" Length="1"
                    Name="LBSPCCND" OID="LB.LBSPCCND" Origin="OTHER" def:Label="Specimen Condition"/>
               <ItemDef Comment="" DataType="text" Length="1"
                    Name="LBSPCUFL" OID="LB.LBSPCUFL" Origin="OTHER" def:Label="Specimen Usability for the Test">
                    <CodeListRef CodeListOID="NY"/>
               </ItemDef>
               <ItemDef Comment="" DataType="text" Length="1"
                    Name="LBLOC" OID="LB.LBLOC" Origin="OTHER" def:Label="Specimen Collection Location"/>
               <ItemDef Comment="Not populated" DataType="text"
                    Length="1" Name="LBLAT" OID="LB.LBLAT"
                    Origin="OTHER" def:Label="Specimen Laterality within Subject">
                    <CodeListRef CodeListOID="LAT"/>
               </ItemDef>
               <ItemDef Comment="Not populated" DataType="text"
                    Length="1" Name="LBDIR" OID="LB.LBDIR"
                    Origin="OTHER" def:Label="Specimen Directionality within Subject"/>
               <ItemDef Comment="Not populated" DataType="text"
                    Length="1" Name="LBPORTOT" OID="LB.LBPORTOT"
                    Origin="OTHER" def:Label="Portion or Totality"/>
               <ItemDef Comment="" DataType="text" Length="18"
                    Name="LBMETHOD" OID="LB.LBMETHOD" Origin="OTHER" def:Label="Method of Test or Examination"/>
               <ItemDef Comment="" DataType="text" Length="1"
                    Name="LBBLFL" OID="LB.LBBLFL" Origin="DERIVED"
                    def:ComputationMethodOID="COMPMETHOD.COMPBLFL" def:Label="Baseline Flag">
                    <CodeListRef CodeListOID="NY"/>
               </ItemDef>
               <ItemDef Comment="" DataType="text" Length="1"
                    Name="LBFAST" OID="LB.LBFAST" Origin="COLLECTED" def:Label="Fasting Status">
                    <CodeListRef CodeListOID="NY"/>
               </ItemDef>
               <ItemDef Comment="" DataType="text" Length="1"
                    Name="LBDRVFL" OID="LB.LBDRVFL" Origin="OTHER" def:Label="Derived Flag">
                    <CodeListRef CodeListOID="NY"/>
               </ItemDef>
               <ItemDef Comment="Not populated" DataType="text"
                    Length="1" Name="LBTOX" OID="LB.LBTOX"
                    Origin="OTHER" def:Label="Toxicity"/>
               <ItemDef Comment="Not populated" DataType="text"
                    Length="1" Name="LBTOXGR" OID="LB.LBTOXGR"
                    Origin="OTHER" def:Label="Standard Toxicity Grade"/>
               <ItemDef Comment="" DataType="text" Length="1"
                    Name="LBEXCLFL" OID="LB.LBEXCLFL" Origin="COLLECTED" def:Label="Exclusion Flag">
                    <CodeListRef CodeListOID="NY"/>
               </ItemDef>
               <ItemDef Comment="" DataType="text" Length="1"
                    Name="LBREASEX" OID="LB.LBREASEX" Origin="COLLECTED" def:Label="Reason for Exclusion"/>
               <ItemDef Comment="" DataType="integer" Length="8"
                    Name="VISITDY" OID="LB.VISITDY" Origin="DERIVED"
                    def:ComputationMethodOID="COMPMETHOD.COMPVISITDY"
                    def:DisplayFormat="8.0" def:Label="Planned Study Day of Collection"/>
               <ItemDef Comment="" DataType="datetime" Length="19"
                    Name="LBDTC" OID="LB.LBDTC" Origin="COLLECTED" def:Label="Date/Time of Specimen Collection"/>
               <ItemDef Comment="" DataType="datetime" Length="1"
                    Name="LBENDTC" OID="LB.LBENDTC" Origin="COLLECTED" def:Label="End Date/Time of Specimen Collection"/>
               <ItemDef Comment="" DataType="integer" Length="8"
                    Name="LBDY" OID="LB.LBDY" Origin="DERIVED"
                    def:ComputationMethodOID="COMPMETHOD.COMPDY"
                    def:DisplayFormat="8.0" def:Label="Study Day of Specimen Collection"/>
               <ItemDef Comment="" DataType="integer" Length="8"
                    Name="LBENDY" OID="LB.LBENDY" Origin="DERIVED"
                    def:ComputationMethodOID="COMPMETHOD.COMPENDY"
                    def:DisplayFormat="8.0" def:Label="Study Day of End of Specimen Collection"/>
               <ItemDef Comment="" DataType="text" Length="1"
                    Name="LBTPT" OID="LB.LBTPT" Origin="COLLECTED" def:Label="Planned Time Point Name"/>
               <ItemDef Comment="" DataType="integer" Length="8"
                    Name="LBTPTNUM" OID="LB.LBTPTNUM" Origin="OTHER"
                    def:ComputationMethodOID="COMPMETHOD.COMPTPTNUM"
                    def:DisplayFormat="8.0" def:Label="Planned Time Point Number"/>
               <ItemDef Comment="Not populated" DataType="text"
                    Length="1" Name="LBELTM" OID="LB.LBELTM"
                    Origin="OTHER" def:Label="Planned Elapsed Time from Time Point Ref"/>
               <ItemDef Comment="" DataType="text" Length="1"
                    Name="LBTPTREF" OID="LB.LBTPTREF" Origin="OTHER" def:Label="Time Point Reference"/>
               <ItemDef Comment="Not populated" DataType="datetime"
                    Length="1" Name="LBRFTDTC" OID="LB.LBRFTDTC"
                    Origin="OTHER" def:Label="Date/Time of Reference Time Point"/>
               <ItemDef Comment="" DataType="text" Length="6"
                    Name="STUDYID" OID="MA.STUDYID" Origin="OTHER" def:Label="Study Identifier"/>
               <ItemDef Comment="" DataType="text" Length="2"
                    Name="DOMAIN" OID="MA.DOMAIN" Origin="OTHER" def:Label="Domain Abbreviation">
                    <CodeListRef CodeListOID="DOMAIN"/>
               </ItemDef>
               <ItemDef Comment="" DataType="text" Length="9"
                    Name="USUBJID" OID="MA.USUBJID" Origin="OTHER"
                    def:ComputationMethodOID="COMPMETHOD.COMPUSUBJID" def:Label="Unique Subject Identifier"/>
               <ItemDef Comment="" DataType="integer" Length="8"
                    Name="MASEQ" OID="MA.MASEQ" Origin="OTHER"
                    def:ComputationMethodOID="COMPMETHOD.COMPSEQ"
                    def:DisplayFormat="8.0" def:Label="Sequence Number"/>
               <ItemDef Comment="Not populated" DataType="text"
                    Length="1" Name="MAGRPID" OID="MA.MAGRPID"
                    Origin="OTHER" def:Label="Group Identifier"/>
               <ItemDef Comment="Not populated" DataType="text"
                    Length="1" Name="MAREFID" OID="MA.MAREFID"
                    Origin="OTHER" def:Label="Specimen Reference Identifier"/>
               <ItemDef Comment="" DataType="text" Length="6"
                    Name="MASPID" OID="MA.MASPID" Origin="COLLECTED" def:Label="Mass Identifier"/>
               <ItemDef
                    Comment="Mapped from test name used during data collection"
                    DataType="text" Length="8" Name="MATESTCD"
                    OID="MA.MATESTCD" Origin="DERIVED" def:Label="Macroscopic Examination Short Name">
                    <CodeListRef CodeListOID="MATESTCD"/>
                    <def:ValueListRef ValueListOID="ValueList.MA.MATESTCD"/>
               </ItemDef>
               <ItemDef Comment="" DataType="text" Length="30"
                    Name="MATEST" OID="MA.MATEST" Origin="OTHER" def:Label="Macroscopic Examination Name">
                    <CodeListRef CodeListOID="MATEST"/>
               </ItemDef>
               <ItemDef Comment="" DataType="text" Length="1"
                    Name="MABODSYS" OID="MA.MABODSYS" Origin="OTHER" def:Label="Body System or Organ Class"/>
               <ItemDef
                    Comment="A concatenation of the individual observation components collected"
                    DataType="text" Length="151" Name="MAORRES"
                    OID="MA.MAORRES" Origin="DERIVED" def:Label="Result or Findings as Collected"/>
               <ItemDef Comment="" DataType="text" Length="57"
                    Name="MASTRESC" OID="MA.MASTRESC" Origin="COLLECTED" def:Label="Standardized Result in Character Format"/>
               <ItemDef Comment="" DataType="text" Length="1"
                    Name="MASTAT" OID="MA.MASTAT" Origin="COLLECTED" def:Label="Examination Status">
                    <CodeListRef CodeListOID="ND"/>
               </ItemDef>
               <ItemDef Comment="" DataType="text" Length="1"
                    Name="MAREASND" OID="MA.MAREASND" Origin="COLLECTED" def:Label="Reason Not Done"/>
               <ItemDef Comment="Not populated" DataType="text"
                    Length="1" Name="MANAM" OID="MA.MANAM"
                    Origin="OTHER" def:Label="Laboratory Name"/>
               <ItemDef Comment="" DataType="text" Length="22"
                    Name="MASPEC" OID="MA.MASPEC" Origin="DERIVED"
                    def:ComputationMethodOID="COMPMETHOD.COMPTISSUE" def:Label="Specimen Material Type">
                    <CodeListRef CodeListOID="SPEC"/>
               </ItemDef>
               <ItemDef Comment="" DataType="text" Length="18"
                    Name="MAANTREG" OID="MA.MAANTREG" Origin="DERIVED"
                    def:ComputationMethodOID="COMPMETHOD.COMPTISSUE" def:Label="Anatomical Region of Specimen"/>
               <ItemDef Comment="" DataType="text" Length="1"
                    Name="MASPCCND" OID="MA.MASPCCND" Origin="OTHER" def:Label="Specimen Condition"/>
               <ItemDef Comment="" DataType="text" Length="1"
                    Name="MASPCUFL" OID="MA.MASPCUFL" Origin="OTHER" def:Label="Specimen Usability for the Test">
                    <CodeListRef CodeListOID="NY"/>
               </ItemDef>
               <ItemDef Comment="" DataType="text" Length="9"
                    Name="MALAT" OID="MA.MALAT" Origin="DERIVED"
                    def:ComputationMethodOID="COMPMETHOD.COMPTISSUE" def:Label="Specimen Laterality within Subject">
                    <CodeListRef CodeListOID="LAT"/>
               </ItemDef>
               <ItemDef Comment="" DataType="text" Length="1"
                    Name="MADIR" OID="MA.MADIR" Origin="DERIVED"
                    def:ComputationMethodOID="COMPMETHOD.COMPTISSUE" def:Label="Specimen Directionality within Subject"/>
               <ItemDef Comment="" DataType="text" Length="1"
                    Name="MAPORTOT" OID="MA.MAPORTOT" Origin="DERIVED"
                    def:ComputationMethodOID="COMPMETHOD.COMPTISSUE" def:Label="Portion or Totality"/>
               <ItemDef Comment="Not populated" DataType="text"
                    Length="1" Name="MAEVAL" OID="MA.MAEVAL"
                    Origin="OTHER" def:Label="Evaluator"/>
               <ItemDef Comment="" DataType="text" Length="8"
                    Name="MASEV" OID="MA.MASEV" Origin="COLLECTED" def:Label="Severity">
                    <CodeListRef CodeListOID="SEV"/>
               </ItemDef>
               <ItemDef Comment="" DataType="text" Length="1"
                    Name="MADTHREL" OID="MA.MADTHREL" Origin="COLLECTED" def:Label="Relationship to Death">
                    <CodeListRef CodeListOID="NY"/>
               </ItemDef>
               <ItemDef Comment="" DataType="date" Length="10"
                    Name="MADTC" OID="MA.MADTC" Origin="COLLECTED" def:Label="Date/Time of Collection"/>
               <ItemDef Comment="" DataType="integer" Length="8"
                    Name="MADY" OID="MA.MADY" Origin="DERIVED"
                    def:ComputationMethodOID="COMPMETHOD.COMPDY"
                    def:DisplayFormat="8.0" def:Label="Study Day of Specimen Collection"/>
               <ItemDef Comment="" DataType="text" Length="6"
                    Name="STUDYID" OID="MI.STUDYID" Origin="OTHER" def:Label="Study Identifier"/>
               <ItemDef Comment="" DataType="text" Length="2"
                    Name="DOMAIN" OID="MI.DOMAIN" Origin="OTHER" def:Label="Domain Abbreviation">
                    <CodeListRef CodeListOID="DOMAIN"/>
               </ItemDef>
               <ItemDef Comment="" DataType="text" Length="9"
                    Name="USUBJID" OID="MI.USUBJID" Origin="OTHER"
                    def:ComputationMethodOID="COMPMETHOD.COMPUSUBJID" def:Label="Unique Subject Identifier"/>
               <ItemDef Comment="" DataType="integer" Length="8"
                    Name="MISEQ" OID="MI.MISEQ" Origin="OTHER"
                    def:ComputationMethodOID="COMPMETHOD.COMPSEQ"
                    def:DisplayFormat="8.0" def:Label="Sequence Number"/>
               <ItemDef Comment="Not populated" DataType="text"
                    Length="1" Name="MIGRPID" OID="MI.MIGRPID"
                    Origin="OTHER" def:Label="Group Identifier"/>
               <ItemDef Comment="Not populated" DataType="text"
                    Length="1" Name="MIREFID" OID="MI.MIREFID"
                    Origin="OTHER" def:Label="Specimen Reference Identifier"/>
               <ItemDef Comment="" DataType="text" Length="6"
                    Name="MISPID" OID="MI.MISPID" Origin="COLLECTED" def:Label="Mass Identifier"/>
               <ItemDef
                    Comment="Mapped from test name used during data collection"
                    DataType="text" Length="6" Name="MITESTCD"
                    OID="MI.MITESTCD" Origin="DERIVED" def:Label="Microscopic Examination Short Name">
                    <CodeListRef CodeListOID="MITESTCD"/>
                    <def:ValueListRef ValueListOID="ValueList.MI.MITESTCD"/>
               </ItemDef>
               <ItemDef Comment="" DataType="text" Length="23"
                    Name="MITEST" OID="MI.MITEST" Origin="OTHER" def:Label="Microscopic Examination Name">
                    <CodeListRef CodeListOID="MITEST"/>
               </ItemDef>
               <ItemDef Comment="" DataType="text" Length="1"
                    Name="MIBODSYS" OID="MI.MIBODSYS" Origin="OTHER" def:Label="Body System or Organ Class"/>
               <ItemDef
                    Comment="A concatenation of the individual observation components collected"
                    DataType="text" Length="91" Name="MIORRES"
                    OID="MI.MIORRES" Origin="DERIVED" def:Label="Result or Findings as Collected"/>
               <ItemDef Comment="" DataType="text" Length="19"
                    Name="MISTRESC" OID="MI.MISTRESC" Origin="COLLECTED" def:Label="Standardized Result in Character Format">
                    <CodeListRef CodeListOID="NEOPLASM"/>
               </ItemDef>
               <ItemDef Comment="" DataType="text" Length="1"
                    Name="MIRESCAT" OID="MI.MIRESCAT" Origin="COLLECTED" def:Label="Result Category"/>
               <ItemDef Comment="" DataType="text" Length="8"
                    Name="MISTAT" OID="MI.MISTAT" Origin="COLLECTED" def:Label="Completion Status">
                    <CodeListRef CodeListOID="ND"/>
               </ItemDef>
               <ItemDef Comment="" DataType="text" Length="29"
                    Name="MIREASND" OID="MI.MIREASND" Origin="COLLECTED" def:Label="Reason Not Done"/>
               <ItemDef Comment="Not populated" DataType="text"
                    Length="1" Name="MINAM" OID="MI.MINAM"
                    Origin="OTHER" def:Label="Laboratory Name"/>
               <ItemDef Comment="" DataType="text" Length="30"
                    Name="MISPEC" OID="MI.MISPEC" Origin="DERIVED"
                    def:ComputationMethodOID="COMPMETHOD.COMPTISSUE" def:Label="Specimen Material Type">
                    <CodeListRef CodeListOID="SPEC"/>
               </ItemDef>
               <ItemDef Comment="" DataType="text" Length="1"
                    Name="MIANTREG" OID="MI.MIANTREG" Origin="DERIVED"
                    def:ComputationMethodOID="COMPMETHOD.COMPTISSUE" def:Label="Anatomical Region of Specimen"/>
               <ItemDef Comment="" DataType="text" Length="1"
                    Name="MISPCCND" OID="MI.MISPCCND" Origin="OTHER" def:Label="Specimen Condition"/>
               <ItemDef Comment="" DataType="text" Length="1"
                    Name="MISPCUFL" OID="MI.MISPCUFL" Origin="OTHER" def:Label="Specimen Usability for the Test">
                    <CodeListRef CodeListOID="NY"/>
               </ItemDef>
               <ItemDef Comment="" DataType="text" Length="1"
                    Name="MIMETHOD" OID="MI.MIMETHOD" Origin="OTHER" def:Label="Method of Test or Examination"/>
               <ItemDef Comment="" DataType="text" Length="9"
                    Name="MILAT" OID="MI.MILAT" Origin="DERIVED"
                    def:ComputationMethodOID="COMPMETHOD.COMPTISSUE" def:Label="Specimen Laterality within Subject">
                    <CodeListRef CodeListOID="LAT"/>
               </ItemDef>
               <ItemDef Comment="" DataType="text" Length="1"
                    Name="MIDIR" OID="MI.MIDIR" Origin="DERIVED"
                    def:ComputationMethodOID="COMPMETHOD.COMPTISSUE" def:Label="Specimen Directionality within Subject"/>
               <ItemDef Comment="Not populated" DataType="text"
                    Length="1" Name="MIEVAL" OID="MI.MIEVAL"
                    Origin="OTHER" def:Label="Evaluator"/>
               <ItemDef Comment="" DataType="text" Length="8"
                    Name="MISEV" OID="MI.MISEV" Origin="COLLECTED" def:Label="Severity">
                    <CodeListRef CodeListOID="SEV"/>
               </ItemDef>
               <ItemDef Comment="" DataType="text" Length="1"
                    Name="MIDTHREL" OID="MI.MIDTHREL" Origin="COLLECTED" def:Label="Relationship to Death">
                    <CodeListRef CodeListOID="NY"/>
               </ItemDef>
               <ItemDef Comment="" DataType="date" Length="10"
                    Name="MIDTC" OID="MI.MIDTC" Origin="COLLECTED" def:Label="Date/Time of Specimen Collection"/>
               <ItemDef Comment="" DataType="integer" Length="8"
                    Name="MIDY" OID="MI.MIDY" Origin="DERIVED"
                    def:ComputationMethodOID="COMPMETHOD.COMPDY"
                    def:DisplayFormat="8.0" def:Label="Study Day of Specimen Collection"/>
               <ItemDef Comment="" DataType="text" Length="6"
                    Name="STUDYID" OID="OM.STUDYID" Origin="OTHER" def:Label="Study Identifier"/>
               <ItemDef Comment="" DataType="text" Length="2"
                    Name="DOMAIN" OID="OM.DOMAIN" Origin="OTHER" def:Label="Domain Abbreviation">
                    <CodeListRef CodeListOID="DOMAIN"/>
               </ItemDef>
               <ItemDef Comment="" DataType="text" Length="9"
                    Name="USUBJID" OID="OM.USUBJID" Origin="OTHER"
                    def:ComputationMethodOID="COMPMETHOD.COMPUSUBJID" def:Label="Unique Subject Identifier"/>
               <ItemDef Comment="" DataType="integer" Length="8"
                    Name="OMSEQ" OID="OM.OMSEQ" Origin="OTHER"
                    def:ComputationMethodOID="COMPMETHOD.COMPSEQ"
                    def:DisplayFormat="8.0" def:Label="Sequence Number"/>
               <ItemDef
                    Comment="Mapped from test name used during data collection"
                    DataType="text" Length="6" Name="OMTESTCD"
                    OID="OM.OMTESTCD" Origin="DERIVED" def:Label="Test Short Name">
                    <CodeListRef CodeListOID="OMTESTCD"/>
                    <def:ValueListRef ValueListOID="ValueList.OM.OMTESTCD"/>
               </ItemDef>
               <ItemDef Comment="" DataType="text" Length="6"
                    Name="OMTEST" OID="OM.OMTEST" Origin="OTHER" def:Label="Test Name">
                    <CodeListRef CodeListOID="OMTEST"/>
               </ItemDef>
               <ItemDef Comment="" DataType="text" Length="6"
                    Name="OMORRES" OID="OM.OMORRES" Origin="COLLECTED" def:Label="Result or Findings as Collected"/>
               <ItemDef Comment="" DataType="text" Length="1"
                    Name="OMORRESU" OID="OM.OMORRESU" Origin="COLLECTED" def:Label="Unit of the Original Result">
                    <CodeListRef CodeListOID="UNIT"/>
               </ItemDef>
               <ItemDef Comment="" DataType="text" Length="6"
                    Name="OMSTRESC" OID="OM.OMSTRESC" Origin="DERIVED"
                    def:ComputationMethodOID="COMPMETHOD.COMPSTRESC" def:Label="Standardized Result in Character Format"/>
               <ItemDef Comment="" DataType="float" Length="8"
                    Name="OMSTRESN" OID="OM.OMSTRESN" Origin="DERIVED"
                    SignificantDigits="3"
                    def:ComputationMethodOID="COMPMETHOD.COMPSTRESN"
                    def:DisplayFormat="6.3" def:Label="Standardized Result in Numeric Format"/>
               <ItemDef Comment="" DataType="text" Length="1"
                    Name="OMSTRESU" OID="OM.OMSTRESU" Origin="DERIVED"
                    def:ComputationMethodOID="COMPMETHOD.COMPSTRESU" def:Label="Unit of the Standardized Result">
                    <CodeListRef CodeListOID="UNIT"/>
               </ItemDef>
               <ItemDef Comment="" DataType="text" Length="8"
                    Name="OMSTAT" OID="OM.OMSTAT" Origin="COLLECTED" def:Label="Finding Status">
                    <CodeListRef CodeListOID="ND"/>
               </ItemDef>
               <ItemDef Comment="" DataType="text" Length="45"
                    Name="OMREASND" OID="OM.OMREASND" Origin="COLLECTED" def:Label="Reason Not Done"/>
               <ItemDef Comment="" DataType="text" Length="16"
                    Name="OMSPEC" OID="OM.OMSPEC" Origin="DERIVED"
                    def:ComputationMethodOID="COMPMETHOD.COMPTISSUE" def:Label="Specimen Material Type">
                    <CodeListRef CodeListOID="SPEC"/>
               </ItemDef>
               <ItemDef Comment="" DataType="text" Length="1"
                    Name="OMANTREG" OID="OM.OMANTREG" Origin="DERIVED"
                    def:ComputationMethodOID="COMPMETHOD.COMPTISSUE" def:Label="Anatomical Region of Specimen"/>
               <ItemDef Comment="" DataType="text" Length="1"
                    Name="OMSPCCND" OID="OM.OMSPCCND" Origin="OTHER" def:Label="Specimen Condition"/>
               <ItemDef Comment="" DataType="text" Length="1"
                    Name="OMSPCUFL" OID="OM.OMSPCUFL" Origin="OTHER" def:Label="Specimen Usability for the Test">
                    <CodeListRef CodeListOID="NY"/>
               </ItemDef>
               <ItemDef Comment="" DataType="text" Length="9"
                    Name="OMLAT" OID="OM.OMLAT" Origin="DERIVED"
                    def:ComputationMethodOID="COMPMETHOD.COMPTISSUE" def:Label="Specimen Laterality within Subject">
                    <CodeListRef CodeListOID="LAT"/>
               </ItemDef>
               <ItemDef Comment="" DataType="text" Length="1"
                    Name="OMDIR" OID="OM.OMDIR" Origin="DERIVED"
                    def:ComputationMethodOID="COMPMETHOD.COMPTISSUE" def:Label="Specimen Directionality within Subject"/>
               <ItemDef Comment="" DataType="text" Length="1"
                    Name="OMPORTOT" OID="OM.OMPORTOT" Origin="DERIVED"
                    def:ComputationMethodOID="COMPMETHOD.COMPTISSUE" def:Label="Portion or Totality"/>
               <ItemDef Comment="" DataType="text" Length="1"
                    Name="OMEXCLFL" OID="OM.OMEXCLFL" Origin="COLLECTED" def:Label="Exclusion Flag">
                    <CodeListRef CodeListOID="NY"/>
               </ItemDef>
               <ItemDef Comment="" DataType="text" Length="40"
                    Name="OMREASEX" OID="OM.OMREASEX" Origin="COLLECTED" def:Label="Reason for Exclusion"/>
               <ItemDef Comment="" DataType="date" Length="10"
                    Name="OMDTC" OID="OM.OMDTC" Origin="COLLECTED" def:Label="Date/Time Organ Weighed"/>
               <ItemDef Comment="" DataType="integer" Length="8"
                    Name="OMDY" OID="OM.OMDY" Origin="DERIVED"
                    def:ComputationMethodOID="COMPMETHOD.COMPDY"
                    def:DisplayFormat="8.0" def:Label="Study Day of Weighing"/>
               <ItemDef Comment="" DataType="text" Length="6"
                    Name="STUDYID" OID="PC.STUDYID" Origin="OTHER" def:Label="Study Identifier"/>
               <ItemDef Comment="" DataType="text" Length="2"
                    Name="DOMAIN" OID="PC.DOMAIN" Origin="OTHER" def:Label="Domain Abbreviation">
                    <CodeListRef CodeListOID="DOMAIN"/>
               </ItemDef>
               <ItemDef Comment="" DataType="text" Length="9"
                    Name="USUBJID" OID="PC.USUBJID" Origin="OTHER"
                    def:ComputationMethodOID="COMPMETHOD.COMPUSUBJID" def:Label="Unique Subject Identifier"/>
               <ItemDef Comment="" DataType="text" Length="1"
                    Name="POOLID" OID="PC.POOLID" Origin="OTHER" def:Label="Pool Identifier"/>
               <ItemDef Comment="" DataType="integer" Length="8"
                    Name="PCSEQ" OID="PC.PCSEQ" Origin="OTHER"
                    def:ComputationMethodOID="COMPMETHOD.COMPSEQ"
                    def:DisplayFormat="8.0" def:Label="Sequence Number"/>
               <ItemDef Comment="Not populated" DataType="text"
                    Length="5" Name="PCGRPID" OID="PC.PCGRPID"
                    Origin="OTHER" def:Label="Group Identifier"/>
               <ItemDef Comment="" DataType="text" Length="12"
                    Name="PCREFID" OID="PC.PCREFID" Origin="OTHER" def:Label="Sample Identifier"/>
               <ItemDef Comment="" DataType="text" Length="1"
                    Name="PCSPID" OID="PC.PCSPID" Origin="OTHER" def:Label="Sponsor Identifier"/>
               <ItemDef
                    Comment="Mapped from test name used during data collection"
                    DataType="text" Length="8" Name="PCTESTCD"
                    OID="PC.PCTESTCD" Origin="DERIVED" def:Label="Test Short Name"/>
               <ItemDef Comment="" DataType="text" Length="9"
                    Name="PCTEST" OID="PC.PCTEST" Origin="OTHER" def:Label="Test Name"/>
               <ItemDef Comment="" DataType="text" Length="7"
                    Name="PCCAT" OID="PC.PCCAT" Origin="OTHER" def:Label="Test Category">
                    <def:ValueListRef ValueListOID="ValueList.PC.PCCAT"/>
               </ItemDef>
               <ItemDef Comment="Not populated" DataType="text"
                    Length="1" Name="PCSCAT" OID="PC.PCSCAT"
                    Origin="OTHER" def:Label="Test Subcategory"/>
               <ItemDef Comment="" DataType="text" Length="16"
                    Name="PCORRES" OID="PC.PCORRES" Origin="COLLECTED" def:Label="Result or Findings as Collected"/>
               <ItemDef Comment="" DataType="text" Length="5"
                    Name="PCORRESU" OID="PC.PCORRESU" Origin="COLLECTED" def:Label="Unit of the Original Result">
                    <CodeListRef CodeListOID="PKUNIT"/>
               </ItemDef>
               <ItemDef Comment="" DataType="text" Length="9"
                    Name="PCSTRESC" OID="PC.PCSTRESC" Origin="DERIVED"
                    def:ComputationMethodOID="COMPMETHOD.COMPSTRESC" def:Label="Standardized Result in Character Format"/>
               <ItemDef Comment="" DataType="float" Length="8"
                    Name="PCSTRESN" OID="PC.PCSTRESN" Origin="DERIVED"
                    SignificantDigits="11"
                    def:ComputationMethodOID="COMPMETHOD.COMPSTRESN"
                    def:DisplayFormat="17.11" def:Label="Standardized Result in Numeric Format"/>
               <ItemDef Comment="" DataType="text" Length="5"
                    Name="PCSTRESU" OID="PC.PCSTRESU" Origin="DERIVED"
                    def:ComputationMethodOID="COMPMETHOD.COMPSTRESU" def:Label="Unit of the Standardized Result">
                    <CodeListRef CodeListOID="PKUNIT"/>
               </ItemDef>
               <ItemDef Comment="" DataType="text" Length="1"
                    Name="PCSTAT" OID="PC.PCSTAT" Origin="COLLECTED" def:Label="Completion Status">
                    <CodeListRef CodeListOID="ND"/>
               </ItemDef>
               <ItemDef Comment="" DataType="text" Length="1"
                    Name="PCREASND" OID="PC.PCREASND" Origin="COLLECTED" def:Label="Reason Not Done"/>
               <ItemDef Comment="Not populated" DataType="text"
                    Length="1" Name="PCNAM" OID="PC.PCNAM"
                    Origin="OTHER" def:Label="Vendor Name"/>
               <ItemDef Comment="" DataType="text" Length="6"
                    Name="PCSPEC" OID="PC.PCSPEC" Origin="DERIVED"
                    def:ComputationMethodOID="COMPMETHOD.COMPTISSUE" def:Label="Specimen Material Type">
                    <CodeListRef CodeListOID="SPEC"/>
               </ItemDef>
               <ItemDef Comment="" DataType="text" Length="1"
                    Name="PCSPCCND" OID="PC.PCSPCCND" Origin="COLLECTED" def:Label="Specimen Condition"/>
               <ItemDef Comment="" DataType="text" Length="1"
                    Name="PCMETHOD" OID="PC.PCMETHOD" Origin="OTHER" def:Label="Method of Test or Examination"/>
               <ItemDef Comment="" DataType="text" Length="1"
                    Name="PCBLFL" OID="PC.PCBLFL" Origin="DERIVED"
                    def:ComputationMethodOID="COMPMETHOD.COMPBLFL" def:Label="Baseline Flag">
                    <CodeListRef CodeListOID="NY"/>
               </ItemDef>
               <ItemDef Comment="" DataType="text" Length="1"
                    Name="PCFAST" OID="PC.PCFAST" Origin="COLLECTED" def:Label="Fasting Status">
                    <CodeListRef CodeListOID="NY"/>
               </ItemDef>
               <ItemDef Comment="" DataType="text" Length="1"
                    Name="PCDRVFL" OID="PC.PCDRVFL" Origin="OTHER" def:Label="Derived Flag">
                    <CodeListRef CodeListOID="NY"/>
               </ItemDef>
               <ItemDef Comment="" DataType="integer" Length="8"
                    Name="PCLLOQ" OID="PC.PCLLOQ" Origin="OTHER"
                    def:DisplayFormat="8.0" def:Label="Lower Limit of Quantitation"/>
               <ItemDef Comment="" DataType="text" Length="1"
                    Name="PCEXCLFL" OID="PC.PCEXCLFL" Origin="COLLECTED" def:Label="Exclusion Flag">
                    <CodeListRef CodeListOID="NY"/>
               </ItemDef>
               <ItemDef Comment="" DataType="text" Length="1"
                    Name="PCREASEX" OID="PC.PCREASEX" Origin="COLLECTED" def:Label="Reason for Exclusion"/>
               <ItemDef Comment="" DataType="integer" Length="8"
                    Name="VISITDY" OID="PC.VISITDY" Origin="DERIVED"
                    def:ComputationMethodOID="COMPMETHOD.COMPVISITDY"
                    def:DisplayFormat="8.0" def:Label="Visit Day"/>
               <ItemDef Comment="" DataType="date" Length="10"
                    Name="PCDTC" OID="PC.PCDTC" Origin="COLLECTED" def:Label="Date/Time of Specimen Collection"/>
               <ItemDef Comment="" DataType="datetime" Length="1"
                    Name="PCENDTC" OID="PC.PCENDTC" Origin="COLLECTED" def:Label="End Date/Time of Specimen Collection"/>
               <ItemDef Comment="" DataType="integer" Length="8"
                    Name="PCDY" OID="PC.PCDY" Origin="DERIVED"
                    def:ComputationMethodOID="COMPMETHOD.COMPDY"
                    def:DisplayFormat="8.0" def:Label="Study Day of Specimen Collection"/>
               <ItemDef Comment="" DataType="integer" Length="8"
                    Name="PCENDY" OID="PC.PCENDY" Origin="DERIVED"
                    def:ComputationMethodOID="COMPMETHOD.COMPENDY"
                    def:DisplayFormat="8.0" def:Label="Study Day of End of Specimen Collection"/>
               <ItemDef Comment="" DataType="text" Length="14"
                    Name="PCTPT" OID="PC.PCTPT" Origin="COLLECTED" def:Label="Planned Time Point Name"/>
               <ItemDef Comment="" DataType="float" Length="8"
                    Name="PCTPTNUM" OID="PC.PCTPTNUM" Origin="OTHER"
                    SignificantDigits="2"
                    def:ComputationMethodOID="COMPMETHOD.COMPTPTNUM"
                    def:DisplayFormat="6.2" def:Label="Planned Time Point Number"/>
               <ItemDef Comment="" DataType="text" Length="5"
                    Name="PCELTM" OID="PC.PCELTM" Origin="DERIVED" def:Label="Planned Elapsed Time from Time Point Ref"/>
               <ItemDef Comment="" DataType="text" Length="11"
                    Name="PCTPTREF" OID="PC.PCTPTREF" Origin="OTHER" def:Label="Time Point Reference"/>
               <ItemDef Comment="" DataType="date" Length="10"
                    Name="PCRFTDTC" OID="PC.PCRFTDTC" Origin="COLLECTED" def:Label="Date/Time of Reference Point"/>
               <ItemDef Comment="" DataType="text" Length="1"
                    Name="PCEVLINT" OID="PC.PCEVLINT" Origin="OTHER" def:Label="Evaluation Interval"/>
               <ItemDef Comment="" DataType="text" Length="6"
