"STUDYID","DOMAIN","USUBJID","POOLID","EXSEQ","EXTRT","EXDOSE","EXDOSTXT","EXDOSU","EXDOSFRM","EXDOSFRQ","EXROUTE","EXLOT","EXLOC","EXMETHOD","EXTRTV","EXVAMT","EXVAMTU","EXADJ","EXSTDTC","EXENDTC","EXSTDY","EXENDY","EXDUR","EXTPT","EXTPTNUM","EXELTM","EXTPTREF","EXRFTDTC"
"GLP003","EX","107001493",NA,1,"XYZ-12345",0,NA,"mg/kg","SUSPENSION","QD","ORAL GAVAGE",NA,NA,NA,"35% HP-ß-CD, 0.1% Tween 80, in 0.063M HCl",NA,NA,NA,"2007-06-12","2007-07-09",1,28,NA,NA,NA,NA,NA,NA
"GLP003","EX","107001427",NA,2,"XYZ-12345",0,NA,"mg/kg","SUSPENSION","QD","ORAL GAVAGE",NA,NA,NA,"35% HP-ß-CD, 0.1% Tween 80, in 0.063M HCl",NA,NA,NA,"2007-06-12","2007-07-09",1,28,NA,NA,NA,NA,NA,NA
"GLP003","EX","107001458",NA,3,"XYZ-12345",0,NA,"mg/kg","SUSPENSION","QD","ORAL GAVAGE",NA,NA,NA,"35% HP-ß-CD, 0.1% Tween 80, in 0.063M HCl",NA,NA,NA,"2007-06-12","2007-07-09",1,28,NA,NA,NA,NA,NA,NA
"GLP003","EX","107001389",NA,4,"XYZ-12345",0,NA,"mg/kg","SUSPENSION","QD","ORAL GAVAGE",NA,NA,NA,"35% HP-ß-CD, 0.1% Tween 80, in 0.063M HCl",NA,NA,NA,"2007-06-12","2007-07-09",1,28,NA,NA,NA,NA,NA,NA
"GLP003","EX","107001377",NA,5,"XYZ-12345",0,NA,"mg/kg","SUSPENSION","QD","ORAL GAVAGE",NA,NA,NA,"35% HP-ß-CD, 0.1% Tween 80, in 0.063M HCl",NA,NA,NA,"2007-06-12","2007-07-09",1,28,NA,NA,NA,NA,NA,NA
"GLP003","EX","107001472",NA,6,"XYZ-12345",0,NA,"mg/kg","SUSPENSION","QD","ORAL GAVAGE",NA,NA,NA,"35% HP-ß-CD, 0.1% Tween 80, in 0.063M HCl",NA,NA,NA,"2007-06-12","2007-07-10",1,29,NA,NA,NA,NA,NA,NA
"GLP003","EX","107001401",NA,7,"XYZ-12345",0,NA,"mg/kg","SUSPENSION","QD","ORAL GAVAGE",NA,NA,NA,"35% HP-ß-CD, 0.1% Tween 80, in 0.063M HCl",NA,NA,NA,"2007-06-12","2007-07-10",1,29,NA,NA,NA,NA,NA,NA
"GLP003","EX","107001466",NA,8,"XYZ-12345",0,NA,"mg/kg","SUSPENSION","QD","ORAL GAVAGE",NA,NA,NA,"35% HP-ß-CD, 0.1% Tween 80, in 0.063M HCl",NA,NA,NA,"2007-06-12","2007-07-10",1,29,NA,NA,NA,NA,NA,NA
"GLP003","EX","107001428",NA,9,"XYZ-12345",0,NA,"mg/kg","SUSPENSION","QD","ORAL GAVAGE",NA,NA,NA,"35% HP-ß-CD, 0.1% Tween 80, in 0.063M HCl",NA,NA,NA,"2007-06-12","2007-07-10",1,29,NA,NA,NA,NA,NA,NA
"GLP003","EX","107001483",NA,10,"XYZ-12345",0,NA,"mg/kg","SUSPENSION","QD","ORAL GAVAGE",NA,NA,NA,"35% HP-ß-CD, 0.1% Tween 80, in 0.063M HCl",NA,NA,NA,"2007-06-12","2007-07-10",1,29,NA,NA,NA,NA,NA,NA
"GLP003","EX","107001397",NA,11,"XYZ-12345",0,NA,"mg/kg","SUSPENSION","QD","ORAL GAVAGE",NA,NA,NA,"35% HP-ß-CD, 0.1% Tween 80, in 0.063M HCl",NA,NA,NA,"2007-06-12","2007-07-09",1,28,NA,NA,NA,NA,NA,NA
"GLP003","EX","107001467",NA,12,"XYZ-12345",0,NA,"mg/kg","SUSPENSION","QD","ORAL GAVAGE",NA,NA,NA,"35% HP-ß-CD, 0.1% Tween 80, in 0.063M HCl",NA,NA,NA,"2007-06-12","2007-07-09",1,28,NA,NA,NA,NA,NA,NA
"GLP003","EX","107001387",NA,13,"XYZ-12345",0,NA,"mg/kg","SUSPENSION","QD","ORAL GAVAGE",NA,NA,NA,"35% HP-ß-CD, 0.1% Tween 80, in 0.063M HCl",NA,NA,NA,"2007-06-12","2007-07-09",1,28,NA,NA,NA,NA,NA,NA
"GLP003","EX","107001384",NA,14,"XYZ-12345",0,NA,"mg/kg","SUSPENSION","QD","ORAL GAVAGE",NA,NA,NA,"35% HP-ß-CD, 0.1% Tween 80, in 0.063M HCl",NA,NA,NA,"2007-06-12","2007-07-09",1,28,NA,NA,NA,NA,NA,NA
"GLP003","EX","107001423",NA,15,"XYZ-12345",0,NA,"mg/kg","SUSPENSION","QD","ORAL GAVAGE",NA,NA,NA,"35% HP-ß-CD, 0.1% Tween 80, in 0.063M HCl",NA,NA,NA,"2007-06-12","2007-07-09",1,28,NA,NA,NA,NA,NA,NA
"GLP003","EX","107001529",NA,16,"XYZ-12345",0,NA,"mg/kg","SUSPENSION","QD","ORAL GAVAGE",NA,NA,NA,"35% HP-ß-CD, 0.1% Tween 80, in 0.063M HCl",NA,NA,NA,"2007-06-14","2007-07-11",1,28,NA,NA,NA,NA,NA,NA
"GLP003","EX","107001528",NA,17,"XYZ-12345",0,NA,"mg/kg","SUSPENSION","QD","ORAL GAVAGE",NA,NA,NA,"35% HP-ß-CD, 0.1% Tween 80, in 0.063M HCl",NA,NA,NA,"2007-06-14","2007-07-11",1,28,NA,NA,NA,NA,NA,NA
"GLP003","EX","107001576",NA,18,"XYZ-12345",0,NA,"mg/kg","SUSPENSION","QD","ORAL GAVAGE",NA,NA,NA,"35% HP-ß-CD, 0.1% Tween 80, in 0.063M HCl",NA,NA,NA,"2007-06-14","2007-07-11",1,28,NA,NA,NA,NA,NA,NA
"GLP003","EX","107001616",NA,19,"XYZ-12345",0,NA,"mg/kg","SUSPENSION","QD","ORAL GAVAGE",NA,NA,NA,"35% HP-ß-CD, 0.1% Tween 80, in 0.063M HCl",NA,NA,NA,"2007-06-14","2007-07-11",1,28,NA,NA,NA,NA,NA,NA
"GLP003","EX","107001500",NA,20,"XYZ-12345",0,NA,"mg/kg","SUSPENSION","QD","ORAL GAVAGE",NA,NA,NA,"35% HP-ß-CD, 0.1% Tween 80, in 0.063M HCl",NA,NA,NA,"2007-06-14","2007-07-11",1,28,NA,NA,NA,NA,NA,NA
"GLP003","EX","107001535",NA,21,"XYZ-12345",0,NA,"mg/kg","SUSPENSION","QD","ORAL GAVAGE",NA,NA,NA,"35% HP-ß-CD, 0.1% Tween 80, in 0.063M HCl",NA,NA,NA,"2007-06-14","2007-07-12",1,29,NA,NA,NA,NA,NA,NA
"GLP003","EX","107001647",NA,22,"XYZ-12345",0,NA,"mg/kg","SUSPENSION","QD","ORAL GAVAGE",NA,NA,NA,"35% HP-ß-CD, 0.1% Tween 80, in 0.063M HCl",NA,NA,NA,"2007-06-14","2007-07-12",1,29,NA,NA,NA,NA,NA,NA
"GLP003","EX","107001592",NA,23,"XYZ-12345",0,NA,"mg/kg","SUSPENSION","QD","ORAL GAVAGE",NA,NA,NA,"35% HP-ß-CD, 0.1% Tween 80, in 0.063M HCl",NA,NA,NA,"2007-06-14","2007-07-12",1,29,NA,NA,NA,NA,NA,NA
"GLP003","EX","107001569",NA,24,"XYZ-12345",0,NA,"mg/kg","SUSPENSION","QD","ORAL GAVAGE",NA,NA,NA,"35% HP-ß-CD, 0.1% Tween 80, in 0.063M HCl",NA,NA,NA,"2007-06-14","2007-07-12",1,29,NA,NA,NA,NA,NA,NA
"GLP003","EX","107001537",NA,25,"XYZ-12345",0,NA,"mg/kg","SUSPENSION","QD","ORAL GAVAGE",NA,NA,NA,"35% HP-ß-CD, 0.1% Tween 80, in 0.063M HCl",NA,NA,NA,"2007-06-14","2007-07-12",1,29,NA,NA,NA,NA,NA,NA
"GLP003","EX","107001594",NA,26,"XYZ-12345",0,NA,"mg/kg","SUSPENSION","QD","ORAL GAVAGE",NA,NA,NA,"35% HP-ß-CD, 0.1% Tween 80, in 0.063M HCl",NA,NA,NA,"2007-06-14","2007-07-11",1,28,NA,NA,NA,NA,NA,NA
"GLP003","EX","107001619",NA,27,"XYZ-12345",0,NA,"mg/kg","SUSPENSION","QD","ORAL GAVAGE",NA,NA,NA,"35% HP-ß-CD, 0.1% Tween 80, in 0.063M HCl",NA,NA,NA,"2007-06-14","2007-07-11",1,28,NA,NA,NA,NA,NA,NA
"GLP003","EX","107001518",NA,28,"XYZ-12345",0,NA,"mg/kg","SUSPENSION","QD","ORAL GAVAGE",NA,NA,NA,"35% HP-ß-CD, 0.1% Tween 80, in 0.063M HCl",NA,NA,NA,"2007-06-14","2007-07-11",1,28,NA,NA,NA,NA,NA,NA
"GLP003","EX","107001538",NA,29,"XYZ-12345",0,NA,"mg/kg","SUSPENSION","QD","ORAL GAVAGE",NA,NA,NA,"35% HP-ß-CD, 0.1% Tween 80, in 0.063M HCl",NA,NA,NA,"2007-06-14","2007-07-11",1,28,NA,NA,NA,NA,NA,NA
"GLP003","EX","107001581",NA,30,"XYZ-12345",0,NA,"mg/kg","SUSPENSION","QD","ORAL GAVAGE",NA,NA,NA,"35% HP-ß-CD, 0.1% Tween 80, in 0.063M HCl",NA,NA,NA,"2007-06-14","2007-07-11",1,28,NA,NA,NA,NA,NA,NA
"GLP003","EX","107001469",NA,31,"XYZ-12345",0,NA,"mg/kg","SUSPENSION","QD","ORAL GAVAGE",NA,NA,NA,"Water",NA,NA,NA,"2007-06-12","2007-07-09",1,28,NA,NA,NA,NA,NA,NA
"GLP003","EX","107001425",NA,32,"XYZ-12345",0,NA,"mg/kg","SUSPENSION","QD","ORAL GAVAGE",NA,NA,NA,"Water",NA,NA,NA,"2007-06-12","2007-07-09",1,28,NA,NA,NA,NA,NA,NA
"GLP003","EX","107001440",NA,33,"XYZ-12345",0,NA,"mg/kg","SUSPENSION","QD","ORAL GAVAGE",NA,NA,NA,"Water",NA,NA,NA,"2007-06-12","2007-07-09",1,28,NA,NA,NA,NA,NA,NA
"GLP003","EX","107001419",NA,34,"XYZ-12345",0,NA,"mg/kg","SUSPENSION","QD","ORAL GAVAGE",NA,NA,NA,"Water",NA,NA,NA,"2007-06-12","2007-07-09",1,28,NA,NA,NA,NA,NA,NA
"GLP003","EX","107001437",NA,35,"XYZ-12345",0,NA,"mg/kg","SUSPENSION","QD","ORAL GAVAGE",NA,NA,NA,"Water",NA,NA,NA,"2007-06-12","2007-07-09",1,28,NA,NA,NA,NA,NA,NA
"GLP003","EX","107001415",NA,36,"XYZ-12345",0,NA,"mg/kg","SUSPENSION","QD","ORAL GAVAGE",NA,NA,NA,"Water",NA,NA,NA,"2007-06-12","2007-07-10",1,29,NA,NA,NA,NA,NA,NA
"GLP003","EX","107001368",NA,37,"XYZ-12345",0,NA,"mg/kg","SUSPENSION","QD","ORAL GAVAGE",NA,NA,NA,"Water",NA,NA,NA,"2007-06-12","2007-06-16",1,5,NA,NA,NA,NA,NA,NA
"GLP003","EX","107001455",NA,38,"XYZ-12345",0,NA,"mg/kg","SUSPENSION","QD","ORAL GAVAGE",NA,NA,NA,"Water",NA,NA,NA,"2007-06-12","2007-07-10",1,29,NA,NA,NA,NA,NA,NA
"GLP003","EX","107001470",NA,39,"XYZ-12345",0,NA,"mg/kg","SUSPENSION","QD","ORAL GAVAGE",NA,NA,NA,"Water",NA,NA,NA,"2007-06-12","2007-07-10",1,29,NA,NA,NA,NA,NA,NA
"GLP003","EX","107001456",NA,40,"XYZ-12345",0,NA,"mg/kg","SUSPENSION","QD","ORAL GAVAGE",NA,NA,NA,"Water",NA,NA,NA,"2007-06-12","2007-07-10",1,29,NA,NA,NA,NA,NA,NA
"GLP003","EX","107001351",NA,41,"XYZ-12345",0,NA,"mg/kg","SUSPENSION","QD","ORAL GAVAGE",NA,NA,NA,"Water",NA,NA,NA,"2007-06-12","2007-07-09",1,28,NA,NA,NA,NA,NA,NA
"GLP003","EX","107001382",NA,42,"XYZ-12345",0,NA,"mg/kg","SUSPENSION","QD","ORAL GAVAGE",NA,NA,NA,"Water",NA,NA,NA,"2007-06-12","2007-07-09",1,28,NA,NA,NA,NA,NA,NA
"GLP003","EX","107001362",NA,43,"XYZ-12345",0,NA,"mg/kg","SUSPENSION","QD","ORAL GAVAGE",NA,NA,NA,"Water",NA,NA,NA,"2007-06-12","2007-07-09",1,28,NA,NA,NA,NA,NA,NA
"GLP003","EX","107001363",NA,44,"XYZ-12345",0,NA,"mg/kg","SUSPENSION","QD","ORAL GAVAGE",NA,NA,NA,"Water",NA,NA,NA,"2007-06-12","2007-07-09",1,28,NA,NA,NA,NA,NA,NA
"GLP003","EX","107001473",NA,45,"XYZ-12345",0,NA,"mg/kg","SUSPENSION","QD","ORAL GAVAGE",NA,NA,NA,"Water",NA,NA,NA,"2007-06-12","2007-07-09",1,28,NA,NA,NA,NA,NA,NA
"GLP003","EX","107001525",NA,46,"XYZ-12345",0,NA,"mg/kg","SUSPENSION","QD","ORAL GAVAGE",NA,NA,NA,"Water",NA,NA,NA,"2007-06-14","2007-07-11",1,28,NA,NA,NA,NA,NA,NA
"GLP003","EX","107001541",NA,47,"XYZ-12345",0,NA,"mg/kg","SUSPENSION","QD","ORAL GAVAGE",NA,NA,NA,"Water",NA,NA,NA,"2007-06-14","2007-07-11",1,28,NA,NA,NA,NA,NA,NA
"GLP003","EX","107001579",NA,48,"XYZ-12345",0,NA,"mg/kg","SUSPENSION","QD","ORAL GAVAGE",NA,NA,NA,"Water",NA,NA,NA,"2007-06-14","2007-07-11",1,28,NA,NA,NA,NA,NA,NA
"GLP003","EX","107001534",NA,49,"XYZ-12345",0,NA,"mg/kg","SUSPENSION","QD","ORAL GAVAGE",NA,NA,NA,"Water",NA,NA,NA,"2007-06-14","2007-07-11",1,28,NA,NA,NA,NA,NA,NA
"GLP003","EX","107001629",NA,50,"XYZ-12345",0,NA,"mg/kg","SUSPENSION","QD","ORAL GAVAGE",NA,NA,NA,"Water",NA,NA,NA,"2007-06-14","2007-06-20",1,7,NA,NA,NA,NA,NA,NA
"GLP003","EX","107001511",NA,51,"XYZ-12345",0,NA,"mg/kg","SUSPENSION","QD","ORAL GAVAGE",NA,NA,NA,"Water",NA,NA,NA,"2007-06-14","2007-07-11",1,28,NA,NA,NA,NA,NA,NA
"GLP003","EX","107001620",NA,52,"XYZ-12345",0,NA,"mg/kg","SUSPENSION","QD","ORAL GAVAGE",NA,NA,NA,"Water",NA,NA,NA,"2007-06-14","2007-07-12",1,29,NA,NA,NA,NA,NA,NA
"GLP003","EX","107001641",NA,53,"XYZ-12345",0,NA,"mg/kg","SUSPENSION","QD","ORAL GAVAGE",NA,NA,NA,"Water",NA,NA,NA,"2007-06-14","2007-07-12",1,29,NA,NA,NA,NA,NA,NA
"GLP003","EX","107001602",NA,54,"XYZ-12345",0,NA,"mg/kg","SUSPENSION","QD","ORAL GAVAGE",NA,NA,NA,"Water",NA,NA,NA,"2007-06-14","2007-07-12",1,29,NA,NA,NA,NA,NA,NA
"GLP003","EX","107001513",NA,55,"XYZ-12345",0,NA,"mg/kg","SUSPENSION","QD","ORAL GAVAGE",NA,NA,NA,"Water",NA,NA,NA,"2007-06-14","2007-07-12",1,29,NA,NA,NA,NA,NA,NA
"GLP003","EX","107001556",NA,56,"XYZ-12345",0,NA,"mg/kg","SUSPENSION","QD","ORAL GAVAGE",NA,NA,NA,"Water",NA,NA,NA,"2007-06-14","2007-07-11",1,28,NA,NA,NA,NA,NA,NA
"GLP003","EX","107001561",NA,57,"XYZ-12345",0,NA,"mg/kg","SUSPENSION","QD","ORAL GAVAGE",NA,NA,NA,"Water",NA,NA,NA,"2007-06-14","2007-07-11",1,28,NA,NA,NA,NA,NA,NA
"GLP003","EX","107001559",NA,58,"XYZ-12345",0,NA,"mg/kg","SUSPENSION","QD","ORAL GAVAGE",NA,NA,NA,"Water",NA,NA,NA,"2007-06-14","2007-07-11",1,28,NA,NA,NA,NA,NA,NA
"GLP003","EX","107001609",NA,59,"XYZ-12345",0,NA,"mg/kg","SUSPENSION","QD","ORAL GAVAGE",NA,NA,NA,"Water",NA,NA,NA,"2007-06-14","2007-07-11",1,28,NA,NA,NA,NA,NA,NA
"GLP003","EX","107001563",NA,60,"XYZ-12345",0,NA,"mg/kg","SUSPENSION","QD","ORAL GAVAGE",NA,NA,NA,"Water",NA,NA,NA,"2007-06-14","2007-07-11",1,28,NA,NA,NA,NA,NA,NA
"GLP003","EX","107001441",NA,61,"XYZ-12345",6,NA,"mg/kg","SUSPENSION","QD","ORAL GAVAGE","7E26769",NA,NA,"35% HP-ß-CD, 0.1% Tween 80, in 0.063M HCl",NA,NA,NA,"2007-06-12","2007-07-09",1,28,NA,NA,NA,NA,NA,NA
"GLP003","EX","107001488",NA,62,"XYZ-12345",6,NA,"mg/kg","SUSPENSION","QD","ORAL GAVAGE","7E26769",NA,NA,"35% HP-ß-CD, 0.1% Tween 80, in 0.063M HCl",NA,NA,NA,"2007-06-12","2007-07-09",1,28,NA,NA,NA,NA,NA,NA
"GLP003","EX","107001431",NA,63,"XYZ-12345",6,NA,"mg/kg","SUSPENSION","QD","ORAL GAVAGE","7E26769",NA,NA,"35% HP-ß-CD, 0.1% Tween 80, in 0.063M HCl",NA,NA,NA,"2007-06-12","2007-07-09",1,28,NA,NA,NA,NA,NA,NA
"GLP003","EX","107001394",NA,64,"XYZ-12345",6,NA,"mg/kg","SUSPENSION","QD","ORAL GAVAGE","7E26769",NA,NA,"35% HP-ß-CD, 0.1% Tween 80, in 0.063M HCl",NA,NA,NA,"2007-06-12","2007-07-09",1,28,NA,NA,NA,NA,NA,NA
"GLP003","EX","107001480",NA,65,"XYZ-12345",6,NA,"mg/kg","SUSPENSION","QD","ORAL GAVAGE","7E26769",NA,NA,"35% HP-ß-CD, 0.1% Tween 80, in 0.063M HCl",NA,NA,NA,"2007-06-12","2007-07-09",1,28,NA,NA,NA,NA,NA,NA
"GLP003","EX","107001411",NA,66,"XYZ-12345",6,NA,"mg/kg","SUSPENSION","QD","ORAL GAVAGE","7E26769",NA,NA,"35% HP-ß-CD, 0.1% Tween 80, in 0.063M HCl",NA,NA,NA,"2007-06-12","2007-07-10",1,29,NA,NA,NA,NA,NA,NA
"GLP003","EX","107001433",NA,67,"XYZ-12345",6,NA,"mg/kg","SUSPENSION","QD","ORAL GAVAGE","7E26769",NA,NA,"35% HP-ß-CD, 0.1% Tween 80, in 0.063M HCl",NA,NA,NA,"2007-06-12","2007-07-10",1,29,NA,NA,NA,NA,NA,NA
"GLP003","EX","107001375",NA,68,"XYZ-12345",6,NA,"mg/kg","SUSPENSION","QD","ORAL GAVAGE","7E26769",NA,NA,"35% HP-ß-CD, 0.1% Tween 80, in 0.063M HCl",NA,NA,NA,"2007-06-12","2007-07-10",1,29,NA,NA,NA,NA,NA,NA
"GLP003","EX","107001381",NA,69,"XYZ-12345",6,NA,"mg/kg","SUSPENSION","QD","ORAL GAVAGE","7E26769",NA,NA,"35% HP-ß-CD, 0.1% Tween 80, in 0.063M HCl",NA,NA,NA,"2007-06-12","2007-07-10",1,29,NA,NA,NA,NA,NA,NA
"GLP003","EX","107001416",NA,70,"XYZ-12345",6,NA,"mg/kg","SUSPENSION","QD","ORAL GAVAGE","7E26769",NA,NA,"35% HP-ß-CD, 0.1% Tween 80, in 0.063M HCl",NA,NA,NA,"2007-06-12","2007-07-10",1,29,NA,NA,NA,NA,NA,NA
"GLP003","EX","107001386",NA,71,"XYZ-12345",6,NA,"mg/kg","SUSPENSION","QD","ORAL GAVAGE","7E26769",NA,NA,"35% HP-ß-CD, 0.1% Tween 80, in 0.063M HCl",NA,NA,NA,"2007-06-12","2007-07-09",1,28,NA,NA,NA,NA,NA,NA
"GLP003","EX","107001379",NA,72,"XYZ-12345",6,NA,"mg/kg","SUSPENSION","QD","ORAL GAVAGE","7E26769",NA,NA,"35% HP-ß-CD, 0.1% Tween 80, in 0.063M HCl",NA,NA,NA,"2007-06-12","2007-07-09",1,28,NA,NA,NA,NA,NA,NA
"GLP003","EX","107001432",NA,73,"XYZ-12345",6,NA,"mg/kg","SUSPENSION","QD","ORAL GAVAGE","7E26769",NA,NA,"35% HP-ß-CD, 0.1% Tween 80, in 0.063M HCl",NA,NA,NA,"2007-06-12","2007-07-09",1,28,NA,NA,NA,NA,NA,NA
"GLP003","EX","107001478",NA,74,"XYZ-12345",6,NA,"mg/kg","SUSPENSION","QD","ORAL GAVAGE","7E26769",NA,NA,"35% HP-ß-CD, 0.1% Tween 80, in 0.063M HCl",NA,NA,NA,"2007-06-12","2007-07-09",1,28,NA,NA,NA,NA,NA,NA
"GLP003","EX","107001491",NA,75,"XYZ-12345",6,NA,"mg/kg","SUSPENSION","QD","ORAL GAVAGE","7E26769",NA,NA,"35% HP-ß-CD, 0.1% Tween 80, in 0.063M HCl",NA,NA,NA,"2007-06-12","2007-07-09",1,28,NA,NA,NA,NA,NA,NA
"GLP003","EX","107001570",NA,76,"XYZ-12345",6,NA,"mg/kg","SUSPENSION","QD","ORAL GAVAGE","7E26769",NA,NA,"35% HP-ß-CD, 0.1% Tween 80, in 0.063M HCl",NA,NA,NA,"2007-06-14","2007-07-11",1,28,NA,NA,NA,NA,NA,NA
"GLP003","EX","107001618",NA,77,"XYZ-12345",6,NA,"mg/kg","SUSPENSION","QD","ORAL GAVAGE","7E26769",NA,NA,"35% HP-ß-CD, 0.1% Tween 80, in 0.063M HCl",NA,NA,NA,"2007-06-14","2007-07-11",1,28,NA,NA,NA,NA,NA,NA
"GLP003","EX","107001520",NA,78,"XYZ-12345",6,NA,"mg/kg","SUSPENSION","QD","ORAL GAVAGE","7E26769",NA,NA,"35% HP-ß-CD, 0.1% Tween 80, in 0.063M HCl",NA,NA,NA,"2007-06-14","2007-07-11",1,28,NA,NA,NA,NA,NA,NA
"GLP003","EX","107001553",NA,79,"XYZ-12345",6,NA,"mg/kg","SUSPENSION","QD","ORAL GAVAGE","7E26769",NA,NA,"35% HP-ß-CD, 0.1% Tween 80, in 0.063M HCl",NA,NA,NA,"2007-06-14","2007-07-11",1,28,NA,NA,NA,NA,NA,NA
"GLP003","EX","107001540",NA,80,"XYZ-12345",6,NA,"mg/kg","SUSPENSION","QD","ORAL GAVAGE","7E26769",NA,NA,"35% HP-ß-CD, 0.1% Tween 80, in 0.063M HCl",NA,NA,NA,"2007-06-14","2007-07-11",1,28,NA,NA,NA,NA,NA,NA
"GLP003","EX","107001562",NA,81,"XYZ-12345",6,NA,"mg/kg","SUSPENSION","QD","ORAL GAVAGE","7E26769",NA,NA,"35% HP-ß-CD, 0.1% Tween 80, in 0.063M HCl",NA,NA,NA,"2007-06-14","2007-07-12",1,29,NA,NA,NA,NA,NA,NA
"GLP003","EX","107001631",NA,82,"XYZ-12345",6,NA,"mg/kg","SUSPENSION","QD","ORAL GAVAGE","7E26769",NA,NA,"35% HP-ß-CD, 0.1% Tween 80, in 0.063M HCl",NA,NA,NA,"2007-06-14","2007-07-12",1,29,NA,NA,NA,NA,NA,NA
"GLP003","EX","107001499",NA,83,"XYZ-12345",6,NA,"mg/kg","SUSPENSION","QD","ORAL GAVAGE","7E26769",NA,NA,"35% HP-ß-CD, 0.1% Tween 80, in 0.063M HCl",NA,NA,NA,"2007-06-14","2007-07-12",1,29,NA,NA,NA,NA,NA,NA
"GLP003","EX","107001552",NA,84,"XYZ-12345",6,NA,"mg/kg","SUSPENSION","QD","ORAL GAVAGE","7E26769",NA,NA,"35% HP-ß-CD, 0.1% Tween 80, in 0.063M HCl",NA,NA,NA,"2007-06-14","2007-07-12",1,29,NA,NA,NA,NA,NA,NA
"GLP003","EX","107001505",NA,85,"XYZ-12345",6,NA,"mg/kg","SUSPENSION","QD","ORAL GAVAGE","7E26769",NA,NA,"35% HP-ß-CD, 0.1% Tween 80, in 0.063M HCl",NA,NA,NA,"2007-06-14","2007-07-12",1,29,NA,NA,NA,NA,NA,NA
"GLP003","EX","107001637",NA,86,"XYZ-12345",6,NA,"mg/kg","SUSPENSION","QD","ORAL GAVAGE","7E26769",NA,NA,"35% HP-ß-CD, 0.1% Tween 80, in 0.063M HCl",NA,NA,NA,"2007-06-14","2007-07-11",1,28,NA,NA,NA,NA,NA,NA
"GLP003","EX","107001612",NA,87,"XYZ-12345",6,NA,"mg/kg","SUSPENSION","QD","ORAL GAVAGE","7E26769",NA,NA,"35% HP-ß-CD, 0.1% Tween 80, in 0.063M HCl",NA,NA,NA,"2007-06-14","2007-07-11",1,28,NA,NA,NA,NA,NA,NA
"GLP003","EX","107001574",NA,88,"XYZ-12345",6,NA,"mg/kg","SUSPENSION","QD","ORAL GAVAGE","7E26769",NA,NA,"35% HP-ß-CD, 0.1% Tween 80, in 0.063M HCl",NA,NA,NA,"2007-06-14","2007-07-11",1,28,NA,NA,NA,NA,NA,NA
"GLP003","EX","107001519",NA,89,"XYZ-12345",6,NA,"mg/kg","SUSPENSION","QD","ORAL GAVAGE","7E26769",NA,NA,"35% HP-ß-CD, 0.1% Tween 80, in 0.063M HCl",NA,NA,NA,"2007-06-14","2007-07-11",1,28,NA,NA,NA,NA,NA,NA
"GLP003","EX","107001589",NA,90,"XYZ-12345",6,NA,"mg/kg","SUSPENSION","QD","ORAL GAVAGE","7E26769",NA,NA,"35% HP-ß-CD, 0.1% Tween 80, in 0.063M HCl",NA,NA,NA,"2007-06-14","2007-07-11",1,28,NA,NA,NA,NA,NA,NA
"GLP003","EX","107001447",NA,91,"XYZ-12345",20,NA,"mg/kg","SUSPENSION","QD","ORAL GAVAGE","7E26769",NA,NA,"35% HP-ß-CD, 0.1% Tween 80, in 0.063M HCl",NA,NA,NA,"2007-06-12","2007-07-09",1,28,NA,NA,NA,NA,NA,NA
"GLP003","EX","107001414",NA,92,"XYZ-12345",20,NA,"mg/kg","SUSPENSION","QD","ORAL GAVAGE","7E26769",NA,NA,"35% HP-ß-CD, 0.1% Tween 80, in 0.063M HCl",NA,NA,NA,"2007-06-12","2007-07-09",1,28,NA,NA,NA,NA,NA,NA
"GLP003","EX","107001400",NA,93,"XYZ-12345",20,NA,"mg/kg","SUSPENSION","QD","ORAL GAVAGE","7E26769",NA,NA,"35% HP-ß-CD, 0.1% Tween 80, in 0.063M HCl",NA,NA,NA,"2007-06-12","2007-07-09",1,28,NA,NA,NA,NA,NA,NA
"GLP003","EX","107001454",NA,94,"XYZ-12345",20,NA,"mg/kg","SUSPENSION","QD","ORAL GAVAGE","7E26769",NA,NA,"35% HP-ß-CD, 0.1% Tween 80, in 0.063M HCl",NA,NA,NA,"2007-06-12","2007-07-09",1,28,NA,NA,NA,NA,NA,NA
"GLP003","EX","107001393",NA,95,"XYZ-12345",20,NA,"mg/kg","SUSPENSION","QD","ORAL GAVAGE","7E26769",NA,NA,"35% HP-ß-CD, 0.1% Tween 80, in 0.063M HCl",NA,NA,NA,"2007-06-12","2007-07-09",1,28,NA,NA,NA,NA,NA,NA
"GLP003","EX","107001355",NA,96,"XYZ-12345",20,NA,"mg/kg","SUSPENSION","QD","ORAL GAVAGE","7E26769",NA,NA,"35% HP-ß-CD, 0.1% Tween 80, in 0.063M HCl",NA,NA,NA,"2007-06-12","2007-07-10",1,29,NA,NA,NA,NA,NA,NA
"GLP003","EX","107001426",NA,97,"XYZ-12345",20,NA,"mg/kg","SUSPENSION","QD","ORAL GAVAGE","7E26769",NA,NA,"35% HP-ß-CD, 0.1% Tween 80, in 0.063M HCl",NA,NA,NA,"2007-06-12","2007-07-10",1,29,NA,NA,NA,NA,NA,NA
"GLP003","EX","107001424",NA,98,"XYZ-12345",20,NA,"mg/kg","SUSPENSION","QD","ORAL GAVAGE","7E26769",NA,NA,"35% HP-ß-CD, 0.1% Tween 80, in 0.063M HCl",NA,NA,NA,"2007-06-12","2007-07-10",1,29,NA,NA,NA,NA,NA,NA
"GLP003","EX","107001438",NA,99,"XYZ-12345",20,NA,"mg/kg","SUSPENSION","QD","ORAL GAVAGE","7E26769",NA,NA,"35% HP-ß-CD, 0.1% Tween 80, in 0.063M HCl",NA,NA,NA,"2007-06-12","2007-07-10",1,29,NA,NA,NA,NA,NA,NA
"GLP003","EX","107001404",NA,100,"XYZ-12345",20,NA,"mg/kg","SUSPENSION","QD","ORAL GAVAGE","7E26769",NA,NA,"35% HP-ß-CD, 0.1% Tween 80, in 0.063M HCl",NA,NA,NA,"2007-06-12","2007-07-10",1,29,NA,NA,NA,NA,NA,NA
"GLP003","EX","107001482",NA,101,"XYZ-12345",20,NA,"mg/kg","SUSPENSION","QD","ORAL GAVAGE","7E26769",NA,NA,"35% HP-ß-CD, 0.1% Tween 80, in 0.063M HCl",NA,NA,NA,"2007-06-12","2007-07-09",1,28,NA,NA,NA,NA,NA,NA
"GLP003","EX","107001486",NA,102,"XYZ-12345",20,NA,"mg/kg","SUSPENSION","QD","ORAL GAVAGE","7E26769",NA,NA,"35% HP-ß-CD, 0.1% Tween 80, in 0.063M HCl",NA,NA,NA,"2007-06-12","2007-07-09",1,28,NA,NA,NA,NA,NA,NA
"GLP003","EX","107001398",NA,103,"XYZ-12345",20,NA,"mg/kg","SUSPENSION","QD","ORAL GAVAGE","7E26769",NA,NA,"35% HP-ß-CD, 0.1% Tween 80, in 0.063M HCl",NA,NA,NA,"2007-06-12","2007-07-09",1,28,NA,NA,NA,NA,NA,NA
"GLP003","EX","107001445",NA,104,"XYZ-12345",20,NA,"mg/kg","SUSPENSION","QD","ORAL GAVAGE","7E26769",NA,NA,"35% HP-ß-CD, 0.1% Tween 80, in 0.063M HCl",NA,NA,NA,"2007-06-12","2007-07-09",1,28,NA,NA,NA,NA,NA,NA
"GLP003","EX","107001399",NA,105,"XYZ-12345",20,NA,"mg/kg","SUSPENSION","QD","ORAL GAVAGE","7E26769",NA,NA,"35% HP-ß-CD, 0.1% Tween 80, in 0.063M HCl",NA,NA,NA,"2007-06-12","2007-07-09",1,28,NA,NA,NA,NA,NA,NA
"GLP003","EX","107001583",NA,106,"XYZ-12345",20,NA,"mg/kg","SUSPENSION","QD","ORAL GAVAGE","7E26769",NA,NA,"35% HP-ß-CD, 0.1% Tween 80, in 0.063M HCl",NA,NA,NA,"2007-06-14","2007-07-11",1,28,NA,NA,NA,NA,NA,NA
"GLP003","EX","107001517",NA,107,"XYZ-12345",20,NA,"mg/kg","SUSPENSION","QD","ORAL GAVAGE","7E26769",NA,NA,"35% HP-ß-CD, 0.1% Tween 80, in 0.063M HCl",NA,NA,NA,"2007-06-14","2007-07-11",1,28,NA,NA,NA,NA,NA,NA
"GLP003","EX","107001545",NA,108,"XYZ-12345",20,NA,"mg/kg","SUSPENSION","QD","ORAL GAVAGE","7E26769",NA,NA,"35% HP-ß-CD, 0.1% Tween 80, in 0.063M HCl",NA,NA,NA,"2007-06-14","2007-07-11",1,28,NA,NA,NA,NA,NA,NA
"GLP003","EX","107001547",NA,109,"XYZ-12345",20,NA,"mg/kg","SUSPENSION","QD","ORAL GAVAGE","7E26769",NA,NA,"35% HP-ß-CD, 0.1% Tween 80, in 0.063M HCl",NA,NA,NA,"2007-06-14","2007-07-11",1,28,NA,NA,NA,NA,NA,NA
"GLP003","EX","107001627",NA,110,"XYZ-12345",20,NA,"mg/kg","SUSPENSION","QD","ORAL GAVAGE","7E26769",NA,NA,"35% HP-ß-CD, 0.1% Tween 80, in 0.063M HCl",NA,NA,NA,"2007-06-14","2007-07-11",1,28,NA,NA,NA,NA,NA,NA
"GLP003","EX","107001565",NA,111,"XYZ-12345",20,NA,"mg/kg","SUSPENSION","QD","ORAL GAVAGE","7E26769",NA,NA,"35% HP-ß-CD, 0.1% Tween 80, in 0.063M HCl",NA,NA,NA,"2007-06-14","2007-07-12",1,29,NA,NA,NA,NA,NA,NA
"GLP003","EX","107001643",NA,112,"XYZ-12345",20,NA,"mg/kg","SUSPENSION","QD","ORAL GAVAGE","7E26769",NA,NA,"35% HP-ß-CD, 0.1% Tween 80, in 0.063M HCl",NA,NA,NA,"2007-06-14","2007-07-12",1,29,NA,NA,NA,NA,NA,NA
"GLP003","EX","107001515",NA,113,"XYZ-12345",20,NA,"mg/kg","SUSPENSION","QD","ORAL GAVAGE","7E26769",NA,NA,"35% HP-ß-CD, 0.1% Tween 80, in 0.063M HCl",NA,NA,NA,"2007-06-14","2007-07-12",1,29,NA,NA,NA,NA,NA,NA
"GLP003","EX","107001521",NA,114,"XYZ-12345",20,NA,"mg/kg","SUSPENSION","QD","ORAL GAVAGE","7E26769",NA,NA,"35% HP-ß-CD, 0.1% Tween 80, in 0.063M HCl",NA,NA,NA,"2007-06-14","2007-07-12",1,29,NA,NA,NA,NA,NA,NA
"GLP003","EX","107001508",NA,115,"XYZ-12345",20,NA,"mg/kg","SUSPENSION","QD","ORAL GAVAGE","7E26769",NA,NA,"35% HP-ß-CD, 0.1% Tween 80, in 0.063M HCl",NA,NA,NA,"2007-06-14","2007-07-12",1,29,NA,NA,NA,NA,NA,NA
"GLP003","EX","107001584",NA,116,"XYZ-12345",20,NA,"mg/kg","SUSPENSION","QD","ORAL GAVAGE","7E26769",NA,NA,"35% HP-ß-CD, 0.1% Tween 80, in 0.063M HCl",NA,NA,NA,"2007-06-14","2007-07-11",1,28,NA,NA,NA,NA,NA,NA
"GLP003","EX","107001566",NA,117,"XYZ-12345",20,NA,"mg/kg","SUSPENSION","QD","ORAL GAVAGE","7E26769",NA,NA,"35% HP-ß-CD, 0.1% Tween 80, in 0.063M HCl",NA,NA,NA,"2007-06-14","2007-07-11",1,28,NA,NA,NA,NA,NA,NA
"GLP003","EX","107001644",NA,118,"XYZ-12345",20,NA,"mg/kg","SUSPENSION","QD","ORAL GAVAGE","7E26769",NA,NA,"35% HP-ß-CD, 0.1% Tween 80, in 0.063M HCl",NA,NA,NA,"2007-06-14","2007-07-11",1,28,NA,NA,NA,NA,NA,NA
"GLP003","EX","107001587",NA,119,"XYZ-12345",20,NA,"mg/kg","SUSPENSION","QD","ORAL GAVAGE","7E26769",NA,NA,"35% HP-ß-CD, 0.1% Tween 80, in 0.063M HCl",NA,NA,NA,"2007-06-14","2007-07-11",1,28,NA,NA,NA,NA,NA,NA
"GLP003","EX","107001638",NA,120,"XYZ-12345",20,NA,"mg/kg","SUSPENSION","QD","ORAL GAVAGE","7E26769",NA,NA,"35% HP-ß-CD, 0.1% Tween 80, in 0.063M HCl",NA,NA,NA,"2007-06-14","2007-07-11",1,28,NA,NA,NA,NA,NA,NA
"GLP003","EX","107001449",NA,121,"XYZ-12345",60,NA,"mg/kg","SUSPENSION","QD","ORAL GAVAGE","7E26769",NA,NA,"35% HP-ß-CD, 0.1% Tween 80, in 0.063M HCl",NA,NA,NA,"2007-06-12","2007-07-09",1,28,NA,NA,NA,NA,NA,NA
"GLP003","EX","107001392",NA,122,"XYZ-12345",60,NA,"mg/kg","SUSPENSION","QD","ORAL GAVAGE","7E26769",NA,NA,"35% HP-ß-CD, 0.1% Tween 80, in 0.063M HCl",NA,NA,NA,"2007-06-12","2007-07-09",1,28,NA,NA,NA,NA,NA,NA
"GLP003","EX","107001495",NA,123,"XYZ-12345",60,NA,"mg/kg","SUSPENSION","QD","ORAL GAVAGE","7E26769",NA,NA,"35% HP-ß-CD, 0.1% Tween 80, in 0.063M HCl",NA,NA,NA,"2007-06-12","2007-07-09",1,28,NA,NA,NA,NA,NA,NA
"GLP003","EX","107001391",NA,124,"XYZ-12345",60,NA,"mg/kg","SUSPENSION","QD","ORAL GAVAGE","7E26769",NA,NA,"35% HP-ß-CD, 0.1% Tween 80, in 0.063M HCl",NA,NA,NA,"2007-06-12","2007-07-09",1,28,NA,NA,NA,NA,NA,NA
"GLP003","EX","107001477",NA,125,"XYZ-12345",60,NA,"mg/kg","SUSPENSION","QD","ORAL GAVAGE","7E26769",NA,NA,"35% HP-ß-CD, 0.1% Tween 80, in 0.063M HCl",NA,NA,NA,"2007-06-12","2007-07-09",1,28,NA,NA,NA,NA,NA,NA
"GLP003","EX","107001369",NA,126,"XYZ-12345",60,NA,"mg/kg","SUSPENSION","QD","ORAL GAVAGE","7E26769",NA,NA,"35% HP-ß-CD, 0.1% Tween 80, in 0.063M HCl",NA,NA,NA,"2007-06-12","2007-07-10",1,29,NA,NA,NA,NA,NA,NA
"GLP003","EX","107001461",NA,127,"XYZ-12345",60,NA,"mg/kg","SUSPENSION","QD","ORAL GAVAGE","7E26769",NA,NA,"35% HP-ß-CD, 0.1% Tween 80, in 0.063M HCl",NA,NA,NA,"2007-06-12","2007-07-10",1,29,NA,NA,NA,NA,NA,NA
"GLP003","EX","107001376",NA,128,"XYZ-12345",60,NA,"mg/kg","SUSPENSION","QD","ORAL GAVAGE","7E26769",NA,NA,"35% HP-ß-CD, 0.1% Tween 80, in 0.063M HCl",NA,NA,NA,"2007-06-12","2007-07-10",1,29,NA,NA,NA,NA,NA,NA
"GLP003","EX","107001420",NA,129,"XYZ-12345",60,NA,"mg/kg","SUSPENSION","QD","ORAL GAVAGE","7E26769",NA,NA,"35% HP-ß-CD, 0.1% Tween 80, in 0.063M HCl",NA,NA,NA,"2007-06-12","2007-07-10",1,29,NA,NA,NA,NA,NA,NA
"GLP003","EX","107001350",NA,130,"XYZ-12345",60,NA,"mg/kg","SUSPENSION","QD","ORAL GAVAGE","7E26769",NA,NA,"35% HP-ß-CD, 0.1% Tween 80, in 0.063M HCl",NA,NA,NA,"2007-06-12","2007-07-10",1,29,NA,NA,NA,NA,NA,NA
"GLP003","EX","107001474",NA,131,"XYZ-12345",60,NA,"mg/kg","SUSPENSION","QD","ORAL GAVAGE","7E26769",NA,NA,"35% HP-ß-CD, 0.1% Tween 80, in 0.063M HCl",NA,NA,NA,"2007-06-12","2007-07-09",1,28,NA,NA,NA,NA,NA,NA
"GLP003","EX","107001446",NA,132,"XYZ-12345",60,NA,"mg/kg","SUSPENSION","QD","ORAL GAVAGE","7E26769",NA,NA,"35% HP-ß-CD, 0.1% Tween 80, in 0.063M HCl",NA,NA,NA,"2007-06-12","2007-07-09",1,28,NA,NA,NA,NA,NA,NA
"GLP003","EX","107001485",NA,133,"XYZ-12345",60,NA,"mg/kg","SUSPENSION","QD","ORAL GAVAGE","7E26769",NA,NA,"35% HP-ß-CD, 0.1% Tween 80, in 0.063M HCl",NA,NA,NA,"2007-06-12","2007-07-09",1,28,NA,NA,NA,NA,NA,NA
"GLP003","EX","107001435",NA,134,"XYZ-12345",60,NA,"mg/kg","SUSPENSION","QD","ORAL GAVAGE","7E26769",NA,NA,"35% HP-ß-CD, 0.1% Tween 80, in 0.063M HCl",NA,NA,NA,"2007-06-12","2007-07-09",1,28,NA,NA,NA,NA,NA,NA
"GLP003","EX","107001383",NA,135,"XYZ-12345",60,NA,"mg/kg","SUSPENSION","QD","ORAL GAVAGE","7E26769",NA,NA,"35% HP-ß-CD, 0.1% Tween 80, in 0.063M HCl",NA,NA,NA,"2007-06-12","2007-07-09",1,28,NA,NA,NA,NA,NA,NA
"GLP003","EX","107001533",NA,136,"XYZ-12345",60,NA,"mg/kg","SUSPENSION","QD","ORAL GAVAGE","7E26769",NA,NA,"35% HP-ß-CD, 0.1% Tween 80, in 0.063M HCl",NA,NA,NA,"2007-06-14","2007-07-11",1,28,NA,NA,NA,NA,NA,NA
"GLP003","EX","107001617",NA,137,"XYZ-12345",60,NA,"mg/kg","SUSPENSION","QD","ORAL GAVAGE","7E26769",NA,NA,"35% HP-ß-CD, 0.1% Tween 80, in 0.063M HCl",NA,NA,NA,"2007-06-14","2007-07-11",1,28,NA,NA,NA,NA,NA,NA
"GLP003","EX","107001578",NA,138,"XYZ-12345",60,NA,"mg/kg","SUSPENSION","QD","ORAL GAVAGE","7E26769",NA,NA,"35% HP-ß-CD, 0.1% Tween 80, in 0.063M HCl",NA,NA,NA,"2007-06-14","2007-07-11",1,28,NA,NA,NA,NA,NA,NA
"GLP003","EX","107001571",NA,139,"XYZ-12345",60,NA,"mg/kg","SUSPENSION","QD","ORAL GAVAGE","7E26769",NA,NA,"35% HP-ß-CD, 0.1% Tween 80, in 0.063M HCl",NA,NA,NA,"2007-06-14","2007-07-11",1,28,NA,NA,NA,NA,NA,NA
"GLP003","EX","107001532",NA,140,"XYZ-12345",60,NA,"mg/kg","SUSPENSION","QD","ORAL GAVAGE","7E26769",NA,NA,"35% HP-ß-CD, 0.1% Tween 80, in 0.063M HCl",NA,NA,NA,"2007-06-14","2007-07-11",1,28,NA,NA,NA,NA,NA,NA
"GLP003","EX","107001522",NA,141,"XYZ-12345",60,NA,"mg/kg","SUSPENSION","QD","ORAL GAVAGE","7E26769",NA,NA,"35% HP-ß-CD, 0.1% Tween 80, in 0.063M HCl",NA,NA,NA,"2007-06-14","2007-07-12",1,29,NA,NA,NA,NA,NA,NA
"GLP003","EX","107001610",NA,142,"XYZ-12345",60,NA,"mg/kg","SUSPENSION","QD","ORAL GAVAGE","7E26769",NA,NA,"35% HP-ß-CD, 0.1% Tween 80, in 0.063M HCl",NA,NA,NA,"2007-06-14","2007-07-12",1,29,NA,NA,NA,NA,NA,NA
"GLP003","EX","107001504",NA,143,"XYZ-12345",60,NA,"mg/kg","SUSPENSION","QD","ORAL GAVAGE","7E26769",NA,NA,"35% HP-ß-CD, 0.1% Tween 80, in 0.063M HCl",NA,NA,NA,"2007-06-14","2007-07-12",1,29,NA,NA,NA,NA,NA,NA
"GLP003","EX","107001536",NA,144,"XYZ-12345",60,NA,"mg/kg","SUSPENSION","QD","ORAL GAVAGE","7E26769",NA,NA,"35% HP-ß-CD, 0.1% Tween 80, in 0.063M HCl",NA,NA,NA,"2007-06-14","2007-07-12",1,29,NA,NA,NA,NA,NA,NA
"GLP003","EX","107001633",NA,145,"XYZ-12345",60,NA,"mg/kg","SUSPENSION","QD","ORAL GAVAGE","7E26769",NA,NA,"35% HP-ß-CD, 0.1% Tween 80, in 0.063M HCl",NA,NA,NA,"2007-06-14","2007-07-12",1,29,NA,NA,NA,NA,NA,NA
"GLP003","EX","107001628",NA,146,"XYZ-12345",60,NA,"mg/kg","SUSPENSION","QD","ORAL GAVAGE","7E26769",NA,NA,"35% HP-ß-CD, 0.1% Tween 80, in 0.063M HCl",NA,NA,NA,"2007-06-14","2007-07-11",1,28,NA,NA,NA,NA,NA,NA
"GLP003","EX","107001554",NA,147,"XYZ-12345",60,NA,"mg/kg","SUSPENSION","QD","ORAL GAVAGE","7E26769",NA,NA,"35% HP-ß-CD, 0.1% Tween 80, in 0.063M HCl",NA,NA,NA,"2007-06-14","2007-07-11",1,28,NA,NA,NA,NA,NA,NA
"GLP003","EX","107001598",NA,148,"XYZ-12345",60,NA,"mg/kg","SUSPENSION","QD","ORAL GAVAGE","7E26769",NA,NA,"35% HP-ß-CD, 0.1% Tween 80, in 0.063M HCl",NA,NA,NA,"2007-06-14","2007-07-11",1,28,NA,NA,NA,NA,NA,NA
"GLP003","EX","107001555",NA,149,"XYZ-12345",60,NA,"mg/kg","SUSPENSION","QD","ORAL GAVAGE","7E26769",NA,NA,"35% HP-ß-CD, 0.1% Tween 80, in 0.063M HCl",NA,NA,NA,"2007-06-14","2007-07-11",1,28,NA,NA,NA,NA,NA,NA
"GLP003","EX","107001588",NA,150,"XYZ-12345",60,NA,"mg/kg","SUSPENSION","QD","ORAL GAVAGE","7E26769",NA,NA,"35% HP-ß-CD, 0.1% Tween 80, in 0.063M HCl",NA,NA,NA,"2007-06-14","2007-07-11",1,28,NA,NA,NA,NA,NA,NA
"GLP003","EX","107001374",NA,151,"XYZ-12345",0,NA,"mg/kg","SUSPENSION","QD","ORAL GAVAGE",NA,NA,NA,"35% HP-ß-CD, 0.1% Tween 80, in 0.063M HCl",NA,NA,NA,"2007-06-12","2007-07-09",1,28,NA,NA,NA,NA,NA,NA
"GLP003","EX","107001490",NA,152,"XYZ-12345",0,NA,"mg/kg","SUSPENSION","QD","ORAL GAVAGE",NA,NA,NA,"35% HP-ß-CD, 0.1% Tween 80, in 0.063M HCl",NA,NA,NA,"2007-06-12","2007-07-09",1,28,NA,NA,NA,NA,NA,NA
"GLP003","EX","107001487",NA,153,"XYZ-12345",0,NA,"mg/kg","SUSPENSION","QD","ORAL GAVAGE",NA,NA,NA,"35% HP-ß-CD, 0.1% Tween 80, in 0.063M HCl",NA,NA,NA,"2007-06-12","2007-07-09",1,28,NA,NA,NA,NA,NA,NA
"GLP003","EX","107001349",NA,154,"XYZ-12345",0,NA,"mg/kg","SUSPENSION","QD","ORAL GAVAGE",NA,NA,NA,"35% HP-ß-CD, 0.1% Tween 80, in 0.063M HCl",NA,NA,NA,"2007-06-12","2007-07-09",1,28,NA,NA,NA,NA,NA,NA
"GLP003","EX","107001358",NA,155,"XYZ-12345",0,NA,"mg/kg","SUSPENSION","QD","ORAL GAVAGE",NA,NA,NA,"35% HP-ß-CD, 0.1% Tween 80, in 0.063M HCl",NA,NA,NA,"2007-06-12","2007-07-09",1,28,NA,NA,NA,NA,NA,NA
"GLP003","EX","107001390",NA,156,"XYZ-12345",0,NA,"mg/kg","SUSPENSION","QD","ORAL GAVAGE",NA,NA,NA,"35% HP-ß-CD, 0.1% Tween 80, in 0.063M HCl",NA,NA,NA,"2007-06-12","2007-07-09",1,28,NA,NA,NA,NA,NA,NA
"GLP003","EX","107001459",NA,157,"XYZ-12345",0,NA,"mg/kg","SUSPENSION","QD","ORAL GAVAGE",NA,NA,NA,"35% HP-ß-CD, 0.1% Tween 80, in 0.063M HCl",NA,NA,NA,"2007-06-12","2007-07-09",1,28,NA,NA,NA,NA,NA,NA
"GLP003","EX","107001468",NA,158,"XYZ-12345",0,NA,"mg/kg","SUSPENSION","QD","ORAL GAVAGE",NA,NA,NA,"35% HP-ß-CD, 0.1% Tween 80, in 0.063M HCl",NA,NA,NA,"2007-06-12","2007-07-09",1,28,NA,NA,NA,NA,NA,NA
"GLP003","EX","107001360",NA,159,"XYZ-12345",0,NA,"mg/kg","SUSPENSION","QD","ORAL GAVAGE",NA,NA,NA,"35% HP-ß-CD, 0.1% Tween 80, in 0.063M HCl",NA,NA,NA,"2007-06-12","2007-07-09",1,28,NA,NA,NA,NA,NA,NA
"GLP003","EX","107001516",NA,160,"XYZ-12345",0,NA,"mg/kg","SUSPENSION","QD","ORAL GAVAGE",NA,NA,NA,"35% HP-ß-CD, 0.1% Tween 80, in 0.063M HCl",NA,NA,NA,"2007-06-14","2007-07-11",1,28,NA,NA,NA,NA,NA,NA
"GLP003","EX","107001607",NA,161,"XYZ-12345",0,NA,"mg/kg","SUSPENSION","QD","ORAL GAVAGE",NA,NA,NA,"35% HP-ß-CD, 0.1% Tween 80, in 0.063M HCl",NA,NA,NA,"2007-06-14","2007-07-11",1,28,NA,NA,NA,NA,NA,NA
"GLP003","EX","107001614",NA,162,"XYZ-12345",0,NA,"mg/kg","SUSPENSION","QD","ORAL GAVAGE",NA,NA,NA,"35% HP-ß-CD, 0.1% Tween 80, in 0.063M HCl",NA,NA,NA,"2007-06-14","2007-06-16",1,3,NA,NA,NA,NA,NA,NA
"GLP003","EX","107001580",NA,163,"XYZ-12345",0,NA,"mg/kg","SUSPENSION","QD","ORAL GAVAGE",NA,NA,NA,"35% HP-ß-CD, 0.1% Tween 80, in 0.063M HCl",NA,NA,NA,"2007-06-14","2007-07-11",1,28,NA,NA,NA,NA,NA,NA
"GLP003","EX","107001640",NA,164,"XYZ-12345",0,NA,"mg/kg","SUSPENSION","QD","ORAL GAVAGE",NA,NA,NA,"35% HP-ß-CD, 0.1% Tween 80, in 0.063M HCl",NA,NA,NA,"2007-06-14","2007-07-11",1,28,NA,NA,NA,NA,NA,NA
"GLP003","EX","107001573",NA,165,"XYZ-12345",0,NA,"mg/kg","SUSPENSION","QD","ORAL GAVAGE",NA,NA,NA,"35% HP-ß-CD, 0.1% Tween 80, in 0.063M HCl",NA,NA,NA,"2007-06-14","2007-07-11",1,28,NA,NA,NA,NA,NA,NA
"GLP003","EX","107001635",NA,166,"XYZ-12345",0,NA,"mg/kg","SUSPENSION","QD","ORAL GAVAGE",NA,NA,NA,"35% HP-ß-CD, 0.1% Tween 80, in 0.063M HCl",NA,NA,NA,"2007-06-14","2007-07-11",1,28,NA,NA,NA,NA,NA,NA
"GLP003","EX","107001597",NA,167,"XYZ-12345",0,NA,"mg/kg","SUSPENSION","QD","ORAL GAVAGE",NA,NA,NA,"35% HP-ß-CD, 0.1% Tween 80, in 0.063M HCl",NA,NA,NA,"2007-06-14","2007-07-11",1,28,NA,NA,NA,NA,NA,NA
"GLP003","EX","107001613",NA,168,"XYZ-12345",0,NA,"mg/kg","SUSPENSION","QD","ORAL GAVAGE",NA,NA,NA,"35% HP-ß-CD, 0.1% Tween 80, in 0.063M HCl",NA,NA,NA,"2007-06-14","2007-07-11",1,28,NA,NA,NA,NA,NA,NA
"GLP003","EX","107001373",NA,169,"XYZ-12345",0,NA,"mg/kg","SUSPENSION","QD","ORAL GAVAGE",NA,NA,NA,"Water",NA,NA,NA,"2007-06-12","2007-07-09",1,28,NA,NA,NA,NA,NA,NA
"GLP003","EX","107001481",NA,170,"XYZ-12345",0,NA,"mg/kg","SUSPENSION","QD","ORAL GAVAGE",NA,NA,NA,"Water",NA,NA,NA,"2007-06-12","2007-07-09",1,28,NA,NA,NA,NA,NA,NA
"GLP003","EX","107001457",NA,171,"XYZ-12345",0,NA,"mg/kg","SUSPENSION","QD","ORAL GAVAGE",NA,NA,NA,"Water",NA,NA,NA,"2007-06-12","2007-07-09",1,28,NA,NA,NA,NA,NA,NA
"GLP003","EX","107001418",NA,172,"XYZ-12345",0,NA,"mg/kg","SUSPENSION","QD","ORAL GAVAGE",NA,NA,NA,"Water",NA,NA,NA,"2007-06-12","2007-07-09",1,28,NA,NA,NA,NA,NA,NA
"GLP003","EX","107001479",NA,173,"XYZ-12345",0,NA,"mg/kg","SUSPENSION","QD","ORAL GAVAGE",NA,NA,NA,"Water",NA,NA,NA,"2007-06-12","2007-07-09",1,28,NA,NA,NA,NA,NA,NA
"GLP003","EX","107001498",NA,174,"XYZ-12345",0,NA,"mg/kg","SUSPENSION","QD","ORAL GAVAGE",NA,NA,NA,"Water",NA,NA,NA,"2007-06-12","2007-07-09",1,28,NA,NA,NA,NA,NA,NA
"GLP003","EX","107001371",NA,175,"XYZ-12345",0,NA,"mg/kg","SUSPENSION","QD","ORAL GAVAGE",NA,NA,NA,"Water",NA,NA,NA,"2007-06-12","2007-07-09",1,28,NA,NA,NA,NA,NA,NA
"GLP003","EX","107001489",NA,176,"XYZ-12345",0,NA,"mg/kg","SUSPENSION","QD","ORAL GAVAGE",NA,NA,NA,"Water",NA,NA,NA,"2007-06-12","2007-07-09",1,28,NA,NA,NA,NA,NA,NA
"GLP003","EX","107001451",NA,177,"XYZ-12345",0,NA,"mg/kg","SUSPENSION","QD","ORAL GAVAGE",NA,NA,NA,"Water",NA,NA,NA,"2007-06-12","2007-07-09",1,28,NA,NA,NA,NA,NA,NA
"GLP003","EX","107001542",NA,178,"XYZ-12345",0,NA,"mg/kg","SUSPENSION","QD","ORAL GAVAGE",NA,NA,NA,"Water",NA,NA,NA,"2007-06-14","2007-07-11",1,28,NA,NA,NA,NA,NA,NA
"GLP003","EX","107001639",NA,179,"XYZ-12345",0,NA,"mg/kg","SUSPENSION","QD","ORAL GAVAGE",NA,NA,NA,"Water",NA,NA,NA,"2007-06-14","2007-07-11",1,28,NA,NA,NA,NA,NA,NA
"GLP003","EX","107001577",NA,180,"XYZ-12345",0,NA,"mg/kg","SUSPENSION","QD","ORAL GAVAGE",NA,NA,NA,"Water",NA,NA,NA,"2007-06-14","2007-07-11",1,28,NA,NA,NA,NA,NA,NA
"GLP003","EX","107001551",NA,181,"XYZ-12345",0,NA,"mg/kg","SUSPENSION","QD","ORAL GAVAGE",NA,NA,NA,"Water",NA,NA,NA,"2007-06-14","2007-07-11",1,28,NA,NA,NA,NA,NA,NA
"GLP003","EX","107001603",NA,182,"XYZ-12345",0,NA,"mg/kg","SUSPENSION","QD","ORAL GAVAGE",NA,NA,NA,"Water",NA,NA,NA,"2007-06-14","2007-07-11",1,28,NA,NA,NA,NA,NA,NA
"GLP003","EX","107001648",NA,183,"XYZ-12345",0,NA,"mg/kg","SUSPENSION","QD","ORAL GAVAGE",NA,NA,NA,"Water",NA,NA,NA,"2007-06-14","2007-07-11",1,28,NA,NA,NA,NA,NA,NA
"GLP003","EX","107001626",NA,184,"XYZ-12345",0,NA,"mg/kg","SUSPENSION","QD","ORAL GAVAGE",NA,NA,NA,"Water",NA,NA,NA,"2007-06-14","2007-07-11",1,28,NA,NA,NA,NA,NA,NA
"GLP003","EX","107001606",NA,185,"XYZ-12345",0,NA,"mg/kg","SUSPENSION","QD","ORAL GAVAGE",NA,NA,NA,"Water",NA,NA,NA,"2007-06-14","2007-07-11",1,28,NA,NA,NA,NA,NA,NA
"GLP003","EX","107001600",NA,186,"XYZ-12345",0,NA,"mg/kg","SUSPENSION","QD","ORAL GAVAGE",NA,NA,NA,"Water",NA,NA,NA,"2007-06-14","2007-07-11",1,28,NA,NA,NA,NA,NA,NA
"GLP003","EX","107001407",NA,187,"XYZ-12345",6,NA,"mg/kg","SUSPENSION","QD","ORAL GAVAGE","7E26769",NA,NA,"35% HP-ß-CD, 0.1% Tween 80, in 0.063M HCl",NA,NA,NA,"2007-06-12","2007-07-09",1,28,NA,NA,NA,NA,NA,NA
"GLP003","EX","107001436",NA,188,"XYZ-12345",6,NA,"mg/kg","SUSPENSION","QD","ORAL GAVAGE","7E26769",NA,NA,"35% HP-ß-CD, 0.1% Tween 80, in 0.063M HCl",NA,NA,NA,"2007-06-12","2007-07-09",1,28,NA,NA,NA,NA,NA,NA
"GLP003","EX","107001395",NA,189,"XYZ-12345",6,NA,"mg/kg","SUSPENSION","QD","ORAL GAVAGE","7E26769",NA,NA,"35% HP-ß-CD, 0.1% Tween 80, in 0.063M HCl",NA,NA,NA,"2007-06-12","2007-07-09",1,28,NA,NA,NA,NA,NA,NA
"GLP003","EX","107001378",NA,190,"XYZ-12345",6,NA,"mg/kg","SUSPENSION","QD","ORAL GAVAGE","7E26769",NA,NA,"35% HP-ß-CD, 0.1% Tween 80, in 0.063M HCl",NA,NA,NA,"2007-06-12","2007-07-09",1,28,NA,NA,NA,NA,NA,NA
"GLP003","EX","107001464",NA,191,"XYZ-12345",6,NA,"mg/kg","SUSPENSION","QD","ORAL GAVAGE","7E26769",NA,NA,"35% HP-ß-CD, 0.1% Tween 80, in 0.063M HCl",NA,NA,NA,"2007-06-12","2007-07-09",1,28,NA,NA,NA,NA,NA,NA
"GLP003","EX","107001450",NA,192,"XYZ-12345",6,NA,"mg/kg","SUSPENSION","QD","ORAL GAVAGE","7E26769",NA,NA,"35% HP-ß-CD, 0.1% Tween 80, in 0.063M HCl",NA,NA,NA,"2007-06-12","2007-07-09",1,28,NA,NA,NA,NA,NA,NA
"GLP003","EX","107001471",NA,193,"XYZ-12345",6,NA,"mg/kg","SUSPENSION","QD","ORAL GAVAGE","7E26769",NA,NA,"35% HP-ß-CD, 0.1% Tween 80, in 0.063M HCl",NA,NA,NA,"2007-06-12","2007-07-09",1,28,NA,NA,NA,NA,NA,NA
"GLP003","EX","107001385",NA,194,"XYZ-12345",6,NA,"mg/kg","SUSPENSION","QD","ORAL GAVAGE","7E26769",NA,NA,"35% HP-ß-CD, 0.1% Tween 80, in 0.063M HCl",NA,NA,NA,"2007-06-12","2007-07-09",1,28,NA,NA,NA,NA,NA,NA
"GLP003","EX","107001367",NA,195,"XYZ-12345",6,NA,"mg/kg","SUSPENSION","QD","ORAL GAVAGE","7E26769",NA,NA,"35% HP-ß-CD, 0.1% Tween 80, in 0.063M HCl",NA,NA,NA,"2007-06-12","2007-07-09",1,28,NA,NA,NA,NA,NA,NA
"GLP003","EX","107001526",NA,196,"XYZ-12345",6,NA,"mg/kg","SUSPENSION","QD","ORAL GAVAGE","7E26769",NA,NA,"35% HP-ß-CD, 0.1% Tween 80, in 0.063M HCl",NA,NA,NA,"2007-06-14","2007-07-11",1,28,NA,NA,NA,NA,NA,NA
"GLP003","EX","107001634",NA,197,"XYZ-12345",6,NA,"mg/kg","SUSPENSION","QD","ORAL GAVAGE","7E26769",NA,NA,"35% HP-ß-CD, 0.1% Tween 80, in 0.063M HCl",NA,NA,NA,"2007-06-14","2007-07-11",1,28,NA,NA,NA,NA,NA,NA
"GLP003","EX","107001564",NA,198,"XYZ-12345",6,NA,"mg/kg","SUSPENSION","QD","ORAL GAVAGE","7E26769",NA,NA,"35% HP-ß-CD, 0.1% Tween 80, in 0.063M HCl",NA,NA,NA,"2007-06-14","2007-07-11",1,28,NA,NA,NA,NA,NA,NA
"GLP003","EX","107001575",NA,199,"XYZ-12345",6,NA,"mg/kg","SUSPENSION","QD","ORAL GAVAGE","7E26769",NA,NA,"35% HP-ß-CD, 0.1% Tween 80, in 0.063M HCl",NA,NA,NA,"2007-06-14","2007-07-11",1,28,NA,NA,NA,NA,NA,NA
"GLP003","EX","107001503",NA,200,"XYZ-12345",6,NA,"mg/kg","SUSPENSION","QD","ORAL GAVAGE","7E26769",NA,NA,"35% HP-ß-CD, 0.1% Tween 80, in 0.063M HCl",NA,NA,NA,"2007-06-14","2007-07-11",1,28,NA,NA,NA,NA,NA,NA
"GLP003","EX","107001527",NA,201,"XYZ-12345",6,NA,"mg/kg","SUSPENSION","QD","ORAL GAVAGE","7E26769",NA,NA,"35% HP-ß-CD, 0.1% Tween 80, in 0.063M HCl",NA,NA,NA,"2007-06-14","2007-07-11",1,28,NA,NA,NA,NA,NA,NA
"GLP003","EX","107001512",NA,202,"XYZ-12345",6,NA,"mg/kg","SUSPENSION","QD","ORAL GAVAGE","7E26769",NA,NA,"35% HP-ß-CD, 0.1% Tween 80, in 0.063M HCl",NA,NA,NA,"2007-06-14","2007-07-11",1,28,NA,NA,NA,NA,NA,NA
"GLP003","EX","107001601",NA,203,"XYZ-12345",6,NA,"mg/kg","SUSPENSION","QD","ORAL GAVAGE","7E26769",NA,NA,"35% HP-ß-CD, 0.1% Tween 80, in 0.063M HCl",NA,NA,NA,"2007-06-14","2007-07-11",1,28,NA,NA,NA,NA,NA,NA
"GLP003","EX","107001590",NA,204,"XYZ-12345",6,NA,"mg/kg","SUSPENSION","QD","ORAL GAVAGE","7E26769",NA,NA,"35% HP-ß-CD, 0.1% Tween 80, in 0.063M HCl",NA,NA,NA,"2007-06-14","2007-07-11",1,28,NA,NA,NA,NA,NA,NA
"GLP003","EX","107001352",NA,205,"XYZ-12345",20,NA,"mg/kg","SUSPENSION","QD","ORAL GAVAGE","7E26769",NA,NA,"35% HP-ß-CD, 0.1% Tween 80, in 0.063M HCl",NA,NA,NA,"2007-06-12","2007-07-09",1,28,NA,NA,NA,NA,NA,NA
"GLP003","EX","107001406",NA,206,"XYZ-12345",20,NA,"mg/kg","SUSPENSION","QD","ORAL GAVAGE","7E26769",NA,NA,"35% HP-ß-CD, 0.1% Tween 80, in 0.063M HCl",NA,NA,NA,"2007-06-12","2007-07-09",1,28,NA,NA,NA,NA,NA,NA
"GLP003","EX","107001442",NA,207,"XYZ-12345",20,NA,"mg/kg","SUSPENSION","QD","ORAL GAVAGE","7E26769",NA,NA,"35% HP-ß-CD, 0.1% Tween 80, in 0.063M HCl",NA,NA,NA,"2007-06-12","2007-07-09",1,28,NA,NA,NA,NA,NA,NA
"GLP003","EX","107001429",NA,208,"XYZ-12345",20,NA,"mg/kg","SUSPENSION","QD","ORAL GAVAGE","7E26769",NA,NA,"35% HP-ß-CD, 0.1% Tween 80, in 0.063M HCl",NA,NA,NA,"2007-06-12","2007-07-09",1,28,NA,NA,NA,NA,NA,NA
"GLP003","EX","107001409",NA,209,"XYZ-12345",20,NA,"mg/kg","SUSPENSION","QD","ORAL GAVAGE","7E26769",NA,NA,"35% HP-ß-CD, 0.1% Tween 80, in 0.063M HCl",NA,NA,NA,"2007-06-12","2007-07-09",1,28,NA,NA,NA,NA,NA,NA
"GLP003","EX","107001430",NA,210,"XYZ-12345",20,NA,"mg/kg","SUSPENSION","QD","ORAL GAVAGE","7E26769",NA,NA,"35% HP-ß-CD, 0.1% Tween 80, in 0.063M HCl",NA,NA,NA,"2007-06-12","2007-07-09",1,28,NA,NA,NA,NA,NA,NA
"GLP003","EX","107001444",NA,211,"XYZ-12345",20,NA,"mg/kg","SUSPENSION","QD","ORAL GAVAGE","7E26769",NA,NA,"35% HP-ß-CD, 0.1% Tween 80, in 0.063M HCl",NA,NA,NA,"2007-06-12","2007-07-09",1,28,NA,NA,NA,NA,NA,NA
"GLP003","EX","107001354",NA,212,"XYZ-12345",20,NA,"mg/kg","SUSPENSION","QD","ORAL GAVAGE","7E26769",NA,NA,"35% HP-ß-CD, 0.1% Tween 80, in 0.063M HCl",NA,NA,NA,"2007-06-12","2007-07-09",1,28,NA,NA,NA,NA,NA,NA
"GLP003","EX","107001402",NA,213,"XYZ-12345",20,NA,"mg/kg","SUSPENSION","QD","ORAL GAVAGE","7E26769",NA,NA,"35% HP-ß-CD, 0.1% Tween 80, in 0.063M HCl",NA,NA,NA,"2007-06-12","2007-07-09",1,28,NA,NA,NA,NA,NA,NA
"GLP003","EX","107001557",NA,214,"XYZ-12345",20,NA,"mg/kg","SUSPENSION","QD","ORAL GAVAGE","7E26769",NA,NA,"35% HP-ß-CD, 0.1% Tween 80, in 0.063M HCl",NA,NA,NA,"2007-06-14","2007-07-11",1,28,NA,NA,NA,NA,NA,NA
"GLP003","EX","107001572",NA,215,"XYZ-12345",20,NA,"mg/kg","SUSPENSION","QD","ORAL GAVAGE","7E26769",NA,NA,"35% HP-ß-CD, 0.1% Tween 80, in 0.063M HCl",NA,NA,NA,"2007-06-14","2007-07-11",1,28,NA,NA,NA,NA,NA,NA
"GLP003","EX","107001632",NA,216,"XYZ-12345",20,NA,"mg/kg","SUSPENSION","QD","ORAL GAVAGE","7E26769",NA,NA,"35% HP-ß-CD, 0.1% Tween 80, in 0.063M HCl",NA,NA,NA,"2007-06-14","2007-07-11",1,28,NA,NA,NA,NA,NA,NA
"GLP003","EX","107001550",NA,217,"XYZ-12345",20,NA,"mg/kg","SUSPENSION","QD","ORAL GAVAGE","7E26769",NA,NA,"35% HP-ß-CD, 0.1% Tween 80, in 0.063M HCl",NA,NA,NA,"2007-06-14","2007-07-11",1,28,NA,NA,NA,NA,NA,NA
"GLP003","EX","107001593",NA,218,"XYZ-12345",20,NA,"mg/kg","SUSPENSION","QD","ORAL GAVAGE","7E26769",NA,NA,"35% HP-ß-CD, 0.1% Tween 80, in 0.063M HCl",NA,NA,NA,"2007-06-14","2007-07-11",1,28,NA,NA,NA,NA,NA,NA
"GLP003","EX","107001596",NA,219,"XYZ-12345",20,NA,"mg/kg","SUSPENSION","QD","ORAL GAVAGE","7E26769",NA,NA,"35% HP-ß-CD, 0.1% Tween 80, in 0.063M HCl",NA,NA,NA,"2007-06-14","2007-07-11",1,28,NA,NA,NA,NA,NA,NA
"GLP003","EX","107001642",NA,220,"XYZ-12345",20,NA,"mg/kg","SUSPENSION","QD","ORAL GAVAGE","7E26769",NA,NA,"35% HP-ß-CD, 0.1% Tween 80, in 0.063M HCl",NA,NA,NA,"2007-06-14","2007-06-14",1,1,NA,NA,NA,NA,NA,NA
"GLP003","EX","107001586",NA,221,"XYZ-12345",20,NA,"mg/kg","SUSPENSION","QD","ORAL GAVAGE","7E26769",NA,NA,"35% HP-ß-CD, 0.1% Tween 80, in 0.063M HCl",NA,NA,NA,"2007-06-14","2007-07-11",1,28,NA,NA,NA,NA,NA,NA
"GLP003","EX","107001546",NA,222,"XYZ-12345",20,NA,"mg/kg","SUSPENSION","QD","ORAL GAVAGE","7E26769",NA,NA,"35% HP-ß-CD, 0.1% Tween 80, in 0.063M HCl",NA,NA,NA,"2007-06-14","2007-07-11",1,28,NA,NA,NA,NA,NA,NA
"GLP003","EX","107001623",NA,223,"XYZ-12345",20,NA,"mg/kg","SUSPENSION","QD","ORAL GAVAGE","7E26769",NA,NA,"35% HP-ß-CD, 0.1% Tween 80, in 0.063M HCl",NA,NA,NA,"2007-06-14","2007-07-11",1,28,NA,NA,NA,NA,NA,NA
"GLP003","EX","107001405",NA,224,"XYZ-12345",60,NA,"mg/kg","SUSPENSION","QD","ORAL GAVAGE","7E26769",NA,NA,"35% HP-ß-CD, 0.1% Tween 80, in 0.063M HCl",NA,NA,NA,"2007-06-12","2007-07-09",1,28,NA,NA,NA,NA,NA,NA
"GLP003","EX","107001463",NA,225,"XYZ-12345",60,NA,"mg/kg","SUSPENSION","QD","ORAL GAVAGE","7E26769",NA,NA,"35% HP-ß-CD, 0.1% Tween 80, in 0.063M HCl",NA,NA,NA,"2007-06-12","2007-07-09",1,28,NA,NA,NA,NA,NA,NA
"GLP003","EX","107001494",NA,226,"XYZ-12345",60,NA,"mg/kg","SUSPENSION","QD","ORAL GAVAGE","7E26769",NA,NA,"35% HP-ß-CD, 0.1% Tween 80, in 0.063M HCl",NA,NA,NA,"2007-06-12","2007-07-09",1,28,NA,NA,NA,NA,NA,NA
"GLP003","EX","107001453",NA,227,"XYZ-12345",60,NA,"mg/kg","SUSPENSION","QD","ORAL GAVAGE","7E26769",NA,NA,"35% HP-ß-CD, 0.1% Tween 80, in 0.063M HCl",NA,NA,NA,"2007-06-12","2007-07-09",1,28,NA,NA,NA,NA,NA,NA
"GLP003","EX","107001448",NA,228,"XYZ-12345",60,NA,"mg/kg","SUSPENSION","QD","ORAL GAVAGE","7E26769",NA,NA,"35% HP-ß-CD, 0.1% Tween 80, in 0.063M HCl",NA,NA,NA,"2007-06-12","2007-07-09",1,28,NA,NA,NA,NA,NA,NA
"GLP003","EX","107001413",NA,229,"XYZ-12345",60,NA,"mg/kg","SUSPENSION","QD","ORAL GAVAGE","7E26769",NA,NA,"35% HP-ß-CD, 0.1% Tween 80, in 0.063M HCl",NA,NA,NA,"2007-06-12","2007-07-09",1,28,NA,NA,NA,NA,NA,NA
"GLP003","EX","107001476",NA,230,"XYZ-12345",60,NA,"mg/kg","SUSPENSION","QD","ORAL GAVAGE","7E26769",NA,NA,"35% HP-ß-CD, 0.1% Tween 80, in 0.063M HCl",NA,NA,NA,"2007-06-12","2007-07-09",1,28,NA,NA,NA,NA,NA,NA
"GLP003","EX","107001380",NA,231,"XYZ-12345",60,NA,"mg/kg","SUSPENSION","QD","ORAL GAVAGE","7E26769",NA,NA,"35% HP-ß-CD, 0.1% Tween 80, in 0.063M HCl",NA,NA,NA,"2007-06-12","2007-07-09",1,28,NA,NA,NA,NA,NA,NA
"GLP003","EX","107001417",NA,232,"XYZ-12345",60,NA,"mg/kg","SUSPENSION","QD","ORAL GAVAGE","7E26769",NA,NA,"35% HP-ß-CD, 0.1% Tween 80, in 0.063M HCl",NA,NA,NA,"2007-06-12","2007-07-09",1,28,NA,NA,NA,NA,NA,NA
"GLP003","EX","107001548",NA,233,"XYZ-12345",60,NA,"mg/kg","SUSPENSION","QD","ORAL GAVAGE","7E26769",NA,NA,"35% HP-ß-CD, 0.1% Tween 80, in 0.063M HCl",NA,NA,NA,"2007-06-14","2007-07-11",1,28,NA,NA,NA,NA,NA,NA
"GLP003","EX","107001523",NA,234,"XYZ-12345",60,NA,"mg/kg","SUSPENSION","QD","ORAL GAVAGE","7E26769",NA,NA,"35% HP-ß-CD, 0.1% Tween 80, in 0.063M HCl",NA,NA,NA,"2007-06-14","2007-07-11",1,28,NA,NA,NA,NA,NA,NA
"GLP003","EX","107001611",NA,235,"XYZ-12345",60,NA,"mg/kg","SUSPENSION","QD","ORAL GAVAGE","7E26769",NA,NA,"35% HP-ß-CD, 0.1% Tween 80, in 0.063M HCl",NA,NA,NA,"2007-06-14","2007-07-11",1,28,NA,NA,NA,NA,NA,NA
"GLP003","EX","107001502",NA,236,"XYZ-12345",60,NA,"mg/kg","SUSPENSION","QD","ORAL GAVAGE","7E26769",NA,NA,"35% HP-ß-CD, 0.1% Tween 80, in 0.063M HCl",NA,NA,NA,"2007-06-14","2007-07-11",1,28,NA,NA,NA,NA,NA,NA
"GLP003","EX","107001510",NA,237,"XYZ-12345",60,NA,"mg/kg","SUSPENSION","QD","ORAL GAVAGE","7E26769",NA,NA,"35% HP-ß-CD, 0.1% Tween 80, in 0.063M HCl",NA,NA,NA,"2007-06-14","2007-07-11",1,28,NA,NA,NA,NA,NA,NA
"GLP003","EX","107001509",NA,238,"XYZ-12345",60,NA,"mg/kg","SUSPENSION","QD","ORAL GAVAGE","7E26769",NA,NA,"35% HP-ß-CD, 0.1% Tween 80, in 0.063M HCl",NA,NA,NA,"2007-06-14","2007-07-11",1,28,NA,NA,NA,NA,NA,NA
"GLP003","EX","107001549",NA,239,"XYZ-12345",60,NA,"mg/kg","SUSPENSION","QD","ORAL GAVAGE","7E26769",NA,NA,"35% HP-ß-CD, 0.1% Tween 80, in 0.063M HCl",NA,NA,NA,"2007-06-14","2007-07-11",1,28,NA,NA,NA,NA,NA,NA
"GLP003","EX","107001605",NA,240,"XYZ-12345",60,NA,"mg/kg","SUSPENSION","QD","ORAL GAVAGE","7E26769",NA,NA,"35% HP-ß-CD, 0.1% Tween 80, in 0.063M HCl",NA,NA,NA,"2007-06-14","2007-07-11",1,28,NA,NA,NA,NA,NA,NA
"GLP003","EX","107001591",NA,241,"XYZ-12345",60,NA,"mg/kg","SUSPENSION","QD","ORAL GAVAGE","7E26769",NA,NA,"35% HP-ß-CD, 0.1% Tween 80, in 0.063M HCl",NA,NA,NA,"2007-06-14","2007-07-11",1,28,NA,NA,NA,NA,NA,NA
