"STUDYID","DOMAIN","USUBJID","POOLID","LBSEQ","LBGRPID","LBREFID","LBSPID","LBTESTCD","LBTEST","LBCAT","LBSCAT","LBORRES","LBORRESU","LBORNRLO","LBORNRHI","LBSTRESC","LBSTRESN","LBSTRESU","LBSTNRLO","LBSTNRHI","LBSTNRC","LBNRIND","LBSTAT","LBREASND","LBNAM","LBSPEC","LBANTREG","LBSPCCND","LBSPCUFL","LBLOC","LBLAT","LBDIR","LBPORTOT","LBMETHOD","LBBLFL","LBFAST","LBDRVFL","LBTOX","LBTOXGR","LBEXCLFL","LBREASEX","VISITDY","LBDTC","LBENDTC","LBDY","LBENDY","LBTPT","LBTPTNUM","LBELTM","LBTPTREF","LBRFTDTC"
"GLP003","LB","107001350",NA,1,NA,NA,NA,"WBC","Leukocytes","HEMATOLOGY",NA,"13.37","10^9/L",NA,NA,"13.37",13.37,"10^9/L",NA,NA,NA,NA,NA,NA,NA,"WHOLE BLOOD",NA,NA,NA,NA,NA,NA,NA,NA,NA,NA,NA,NA,NA,NA,NA,30,"2007-07-11T09:00:00",NA,30,NA,NA,NA,NA,NA,NA
"GLP003","LB","107001350",NA,2,NA,NA,NA,"RBC","Erythrocytes","HEMATOLOGY",NA,"9.59","10^12/L",NA,NA,"9.59",9.59,"10^12/L",NA,NA,NA,NA,NA,NA,NA,"WHOLE BLOOD",NA,NA,NA,NA,NA,NA,NA,NA,NA,NA,NA,NA,NA,NA,NA,30,"2007-07-11T09:00:00",NA,30,NA,NA,NA,NA,NA,NA
"GLP003","LB","107001350",NA,3,NA,NA,NA,"HGB","Hemoglobin","HEMATOLOGY",NA,"17.7","g/dL",NA,NA,"17.7",17.7,"g/dL",NA,NA,NA,NA,NA,NA,NA,"WHOLE BLOOD",NA,NA,NA,NA,NA,NA,NA,NA,NA,NA,NA,NA,NA,NA,NA,30,"2007-07-11T09:00:00",NA,30,NA,NA,NA,NA,NA,NA
"GLP003","LB","107001350",NA,4,NA,NA,NA,"HCT","Hematocrit","HEMATOLOGY",NA,"51.1","%",NA,NA,"51.1",51.1,"%",NA,NA,NA,NA,NA,NA,NA,"WHOLE BLOOD",NA,NA,NA,NA,NA,NA,NA,NA,NA,NA,NA,NA,NA,NA,NA,30,"2007-07-11T09:00:00",NA,30,NA,NA,NA,NA,NA,NA
"GLP003","LB","107001350",NA,5,NA,NA,NA,"MCV","Ery. Mean Corpuscular Volume","HEMATOLOGY",NA,"53.3","fL",NA,NA,"53.3",53.3,"fL",NA,NA,NA,NA,NA,NA,NA,"WHOLE BLOOD",NA,NA,NA,NA,NA,NA,NA,NA,NA,NA,NA,NA,NA,NA,NA,30,"2007-07-11T09:00:00",NA,30,NA,NA,NA,NA,NA,NA
"GLP003","LB","107001350",NA,6,NA,NA,NA,"MCH","Ery. Mean Corpuscular Hemoglobin","HEMATOLOGY",NA,"18.5","pg",NA,NA,"18.5",18.5,"pg",NA,NA,NA,NA,NA,NA,NA,"WHOLE BLOOD",NA,NA,NA,NA,NA,NA,NA,NA,NA,NA,NA,NA,NA,NA,NA,30,"2007-07-11T09:00:00",NA,30,NA,NA,NA,NA,NA,NA
"GLP003","LB","107001350",NA,7,NA,NA,NA,"MCHC","Ery. Mean Corpuscular HGB Concentration","HEMATOLOGY",NA,"34.6","g/dL",NA,NA,"34.6",34.6,"g/dL",NA,NA,NA,NA,NA,NA,NA,"WHOLE BLOOD",NA,NA,NA,NA,NA,NA,NA,NA,NA,NA,NA,NA,NA,NA,NA,30,"2007-07-11T09:00:00",NA,30,NA,NA,NA,NA,NA,NA
"GLP003","LB","107001350",NA,8,NA,NA,NA,"RDW","Erythrocytes Distribution Width","HEMATOLOGY",NA,"11.9","%",NA,NA,"11.9",11.9,"%",NA,NA,NA,NA,NA,NA,NA,"WHOLE BLOOD",NA,NA,NA,NA,NA,NA,NA,NA,NA,NA,NA,NA,NA,NA,NA,30,"2007-07-11T09:00:00",NA,30,NA,NA,NA,NA,NA,NA
"GLP003","LB","107001350",NA,9,NA,NA,NA,"PLAT","Platelets","HEMATOLOGY",NA,"1172","10^9/L",NA,NA,"1172",1172,"10^9/L",NA,NA,NA,NA,NA,NA,NA,"WHOLE BLOOD",NA,NA,NA,NA,NA,NA,NA,NA,NA,NA,NA,NA,NA,NA,NA,30,"2007-07-11T09:00:00",NA,30,NA,NA,NA,NA,NA,NA
"GLP003","LB","107001350",NA,10,NA,NA,NA,"RETIRBC","Reticulocytes/Erythrocytes","HEMATOLOGY",NA,"2.0","%",NA,NA,"2.0",2,"%",NA,NA,NA,NA,NA,NA,NA,"WHOLE BLOOD",NA,NA,NA,NA,NA,NA,NA,NA,NA,NA,NA,NA,NA,NA,NA,30,"2007-07-11T09:00:00",NA,30,NA,NA,NA,NA,NA,NA
"GLP003","LB","107001350",NA,11,NA,NA,NA,"RETI","Reticulocytes","HEMATOLOGY",NA,"0.195","10^12/L",NA,NA,"0.195",0.195,"10^12/L",NA,NA,NA,NA,NA,NA,NA,"WHOLE BLOOD",NA,NA,NA,NA,NA,NA,NA,NA,NA,NA,NA,NA,NA,NA,NA,30,"2007-07-11T09:00:00",NA,30,NA,NA,NA,NA,NA,NA
"GLP003","LB","107001350",NA,12,NA,NA,NA,"NEUT","Neutrophils","HEMATOLOGY",NA,"2.44","10^9/L",NA,NA,"2.44",2.44,"10^9/L",NA,NA,NA,NA,NA,NA,NA,"WHOLE BLOOD",NA,NA,NA,NA,NA,NA,NA,NA,NA,NA,NA,NA,NA,NA,NA,30,"2007-07-11T09:00:00",NA,30,NA,NA,NA,NA,NA,NA
"GLP003","LB","107001350",NA,13,NA,NA,NA,"LYM","Lymphocytes","HEMATOLOGY",NA,"10.28","10^9/L",NA,NA,"10.28",10.28,"10^9/L",NA,NA,NA,NA,NA,NA,NA,"WHOLE BLOOD",NA,NA,NA,NA,NA,NA,NA,NA,NA,NA,NA,NA,NA,NA,NA,30,"2007-07-11T09:00:00",NA,30,NA,NA,NA,NA,NA,NA
"GLP003","LB","107001350",NA,14,NA,NA,NA,"MONO","Monocytes","HEMATOLOGY",NA,"0.32","10^9/L",NA,NA,"0.32",0.32,"10^9/L",NA,NA,NA,NA,NA,NA,NA,"WHOLE BLOOD",NA,NA,NA,NA,NA,NA,NA,NA,NA,NA,NA,NA,NA,NA,NA,30,"2007-07-11T09:00:00",NA,30,NA,NA,NA,NA,NA,NA
"GLP003","LB","107001350",NA,15,NA,NA,NA,"EOS","Eosinophils","HEMATOLOGY",NA,"0.12","10^9/L",NA,NA,"0.12",0.12,"10^9/L",NA,NA,NA,NA,NA,NA,NA,"WHOLE BLOOD",NA,NA,NA,NA,NA,NA,NA,NA,NA,NA,NA,NA,NA,NA,NA,30,"2007-07-11T09:00:00",NA,30,NA,NA,NA,NA,NA,NA
"GLP003","LB","107001350",NA,16,NA,NA,NA,"BASO","Basophils","HEMATOLOGY",NA,"0.13","10^9/L",NA,NA,"0.13",0.13,"10^9/L",NA,NA,NA,NA,NA,NA,NA,"WHOLE BLOOD",NA,NA,NA,NA,NA,NA,NA,NA,NA,NA,NA,NA,NA,NA,NA,30,"2007-07-11T09:00:00",NA,30,NA,NA,NA,NA,NA,NA
"GLP003","LB","107001350",NA,17,NA,NA,NA,"LGUNSCE","Large Unstained Cells","HEMATOLOGY",NA,"0.08","10^9/L",NA,NA,"0.08",0.08,"10^9/L",NA,NA,NA,NA,NA,NA,NA,"WHOLE BLOOD",NA,NA,NA,NA,NA,NA,NA,NA,NA,NA,NA,NA,NA,NA,NA,30,"2007-07-11T09:00:00",NA,30,NA,NA,NA,NA,NA,NA
"GLP003","LB","107001350",NA,18,NA,NA,NA,"ALT","Alanine Aminotransferase","SERUM CHEMISTRY",NA,"58","U/L",NA,NA,"58",58,"U/L",NA,NA,NA,NA,NA,NA,NA,"SERUM",NA,NA,NA,NA,NA,NA,NA,NA,NA,NA,NA,NA,NA,NA,NA,30,"2007-07-11T08:20:00",NA,30,NA,NA,NA,NA,NA,NA
"GLP003","LB","107001350",NA,19,NA,NA,NA,"ALB","Albumin","SERUM CHEMISTRY",NA,"3.4","g/dL",NA,NA,"3.4",3.4,"g/dL",NA,NA,NA,NA,NA,NA,NA,"SERUM",NA,NA,NA,NA,NA,NA,NA,NA,NA,NA,NA,NA,NA,NA,NA,30,"2007-07-11T08:20:00",NA,30,NA,NA,NA,NA,NA,NA
"GLP003","LB","107001350",NA,20,NA,NA,NA,"ALBGLOB","Albumin/Globulin","SERUM CHEMISTRY",NA,"1.0","RATIO",NA,NA,"1.0",1,"RATIO",NA,NA,NA,NA,NA,NA,NA,"SERUM",NA,NA,NA,NA,NA,NA,NA,NA,NA,NA,NA,NA,NA,NA,NA,30,"2007-07-11T08:20:00",NA,30,NA,NA,NA,NA,NA,NA
"GLP003","LB","107001350",NA,21,NA,NA,NA,"ALP","Alkaline Phosphatase","SERUM CHEMISTRY",NA,"156","U/L",NA,NA,"156",156,"U/L",NA,NA,NA,NA,NA,NA,NA,"SERUM",NA,NA,NA,NA,NA,NA,NA,NA,NA,NA,NA,NA,NA,NA,NA,30,"2007-07-11T08:20:00",NA,30,NA,NA,NA,NA,NA,NA
"GLP003","LB","107001350",NA,22,NA,NA,NA,"AST","Aspartate Aminotransferase","SERUM CHEMISTRY",NA,"108","U/L",NA,NA,"108",108,"U/L",NA,NA,NA,NA,NA,NA,NA,"SERUM",NA,NA,NA,NA,NA,NA,NA,NA,NA,NA,NA,NA,NA,NA,NA,30,"2007-07-11T08:20:00",NA,30,NA,NA,NA,NA,NA,NA
"GLP003","LB","107001350",NA,23,NA,NA,NA,"BUN","Blood Urea Nitrogen","SERUM CHEMISTRY",NA,"18","mg/dL",NA,NA,"18",18,"mg/dL",NA,NA,NA,NA,NA,NA,NA,"SERUM",NA,NA,NA,NA,NA,NA,NA,NA,NA,NA,NA,NA,NA,NA,NA,30,"2007-07-11T08:20:00",NA,30,NA,NA,NA,NA,NA,NA
"GLP003","LB","107001350",NA,24,NA,NA,NA,"CA","Calcium","SERUM CHEMISTRY",NA,"12.5","mg/dL",NA,NA,"12.5",12.5,"mg/dL",NA,NA,NA,NA,NA,NA,NA,"SERUM",NA,NA,NA,NA,NA,NA,NA,NA,NA,NA,NA,NA,NA,NA,NA,30,"2007-07-11T08:20:00",NA,30,NA,NA,NA,NA,NA,NA
"GLP003","LB","107001350",NA,25,NA,NA,NA,"CL","Chloride","SERUM CHEMISTRY",NA,"101","mEq/L",NA,NA,"101",101,"mEq/L",NA,NA,NA,NA,NA,NA,NA,"SERUM",NA,NA,NA,NA,NA,NA,NA,NA,NA,NA,NA,NA,NA,NA,NA,30,"2007-07-11T08:20:00",NA,30,NA,NA,NA,NA,NA,NA
"GLP003","LB","107001350",NA,26,NA,NA,NA,"CHOL","Cholesterol","SERUM CHEMISTRY",NA,"82","mg/dL",NA,NA,"82",82,"mg/dL",NA,NA,NA,NA,NA,NA,NA,"SERUM",NA,NA,NA,NA,NA,NA,NA,NA,NA,NA,NA,NA,NA,NA,NA,30,"2007-07-11T08:20:00",NA,30,NA,NA,NA,NA,NA,NA
"GLP003","LB","107001350",NA,27,NA,NA,NA,"CREAT","Creatinine","SERUM CHEMISTRY",NA,"0.37","mg/dL",NA,NA,"0.37",0.37,"mg/dL",NA,NA,NA,NA,NA,NA,NA,"SERUM",NA,NA,NA,NA,NA,NA,NA,NA,NA,NA,NA,NA,NA,NA,NA,30,"2007-07-11T08:20:00",NA,30,NA,NA,NA,NA,NA,NA
"GLP003","LB","107001350",NA,28,NA,NA,NA,"GLOBUL","Globulin","SERUM CHEMISTRY",NA,"3.3","g/dL",NA,NA,"3.3",3.3,"g/dL",NA,NA,NA,NA,NA,NA,NA,"SERUM",NA,NA,NA,NA,NA,NA,NA,NA,NA,NA,NA,NA,NA,NA,NA,30,"2007-07-11T08:20:00",NA,30,NA,NA,NA,NA,NA,NA
"GLP003","LB","107001350",NA,29,NA,NA,NA,"GLUC","Glucose","SERUM CHEMISTRY",NA,"110","mg/dL",NA,NA,"110",110,"mg/dL",NA,NA,NA,NA,NA,NA,NA,"SERUM",NA,NA,NA,NA,NA,NA,NA,NA,NA,NA,NA,NA,NA,NA,NA,30,"2007-07-11T08:20:00",NA,30,NA,NA,NA,NA,NA,NA
"GLP003","LB","107001350",NA,30,NA,NA,NA,"K","Potassium","SERUM CHEMISTRY",NA,"5.0","mEq/L",NA,NA,"5.0",5,"mEq/L",NA,NA,NA,NA,NA,NA,NA,"SERUM",NA,NA,NA,NA,NA,NA,NA,NA,NA,NA,NA,NA,NA,NA,NA,30,"2007-07-11T08:20:00",NA,30,NA,NA,NA,NA,NA,NA
"GLP003","LB","107001350",NA,31,NA,NA,NA,"PHOS","Phosphate","SERUM CHEMISTRY",NA,"7.6","mg/dL",NA,NA,"7.6",7.6,"mg/dL",NA,NA,NA,NA,NA,NA,NA,"SERUM",NA,NA,NA,NA,NA,NA,NA,NA,NA,NA,NA,NA,NA,NA,NA,30,"2007-07-11T08:20:00",NA,30,NA,NA,NA,NA,NA,NA
"GLP003","LB","107001350",NA,32,NA,NA,NA,"SODIUM","Sodium","SERUM CHEMISTRY",NA,"143","mEq/L",NA,NA,"143",143,"mEq/L",NA,NA,NA,NA,NA,NA,NA,"SERUM",NA,NA,NA,NA,NA,NA,NA,NA,NA,NA,NA,NA,NA,NA,NA,30,"2007-07-11T08:20:00",NA,30,NA,NA,NA,NA,NA,NA
"GLP003","LB","107001350",NA,33,NA,NA,NA,"BILI","Bilirubin","SERUM CHEMISTRY",NA,"0.14","mg/dL",NA,NA,"0.14",0.14,"mg/dL",NA,NA,NA,NA,NA,NA,NA,"SERUM",NA,NA,NA,NA,NA,NA,NA,NA,NA,NA,NA,NA,NA,NA,NA,30,"2007-07-11T08:20:00",NA,30,NA,NA,NA,NA,NA,NA
"GLP003","LB","107001350",NA,34,NA,NA,NA,"PROT","Protein","SERUM CHEMISTRY",NA,"6.7","g/dL",NA,NA,"6.7",6.7,"g/dL",NA,NA,NA,NA,NA,NA,NA,"SERUM",NA,NA,NA,NA,NA,NA,NA,NA,NA,NA,NA,NA,NA,NA,NA,30,"2007-07-11T08:20:00",NA,30,NA,NA,NA,NA,NA,NA
"GLP003","LB","107001350",NA,35,NA,NA,NA,"TRIG","Triglycerides","SERUM CHEMISTRY",NA,"17","mg/dL",NA,NA,"17",17,"mg/dL",NA,NA,NA,NA,NA,NA,NA,"SERUM",NA,NA,NA,NA,NA,NA,NA,NA,NA,NA,NA,NA,NA,NA,NA,30,"2007-07-11T08:20:00",NA,30,NA,NA,NA,NA,NA,NA
"GLP003","LB","107001350",NA,36,NA,NA,NA,"APTT","Activated Partial Thromboplastin Time","COAGULATION",NA,"14.7","sec",NA,NA,"14.7",14.7,"sec",NA,NA,NA,NA,NA,NA,NA,"PLASMA",NA,NA,NA,NA,NA,NA,NA,NA,NA,NA,NA,NA,NA,NA,NA,30,"2007-07-11T09:00:00",NA,30,NA,NA,NA,NA,NA,NA
"GLP003","LB","107001350",NA,37,NA,NA,NA,"PT","Prothrombin Time","COAGULATION",NA,"17.3","sec",NA,NA,"17.3",17.3,"sec",NA,NA,NA,NA,NA,NA,NA,"PLASMA",NA,NA,NA,NA,NA,NA,NA,NA,NA,NA,NA,NA,NA,NA,NA,30,"2007-07-11T09:00:00",NA,30,NA,NA,NA,NA,NA,NA
"GLP003","LB","107001350",NA,38,NA,NA,NA,"FIBRINO","Fibrinogen","COAGULATION",NA,"297","mg/dL",NA,NA,"297",297,"mg/dL",NA,NA,NA,NA,NA,NA,NA,"PLASMA",NA,NA,NA,NA,NA,NA,NA,NA,NA,NA,NA,NA,NA,NA,NA,30,"2007-07-11T09:00:00",NA,30,NA,NA,NA,NA,NA,NA
"GLP003","LB","107001350",NA,39,NA,NA,NA,"CLARITY","Clarity","URINALYSIS",NA,"CLEAR",NA,NA,NA,"CLEAR",NA,NA,NA,NA,NA,NA,NA,NA,NA,"URINE",NA,NA,NA,NA,NA,NA,NA,NA,NA,NA,NA,NA,NA,NA,NA,30,"2007-07-11T07:28:00",NA,30,NA,NA,NA,NA,NA,NA
"GLP003","LB","107001350",NA,40,NA,NA,NA,"COLOR","Color","URINALYSIS",NA,"YELLOW",NA,NA,NA,"YELLOW",NA,NA,NA,NA,NA,NA,NA,NA,NA,"URINE",NA,NA,NA,NA,NA,NA,NA,NA,NA,NA,NA,NA,NA,NA,NA,30,"2007-07-11T07:28:00",NA,30,NA,NA,NA,NA,NA,NA
"GLP003","LB","107001350",NA,41,NA,NA,NA,"BILI","Bilirubin","URINALYSIS",NA,"NEGATIVE",NA,NA,NA,"NEGATIVE",NA,NA,NA,NA,NA,NA,NA,NA,NA,"URINE",NA,NA,NA,NA,NA,NA,NA,"Atlas",NA,NA,NA,NA,NA,NA,NA,30,"2007-07-11T07:28:00",NA,30,NA,NA,NA,NA,NA,NA
"GLP003","LB","107001350",NA,42,NA,NA,NA,"GLUC","Glucose","URINALYSIS",NA,"NEGATIVE",NA,NA,NA,"NEGATIVE",NA,NA,NA,NA,NA,NA,NA,NA,NA,"URINE",NA,NA,NA,NA,NA,NA,NA,"Atlas, qualitative",NA,NA,NA,NA,NA,NA,NA,30,"2007-07-11T07:28:00",NA,30,NA,NA,NA,NA,NA,NA
"GLP003","LB","107001350",NA,43,NA,NA,NA,"OCCBLD","Occult Blood","URINALYSIS",NA,"NEGATIVE",NA,NA,NA,"NEGATIVE",NA,NA,NA,NA,NA,NA,NA,NA,NA,"URINE",NA,NA,NA,NA,NA,NA,NA,NA,NA,NA,NA,NA,NA,NA,NA,30,"2007-07-11T07:28:00",NA,30,NA,NA,NA,NA,NA,NA
"GLP003","LB","107001350",NA,44,NA,NA,NA,"KETONES","Ketones","URINALYSIS",NA,"TRACE",NA,NA,NA,"TRACE",NA,NA,NA,NA,NA,NA,NA,NA,NA,"URINE",NA,NA,NA,NA,NA,NA,NA,NA,NA,NA,NA,NA,NA,NA,NA,30,"2007-07-11T07:28:00",NA,30,NA,NA,NA,NA,NA,NA
"GLP003","LB","107001350",NA,45,NA,NA,NA,"PH","pH","URINALYSIS",NA,"6.0","pH",NA,NA,"6.0",6,"pH",NA,NA,NA,NA,NA,NA,NA,"URINE",NA,NA,NA,NA,NA,NA,NA,NA,NA,NA,NA,NA,NA,NA,NA,30,"2007-07-11T07:28:00",NA,30,NA,NA,NA,NA,NA,NA
"GLP003","LB","107001350",NA,46,NA,NA,NA,"SPGRAV","Specific Gravity","URINALYSIS",NA,"1.026",NA,NA,NA,"1.026",1.026,NA,NA,NA,NA,NA,NA,NA,NA,"URINE",NA,NA,NA,NA,NA,NA,NA,NA,NA,NA,NA,NA,NA,NA,NA,30,"2007-07-11T07:28:00",NA,30,NA,NA,NA,NA,NA,NA
"GLP003","LB","107001350",NA,47,NA,NA,NA,"UROBIL","Urobilinogen","URINALYSIS",NA,"0.2","mg/dL",NA,NA,"0.2",0.2,"mg/dL",NA,NA,NA,NA,NA,NA,NA,"URINE",NA,NA,NA,NA,NA,NA,NA,NA,NA,NA,NA,NA,NA,NA,NA,30,"2007-07-11T07:28:00",NA,30,NA,NA,NA,NA,NA,NA
"GLP003","LB","107001350",NA,48,NA,NA,NA,"VOLUME","Volume","URINALYSIS",NA,"11","mL",NA,NA,"11",11,"mL",NA,NA,NA,NA,NA,NA,NA,"URINE",NA,NA,NA,NA,NA,NA,NA,NA,NA,NA,NA,NA,NA,NA,NA,30,"2007-07-11T08:20:00",NA,30,NA,NA,NA,NA,NA,NA
"GLP003","LB","107001350",NA,49,NA,NA,NA,"ANISO","Anisocytes","HEMATOLOGY",NA,"-",NA,NA,NA,"-",NA,NA,NA,NA,NA,NA,NA,NA,NA,"WHOLE BLOOD",NA,NA,NA,NA,NA,NA,NA,NA,NA,NA,NA,NA,NA,NA,NA,30,"2007-07-11T10:00:00",NA,30,NA,NA,NA,NA,NA,NA
"GLP003","LB","107001350",NA,50,NA,NA,NA,"RBCINCL","RBC Inclusions","HEMATOLOGY",NA,"-",NA,NA,NA,"-",NA,NA,NA,NA,NA,NA,NA,NA,NA,"WHOLE BLOOD",NA,NA,NA,NA,NA,NA,NA,NA,NA,NA,NA,NA,NA,NA,NA,30,"2007-07-11T10:00:00",NA,30,NA,NA,NA,NA,NA,NA
"GLP003","LB","107001350",NA,51,NA,NA,NA,"PLATM","Platelet Morphology","HEMATOLOGY",NA,"-",NA,NA,NA,"-",NA,NA,NA,NA,NA,NA,NA,NA,NA,"WHOLE BLOOD",NA,NA,NA,NA,NA,NA,NA,NA,NA,NA,NA,NA,NA,NA,NA,30,"2007-07-11T10:00:00",NA,30,NA,NA,NA,NA,NA,NA
"GLP003","LB","107001350",NA,52,NA,NA,NA,"POIKILO","Poikilocytes","HEMATOLOGY",NA,"4+",NA,NA,NA,"4+",NA,NA,NA,NA,NA,NA,NA,NA,NA,"WHOLE BLOOD",NA,NA,NA,NA,NA,NA,NA,NA,NA,NA,NA,NA,NA,NA,NA,30,"2007-07-11T10:00:00",NA,30,NA,NA,NA,NA,NA,NA
"GLP003","LB","107001350",NA,53,NA,NA,NA,"POLYCHR","Polychromasia","HEMATOLOGY",NA,"-",NA,NA,NA,"-",NA,NA,NA,NA,NA,NA,NA,NA,NA,"WHOLE BLOOD",NA,NA,NA,NA,NA,NA,NA,NA,NA,NA,NA,NA,NA,NA,NA,30,"2007-07-11T10:00:00",NA,30,NA,NA,NA,NA,NA,NA
"GLP003","LB","107001350",NA,54,NA,NA,NA,"WBCMORPH","Leukocyte Cell Morphology","HEMATOLOGY",NA,"-",NA,NA,NA,"-",NA,NA,NA,NA,NA,NA,NA,NA,NA,"WHOLE BLOOD",NA,NA,NA,NA,NA,NA,NA,NA,NA,NA,NA,NA,NA,NA,NA,30,"2007-07-11T10:00:00",NA,30,NA,NA,NA,NA,NA,NA
"GLP003","LB","107001350",NA,55,NA,NA,NA,"CYAMORPH","Amorphous Crystals","URINALYSIS",NA,"1+",NA,NA,NA,"1+",NA,NA,NA,NA,NA,NA,NA,NA,NA,"URINE",NA,NA,NA,NA,NA,NA,NA,NA,NA,NA,NA,NA,NA,NA,NA,30,"2007-07-11T07:28:00",NA,30,NA,NA,NA,NA,NA,NA
"GLP003","LB","107001350",NA,56,NA,NA,NA,"BACT","Bacteria","URINALYSIS",NA,"2+",NA,NA,NA,"2+",NA,NA,NA,NA,NA,NA,NA,NA,NA,"URINE",NA,NA,NA,NA,NA,NA,NA,NA,NA,NA,NA,NA,NA,NA,NA,30,"2007-07-11T07:28:00",NA,30,NA,NA,NA,NA,NA,NA
"GLP003","LB","107001350",NA,57,NA,NA,NA,"CYCACAR","Calcium Carbonate Crystals","URINALYSIS",NA,"-",NA,NA,NA,"-",NA,NA,NA,NA,NA,NA,NA,NA,NA,"URINE",NA,NA,NA,NA,NA,NA,NA,NA,NA,NA,NA,NA,NA,NA,NA,30,"2007-07-11T07:28:00",NA,30,NA,NA,NA,NA,NA,NA
"GLP003","LB","107001350",NA,58,NA,NA,NA,"CYCAOXA","Calcium Oxalate Crystals","URINALYSIS",NA,"-",NA,NA,NA,"-",NA,NA,NA,NA,NA,NA,NA,NA,NA,"URINE",NA,NA,NA,NA,NA,NA,NA,NA,NA,NA,NA,NA,NA,NA,NA,30,"2007-07-11T07:28:00",NA,30,NA,NA,NA,NA,NA,NA
"GLP003","LB","107001350",NA,59,NA,NA,NA,"EPIC","Epithelial Cells","URINALYSIS",NA,"-",NA,NA,NA,"-",NA,NA,NA,NA,NA,NA,NA,NA,NA,"URINE",NA,NA,NA,NA,NA,NA,NA,NA,NA,NA,NA,NA,NA,NA,NA,30,"2007-07-11T07:28:00",NA,30,NA,NA,NA,NA,NA,NA
"GLP003","LB","107001350",NA,60,NA,NA,NA,"CASTS","Casts","URINALYSIS",NA,"-",NA,NA,NA,"-",NA,NA,NA,NA,NA,NA,NA,NA,NA,"URINE",NA,NA,NA,NA,NA,NA,NA,NA,NA,NA,NA,NA,NA,NA,NA,30,"2007-07-11T07:28:00",NA,30,NA,NA,NA,NA,NA,NA
"GLP003","LB","107001350",NA,61,NA,NA,NA,"MISC","Miscellaneous Cell Types","URINALYSIS",NA,"-",NA,NA,NA,"-",NA,NA,NA,NA,NA,NA,NA,NA,NA,"URINE",NA,NA,NA,NA,NA,NA,NA,NA,NA,NA,NA,NA,NA,NA,NA,30,"2007-07-11T07:28:00",NA,30,NA,NA,NA,NA,NA,NA
"GLP003","LB","107001350",NA,62,NA,NA,NA,"CYTRPHOS","Triple Phosphate Crystals","URINALYSIS",NA,"-",NA,NA,NA,"-",NA,NA,NA,NA,NA,NA,NA,NA,NA,"URINE",NA,NA,NA,NA,NA,NA,NA,NA,NA,NA,NA,NA,NA,NA,NA,30,"2007-07-11T07:28:00",NA,30,NA,NA,NA,NA,NA,NA
"GLP003","LB","107001350",NA,63,NA,NA,NA,"SPERM","Spermatozoa","URINALYSIS",NA,"1+",NA,NA,NA,"1+",NA,NA,NA,NA,NA,NA,NA,NA,NA,"URINE",NA,NA,NA,NA,NA,NA,NA,NA,NA,NA,NA,NA,NA,NA,NA,30,"2007-07-11T07:28:00",NA,30,NA,NA,NA,NA,NA,NA
"GLP003","LB","107001350",NA,64,NA,NA,NA,"WBC","Leukocytes","URINALYSIS",NA,"-",NA,NA,NA,"-",NA,NA,NA,NA,NA,NA,NA,NA,NA,"URINE",NA,NA,NA,NA,NA,NA,NA,NA,NA,NA,NA,NA,NA,NA,NA,30,"2007-07-11T07:28:00",NA,30,NA,NA,NA,NA,NA,NA
"GLP003","LB","107001350",NA,65,NA,NA,NA,"RBC","Erythrocytes","URINALYSIS",NA,"-",NA,NA,NA,"-",NA,NA,NA,NA,NA,NA,NA,NA,NA,"URINE",NA,NA,NA,NA,NA,NA,NA,NA,NA,NA,NA,NA,NA,NA,NA,30,"2007-07-11T07:28:00",NA,30,NA,NA,NA,NA,NA,NA
"GLP003","LB","107001350",NA,66,NA,NA,NA,"CRYOTHER","Other Crystals","URINALYSIS",NA,"-",NA,NA,NA,"-",NA,NA,NA,NA,NA,NA,NA,NA,NA,"URINE",NA,NA,NA,NA,NA,NA,NA,NA,NA,NA,NA,NA,NA,NA,NA,30,"2007-07-11T07:28:00",NA,30,NA,NA,NA,NA,NA,NA
"GLP003","LB","107001350",NA,67,NA,NA,NA,"PROT","Protein","URINALYSIS",NA,"65","mg/dL",NA,NA,"65",65,"mg/dL",NA,NA,NA,NA,NA,NA,NA,"URINE",NA,NA,NA,NA,NA,NA,NA,NA,NA,NA,NA,NA,NA,NA,NA,30,"2007-07-10T14:20:00",NA,29,NA,NA,NA,NA,NA,NA
"GLP003","LB","107001350",NA,68,NA,NA,NA,"BICARB","Bicarbonate","SERUM CHEMISTRY",NA,"22","mmol/L",NA,NA,"22",22,"mmol/L",NA,NA,NA,NA,NA,NA,NA,"SERUM",NA,NA,NA,NA,NA,NA,NA,NA,NA,NA,NA,NA,NA,NA,NA,30,"2007-07-11T08:20:00",NA,30,NA,NA,NA,NA,NA,NA
"GLP003","LB","107001350",NA,70,NA,NA,NA,"RBCMORPH","Erythrocyte Cell Morphology","HEMATOLOGY",NA,"-",NA,NA,NA,"-",NA,NA,NA,NA,NA,NA,NA,NA,NA,"WHOLE BLOOD",NA,NA,NA,NA,NA,NA,NA,NA,NA,NA,NA,NA,NA,NA,NA,30,"2007-07-11T10:00:00",NA,30,NA,NA,NA,NA,NA,NA
"GLP003","LB","107001351",NA,71,NA,NA,NA,"WBC","Leukocytes","HEMATOLOGY",NA,"11.42","10^9/L",NA,NA,"11.42",11.42,"10^9/L",NA,NA,NA,NA,NA,NA,NA,"WHOLE BLOOD",NA,NA,NA,NA,NA,NA,NA,NA,NA,NA,NA,NA,NA,NA,NA,29,"2007-07-10T08:00:00",NA,29,NA,NA,NA,NA,NA,NA
"GLP003","LB","107001351",NA,72,NA,NA,NA,"RBC","Erythrocytes","HEMATOLOGY",NA,"8.30","10^12/L",NA,NA,"8.30",8.3,"10^12/L",NA,NA,NA,NA,NA,NA,NA,"WHOLE BLOOD",NA,NA,NA,NA,NA,NA,NA,NA,NA,NA,NA,NA,NA,NA,NA,29,"2007-07-10T08:00:00",NA,29,NA,NA,NA,NA,NA,NA
"GLP003","LB","107001351",NA,73,NA,NA,NA,"HGB","Hemoglobin","HEMATOLOGY",NA,"16.0","g/dL",NA,NA,"16.0",16,"g/dL",NA,NA,NA,NA,NA,NA,NA,"WHOLE BLOOD",NA,NA,NA,NA,NA,NA,NA,NA,NA,NA,NA,NA,NA,NA,NA,29,"2007-07-10T08:00:00",NA,29,NA,NA,NA,NA,NA,NA
"GLP003","LB","107001351",NA,74,NA,NA,NA,"HCT","Hematocrit","HEMATOLOGY",NA,"46.3","%",NA,NA,"46.3",46.3,"%",NA,NA,NA,NA,NA,NA,NA,"WHOLE BLOOD",NA,NA,NA,NA,NA,NA,NA,NA,NA,NA,NA,NA,NA,NA,NA,29,"2007-07-10T08:00:00",NA,29,NA,NA,NA,NA,NA,NA
"GLP003","LB","107001351",NA,75,NA,NA,NA,"MCV","Ery. Mean Corpuscular Volume","HEMATOLOGY",NA,"55.7","fL",NA,NA,"55.7",55.7,"fL",NA,NA,NA,NA,NA,NA,NA,"WHOLE BLOOD",NA,NA,NA,NA,NA,NA,NA,NA,NA,NA,NA,NA,NA,NA,NA,29,"2007-07-10T08:00:00",NA,29,NA,NA,NA,NA,NA,NA
"GLP003","LB","107001351",NA,76,NA,NA,NA,"MCH","Ery. Mean Corpuscular Hemoglobin","HEMATOLOGY",NA,"19.2","pg",NA,NA,"19.2",19.2,"pg",NA,NA,NA,NA,NA,NA,NA,"WHOLE BLOOD",NA,NA,NA,NA,NA,NA,NA,NA,NA,NA,NA,NA,NA,NA,NA,29,"2007-07-10T08:00:00",NA,29,NA,NA,NA,NA,NA,NA
"GLP003","LB","107001351",NA,77,NA,NA,NA,"MCHC","Ery. Mean Corpuscular HGB Concentration","HEMATOLOGY",NA,"34.5","g/dL",NA,NA,"34.5",34.5,"g/dL",NA,NA,NA,NA,NA,NA,NA,"WHOLE BLOOD",NA,NA,NA,NA,NA,NA,NA,NA,NA,NA,NA,NA,NA,NA,NA,29,"2007-07-10T08:00:00",NA,29,NA,NA,NA,NA,NA,NA
"GLP003","LB","107001351",NA,78,NA,NA,NA,"RDW","Erythrocytes Distribution Width","HEMATOLOGY",NA,"13.5","%",NA,NA,"13.5",13.5,"%",NA,NA,NA,NA,NA,NA,NA,"WHOLE BLOOD",NA,NA,NA,NA,NA,NA,NA,NA,NA,NA,NA,NA,NA,NA,NA,29,"2007-07-10T08:00:00",NA,29,NA,NA,NA,NA,NA,NA
"GLP003","LB","107001351",NA,79,NA,NA,NA,"PLAT","Platelets","HEMATOLOGY",NA,"1011","10^9/L",NA,NA,"1011",1011,"10^9/L",NA,NA,NA,NA,NA,NA,NA,"WHOLE BLOOD",NA,NA,NA,NA,NA,NA,NA,NA,NA,NA,NA,NA,NA,NA,NA,29,"2007-07-10T08:00:00",NA,29,NA,NA,NA,NA,NA,NA
"GLP003","LB","107001351",NA,80,NA,NA,NA,"RETIRBC","Reticulocytes/Erythrocytes","HEMATOLOGY",NA,"3.5","%",NA,NA,"3.5",3.5,"%",NA,NA,NA,NA,NA,NA,NA,"WHOLE BLOOD",NA,NA,NA,NA,NA,NA,NA,NA,NA,NA,NA,NA,NA,NA,NA,29,"2007-07-10T08:00:00",NA,29,NA,NA,NA,NA,NA,NA
"GLP003","LB","107001351",NA,81,NA,NA,NA,"RETI","Reticulocytes","HEMATOLOGY",NA,"0.290","10^12/L",NA,NA,"0.290",0.29,"10^12/L",NA,NA,NA,NA,NA,NA,NA,"WHOLE BLOOD",NA,NA,NA,NA,NA,NA,NA,NA,NA,NA,NA,NA,NA,NA,NA,29,"2007-07-10T08:00:00",NA,29,NA,NA,NA,NA,NA,NA
"GLP003","LB","107001351",NA,82,NA,NA,NA,"NEUT","Neutrophils","HEMATOLOGY",NA,"2.06","10^9/L",NA,NA,"2.06",2.06,"10^9/L",NA,NA,NA,NA,NA,NA,NA,"WHOLE BLOOD",NA,NA,NA,NA,NA,NA,NA,NA,NA,NA,NA,NA,NA,NA,NA,29,"2007-07-10T08:00:00",NA,29,NA,NA,NA,NA,NA,NA
"GLP003","LB","107001351",NA,83,NA,NA,NA,"LYM","Lymphocytes","HEMATOLOGY",NA,"8.58","10^9/L",NA,NA,"8.58",8.58,"10^9/L",NA,NA,NA,NA,NA,NA,NA,"WHOLE BLOOD",NA,NA,NA,NA,NA,NA,NA,NA,NA,NA,NA,NA,NA,NA,NA,29,"2007-07-10T08:00:00",NA,29,NA,NA,NA,NA,NA,NA
"GLP003","LB","107001351",NA,84,NA,NA,NA,"MONO","Monocytes","HEMATOLOGY",NA,"0.49","10^9/L",NA,NA,"0.49",0.49,"10^9/L",NA,NA,NA,NA,NA,NA,NA,"WHOLE BLOOD",NA,NA,NA,NA,NA,NA,NA,NA,NA,NA,NA,NA,NA,NA,NA,29,"2007-07-10T08:00:00",NA,29,NA,NA,NA,NA,NA,NA
"GLP003","LB","107001351",NA,85,NA,NA,NA,"EOS","Eosinophils","HEMATOLOGY",NA,"0.13","10^9/L",NA,NA,"0.13",0.13,"10^9/L",NA,NA,NA,NA,NA,NA,NA,"WHOLE BLOOD",NA,NA,NA,NA,NA,NA,NA,NA,NA,NA,NA,NA,NA,NA,NA,29,"2007-07-10T08:00:00",NA,29,NA,NA,NA,NA,NA,NA
"GLP003","LB","107001351",NA,86,NA,NA,NA,"BASO","Basophils","HEMATOLOGY",NA,"0.08","10^9/L",NA,NA,"0.08",0.08,"10^9/L",NA,NA,NA,NA,NA,NA,NA,"WHOLE BLOOD",NA,NA,NA,NA,NA,NA,NA,NA,NA,NA,NA,NA,NA,NA,NA,29,"2007-07-10T08:00:00",NA,29,NA,NA,NA,NA,NA,NA
"GLP003","LB","107001351",NA,87,NA,NA,NA,"LGUNSCE","Large Unstained Cells","HEMATOLOGY",NA,"0.08","10^9/L",NA,NA,"0.08",0.08,"10^9/L",NA,NA,NA,NA,NA,NA,NA,"WHOLE BLOOD",NA,NA,NA,NA,NA,NA,NA,NA,NA,NA,NA,NA,NA,NA,NA,29,"2007-07-10T08:00:00",NA,29,NA,NA,NA,NA,NA,NA
"GLP003","LB","107001351",NA,88,NA,NA,NA,"ALT","Alanine Aminotransferase","SERUM CHEMISTRY",NA,"33","U/L",NA,NA,"33",33,"U/L",NA,NA,NA,NA,NA,NA,NA,"SERUM",NA,NA,NA,NA,NA,NA,NA,NA,NA,NA,NA,NA,NA,NA,NA,29,"2007-07-10T09:53:00",NA,29,NA,NA,NA,NA,NA,NA
"GLP003","LB","107001351",NA,89,NA,NA,NA,"ALB","Albumin","SERUM CHEMISTRY",NA,"3.8","g/dL",NA,NA,"3.8",3.8,"g/dL",NA,NA,NA,NA,NA,NA,NA,"SERUM",NA,NA,NA,NA,NA,NA,NA,NA,NA,NA,NA,NA,NA,NA,NA,29,"2007-07-10T09:53:00",NA,29,NA,NA,NA,NA,NA,NA
"GLP003","LB","107001351",NA,90,NA,NA,NA,"ALBGLOB","Albumin/Globulin","SERUM CHEMISTRY",NA,"1.2","RATIO",NA,NA,"1.2",1.2,"RATIO",NA,NA,NA,NA,NA,NA,NA,"SERUM",NA,NA,NA,NA,NA,NA,NA,NA,NA,NA,NA,NA,NA,NA,NA,29,"2007-07-10T09:53:00",NA,29,NA,NA,NA,NA,NA,NA
"GLP003","LB","107001351",NA,91,NA,NA,NA,"ALP","Alkaline Phosphatase","SERUM CHEMISTRY",NA,"154","U/L",NA,NA,"154",154,"U/L",NA,NA,NA,NA,NA,NA,NA,"SERUM",NA,NA,NA,NA,NA,NA,NA,NA,NA,NA,NA,NA,NA,NA,NA,29,"2007-07-10T09:53:00",NA,29,NA,NA,NA,NA,NA,NA
"GLP003","LB","107001351",NA,92,NA,NA,NA,"AST","Aspartate Aminotransferase","SERUM CHEMISTRY",NA,"88","U/L",NA,NA,"88",88,"U/L",NA,NA,NA,NA,NA,NA,NA,"SERUM",NA,NA,NA,NA,NA,NA,NA,NA,NA,NA,NA,NA,NA,NA,NA,29,"2007-07-10T09:53:00",NA,29,NA,NA,NA,NA,NA,NA
"GLP003","LB","107001351",NA,93,NA,NA,NA,"BUN","Blood Urea Nitrogen","SERUM CHEMISTRY",NA,"13","mg/dL",NA,NA,"13",13,"mg/dL",NA,NA,NA,NA,NA,NA,NA,"SERUM",NA,NA,NA,NA,NA,NA,NA,NA,NA,NA,NA,NA,NA,NA,NA,29,"2007-07-10T09:53:00",NA,29,NA,NA,NA,NA,NA,NA
"GLP003","LB","107001351",NA,94,NA,NA,NA,"CA","Calcium","SERUM CHEMISTRY",NA,"12.7","mg/dL",NA,NA,"12.7",12.7,"mg/dL",NA,NA,NA,NA,NA,NA,NA,"SERUM",NA,NA,NA,NA,NA,NA,NA,NA,NA,NA,NA,NA,NA,NA,NA,29,"2007-07-10T09:53:00",NA,29,NA,NA,NA,NA,NA,NA
"GLP003","LB","107001351",NA,95,NA,NA,NA,"CL","Chloride","SERUM CHEMISTRY",NA,"102","mEq/L",NA,NA,"102",102,"mEq/L",NA,NA,NA,NA,NA,NA,NA,"SERUM",NA,NA,NA,NA,NA,NA,NA,NA,NA,NA,NA,NA,NA,NA,NA,29,"2007-07-10T09:53:00",NA,29,NA,NA,NA,NA,NA,NA
"GLP003","LB","107001351",NA,96,NA,NA,NA,"CHOL","Cholesterol","SERUM CHEMISTRY",NA,"70","mg/dL",NA,NA,"70",70,"mg/dL",NA,NA,NA,NA,NA,NA,NA,"SERUM",NA,NA,NA,NA,NA,NA,NA,NA,NA,NA,NA,NA,NA,NA,NA,29,"2007-07-10T09:53:00",NA,29,NA,NA,NA,NA,NA,NA
"GLP003","LB","107001351",NA,97,NA,NA,NA,"CREAT","Creatinine","SERUM CHEMISTRY",NA,"0.34","mg/dL",NA,NA,"0.34",0.34,"mg/dL",NA,NA,NA,NA,NA,NA,NA,"SERUM",NA,NA,NA,NA,NA,NA,NA,NA,NA,NA,NA,NA,NA,NA,NA,29,"2007-07-10T09:53:00",NA,29,NA,NA,NA,NA,NA,NA
"GLP003","LB","107001351",NA,98,NA,NA,NA,"GLOBUL","Globulin","SERUM CHEMISTRY",NA,"3.2","g/dL",NA,NA,"3.2",3.2,"g/dL",NA,NA,NA,NA,NA,NA,NA,"SERUM",NA,NA,NA,NA,NA,NA,NA,NA,NA,NA,NA,NA,NA,NA,NA,29,"2007-07-10T09:53:00",NA,29,NA,NA,NA,NA,NA,NA
"GLP003","LB","107001351",NA,99,NA,NA,NA,"GLUC","Glucose","SERUM CHEMISTRY",NA,"95","mg/dL",NA,NA,"95",95,"mg/dL",NA,NA,NA,NA,NA,NA,NA,"SERUM",NA,NA,NA,NA,NA,NA,NA,NA,NA,NA,NA,NA,NA,NA,NA,29,"2007-07-10T09:53:00",NA,29,NA,NA,NA,NA,NA,NA
"GLP003","LB","107001351",NA,100,NA,NA,NA,"K","Potassium","SERUM CHEMISTRY",NA,"5.2","mEq/L",NA,NA,"5.2",5.2,"mEq/L",NA,NA,NA,NA,NA,NA,NA,"SERUM",NA,NA,NA,NA,NA,NA,NA,NA,NA,NA,NA,NA,NA,NA,NA,29,"2007-07-10T09:53:00",NA,29,NA,NA,NA,NA,NA,NA
"GLP003","LB","107001351",NA,101,NA,NA,NA,"PHOS","Phosphate","SERUM CHEMISTRY",NA,"7.4","mg/dL",NA,NA,"7.4",7.4,"mg/dL",NA,NA,NA,NA,NA,NA,NA,"SERUM",NA,NA,NA,NA,NA,NA,NA,NA,NA,NA,NA,NA,NA,NA,NA,29,"2007-07-10T09:53:00",NA,29,NA,NA,NA,NA,NA,NA
"GLP003","LB","107001351",NA,102,NA,NA,NA,"SODIUM","Sodium","SERUM CHEMISTRY",NA,"145","mEq/L",NA,NA,"145",145,"mEq/L",NA,NA,NA,NA,NA,NA,NA,"SERUM",NA,NA,NA,NA,NA,NA,NA,NA,NA,NA,NA,NA,NA,NA,NA,29,"2007-07-10T09:53:00",NA,29,NA,NA,NA,NA,NA,NA
"GLP003","LB","107001351",NA,103,NA,NA,NA,"BILI","Bilirubin","SERUM CHEMISTRY",NA,"0.11","mg/dL",NA,NA,"0.11",0.11,"mg/dL",NA,NA,NA,NA,NA,NA,NA,"SERUM",NA,NA,NA,NA,NA,NA,NA,NA,NA,NA,NA,NA,NA,NA,NA,29,"2007-07-10T09:53:00",NA,29,NA,NA,NA,NA,NA,NA
"GLP003","LB","107001351",NA,104,NA,NA,NA,"PROT","Protein","SERUM CHEMISTRY",NA,"7.0","g/dL",NA,NA,"7.0",7,"g/dL",NA,NA,NA,NA,NA,NA,NA,"SERUM",NA,NA,NA,NA,NA,NA,NA,NA,NA,NA,NA,NA,NA,NA,NA,29,"2007-07-10T09:53:00",NA,29,NA,NA,NA,NA,NA,NA
"GLP003","LB","107001351",NA,105,NA,NA,NA,"TRIG","Triglycerides","SERUM CHEMISTRY",NA,"30","mg/dL",NA,NA,"30",30,"mg/dL",NA,NA,NA,NA,NA,NA,NA,"SERUM",NA,NA,NA,NA,NA,NA,NA,NA,NA,NA,NA,NA,NA,NA,NA,29,"2007-07-10T09:53:00",NA,29,NA,NA,NA,NA,NA,NA
"GLP003","LB","107001351",NA,106,NA,NA,NA,"CLARITY","Clarity","URINALYSIS",NA,"CLEAR",NA,NA,NA,"CLEAR",NA,NA,NA,NA,NA,NA,NA,NA,NA,"URINE",NA,NA,NA,NA,NA,NA,NA,NA,NA,NA,NA,NA,NA,NA,NA,29,"2007-07-10T07:34:00",NA,29,NA,NA,NA,NA,NA,NA
"GLP003","LB","107001351",NA,107,NA,NA,NA,"COLOR","Color","URINALYSIS",NA,"YELLOW",NA,NA,NA,"YELLOW",NA,NA,NA,NA,NA,NA,NA,NA,NA,"URINE",NA,NA,NA,NA,NA,NA,NA,NA,NA,NA,NA,NA,NA,NA,NA,29,"2007-07-10T07:34:00",NA,29,NA,NA,NA,NA,NA,NA
"GLP003","LB","107001351",NA,108,NA,NA,NA,"BILI","Bilirubin","URINALYSIS",NA,"NEGATIVE",NA,NA,NA,"NEGATIVE",NA,NA,NA,NA,NA,NA,NA,NA,NA,"URINE",NA,NA,NA,NA,NA,NA,NA,"Atlas",NA,NA,NA,NA,NA,NA,NA,29,"2007-07-10T07:34:00",NA,29,NA,NA,NA,NA,NA,NA
"GLP003","LB","107001351",NA,109,NA,NA,NA,"GLUC","Glucose","URINALYSIS",NA,"NEGATIVE",NA,NA,NA,"NEGATIVE",NA,NA,NA,NA,NA,NA,NA,NA,NA,"URINE",NA,NA,NA,NA,NA,NA,NA,"Atlas, qualitative",NA,NA,NA,NA,NA,NA,NA,29,"2007-07-10T07:34:00",NA,29,NA,NA,NA,NA,NA,NA
"GLP003","LB","107001351",NA,110,NA,NA,NA,"OCCBLD","Occult Blood","URINALYSIS",NA,"NEGATIVE",NA,NA,NA,"NEGATIVE",NA,NA,NA,NA,NA,NA,NA,NA,NA,"URINE",NA,NA,NA,NA,NA,NA,NA,NA,NA,NA,NA,NA,NA,NA,NA,29,"2007-07-10T07:34:00",NA,29,NA,NA,NA,NA,NA,NA
"GLP003","LB","107001351",NA,111,NA,NA,NA,"KETONES","Ketones","URINALYSIS",NA,"TRACE",NA,NA,NA,"TRACE",NA,NA,NA,NA,NA,NA,NA,NA,NA,"URINE",NA,NA,NA,NA,NA,NA,NA,NA,NA,NA,NA,NA,NA,NA,NA,29,"2007-07-10T07:34:00",NA,29,NA,NA,NA,NA,NA,NA
"GLP003","LB","107001351",NA,112,NA,NA,NA,"PH","pH","URINALYSIS",NA,"6.5","pH",NA,NA,"6.5",6.5,"pH",NA,NA,NA,NA,NA,NA,NA,"URINE",NA,NA,NA,NA,NA,NA,NA,NA,NA,NA,NA,NA,NA,NA,NA,29,"2007-07-10T07:34:00",NA,29,NA,NA,NA,NA,NA,NA
"GLP003","LB","107001351",NA,113,NA,NA,NA,"SPGRAV","Specific Gravity","URINALYSIS",NA,"1.017",NA,NA,NA,"1.017",1.017,NA,NA,NA,NA,NA,NA,NA,NA,"URINE",NA,NA,NA,NA,NA,NA,NA,NA,NA,NA,NA,NA,NA,NA,NA,29,"2007-07-10T07:34:00",NA,29,NA,NA,NA,NA,NA,NA
"GLP003","LB","107001351",NA,114,NA,NA,NA,"UROBIL","Urobilinogen","URINALYSIS",NA,"0.2","mg/dL",NA,NA,"0.2",0.2,"mg/dL",NA,NA,NA,NA,NA,NA,NA,"URINE",NA,NA,NA,NA,NA,NA,NA,NA,NA,NA,NA,NA,NA,NA,NA,29,"2007-07-10T07:34:00",NA,29,NA,NA,NA,NA,NA,NA
"GLP003","LB","107001351",NA,115,NA,NA,NA,"VOLUME","Volume","URINALYSIS",NA,"15","mL",NA,NA,"15",15,"mL",NA,NA,NA,NA,NA,NA,NA,"URINE",NA,NA,NA,NA,NA,NA,NA,NA,NA,NA,NA,NA,NA,NA,NA,29,"2007-07-10T10:53:00",NA,29,NA,NA,NA,NA,NA,NA
"GLP003","LB","107001351",NA,116,NA,NA,NA,"ANISO","Anisocytes","HEMATOLOGY",NA,"-",NA,NA,NA,"-",NA,NA,NA,NA,NA,NA,NA,NA,NA,"WHOLE BLOOD",NA,NA,NA,NA,NA,NA,NA,NA,NA,NA,NA,NA,NA,NA,NA,29,"2007-07-10T09:00:00",NA,29,NA,NA,NA,NA,NA,NA
"GLP003","LB","107001351",NA,117,NA,NA,NA,"RBCINCL","RBC Inclusions","HEMATOLOGY",NA,"-",NA,NA,NA,"-",NA,NA,NA,NA,NA,NA,NA,NA,NA,"WHOLE BLOOD",NA,NA,NA,NA,NA,NA,NA,NA,NA,NA,NA,NA,NA,NA,NA,29,"2007-07-10T09:00:00",NA,29,NA,NA,NA,NA,NA,NA
"GLP003","LB","107001351",NA,118,NA,NA,NA,"PLATM","Platelet Morphology","HEMATOLOGY",NA,"-",NA,NA,NA,"-",NA,NA,NA,NA,NA,NA,NA,NA,NA,"WHOLE BLOOD",NA,NA,NA,NA,NA,NA,NA,NA,NA,NA,NA,NA,NA,NA,NA,29,"2007-07-10T09:00:00",NA,29,NA,NA,NA,NA,NA,NA
"GLP003","LB","107001351",NA,119,NA,NA,NA,"POIKILO","Poikilocytes","HEMATOLOGY",NA,"3+",NA,NA,NA,"3+",NA,NA,NA,NA,NA,NA,NA,NA,NA,"WHOLE BLOOD",NA,NA,NA,NA,NA,NA,NA,NA,NA,NA,NA,NA,NA,NA,NA,29,"2007-07-10T09:00:00",NA,29,NA,NA,NA,NA,NA,NA
"GLP003","LB","107001351",NA,120,NA,NA,NA,"POLYCHR","Polychromasia","HEMATOLOGY",NA,"-",NA,NA,NA,"-",NA,NA,NA,NA,NA,NA,NA,NA,NA,"WHOLE BLOOD",NA,NA,NA,NA,NA,NA,NA,NA,NA,NA,NA,NA,NA,NA,NA,29,"2007-07-10T09:00:00",NA,29,NA,NA,NA,NA,NA,NA
"GLP003","LB","107001351",NA,121,NA,NA,NA,"WBCMORPH","Leukocyte Cell Morphology","HEMATOLOGY",NA,"-",NA,NA,NA,"-",NA,NA,NA,NA,NA,NA,NA,NA,NA,"WHOLE BLOOD",NA,NA,NA,NA,NA,NA,NA,NA,NA,NA,NA,NA,NA,NA,NA,29,"2007-07-10T09:00:00",NA,29,NA,NA,NA,NA,NA,NA
"GLP003","LB","107001351",NA,122,NA,NA,NA,"CYAMORPH","Amorphous Crystals","URINALYSIS",NA,"1+",NA,NA,NA,"1+",NA,NA,NA,NA,NA,NA,NA,NA,NA,"URINE",NA,NA,NA,NA,NA,NA,NA,NA,NA,NA,NA,NA,NA,NA,NA,29,"2007-07-10T07:34:00",NA,29,NA,NA,NA,NA,NA,NA
"GLP003","LB","107001351",NA,123,NA,NA,NA,"BACT","Bacteria","URINALYSIS",NA,"2+",NA,NA,NA,"2+",NA,NA,NA,NA,NA,NA,NA,NA,NA,"URINE",NA,NA,NA,NA,NA,NA,NA,NA,NA,NA,NA,NA,NA,NA,NA,29,"2007-07-10T07:34:00",NA,29,NA,NA,NA,NA,NA,NA
"GLP003","LB","107001351",NA,124,NA,NA,NA,"CYCACAR","Calcium Carbonate Crystals","URINALYSIS",NA,"-",NA,NA,NA,"-",NA,NA,NA,NA,NA,NA,NA,NA,NA,"URINE",NA,NA,NA,NA,NA,NA,NA,NA,NA,NA,NA,NA,NA,NA,NA,29,"2007-07-10T07:34:00",NA,29,NA,NA,NA,NA,NA,NA
"GLP003","LB","107001351",NA,125,NA,NA,NA,"CYCAOXA","Calcium Oxalate Crystals","URINALYSIS",NA,"-",NA,NA,NA,"-",NA,NA,NA,NA,NA,NA,NA,NA,NA,"URINE",NA,NA,NA,NA,NA,NA,NA,NA,NA,NA,NA,NA,NA,NA,NA,29,"2007-07-10T07:34:00",NA,29,NA,NA,NA,NA,NA,NA
"GLP003","LB","107001351",NA,126,NA,NA,NA,"EPIC","Epithelial Cells","URINALYSIS",NA,"-",NA,NA,NA,"-",NA,NA,NA,NA,NA,NA,NA,NA,NA,"URINE",NA,NA,NA,NA,NA,NA,NA,NA,NA,NA,NA,NA,NA,NA,NA,29,"2007-07-10T07:34:00",NA,29,NA,NA,NA,NA,NA,NA
"GLP003","LB","107001351",NA,127,NA,NA,NA,"CASTS","Casts","URINALYSIS",NA,"-",NA,NA,NA,"-",NA,NA,NA,NA,NA,NA,NA,NA,NA,"URINE",NA,NA,NA,NA,NA,NA,NA,NA,NA,NA,NA,NA,NA,NA,NA,29,"2007-07-10T07:34:00",NA,29,NA,NA,NA,NA,NA,NA
"GLP003","LB","107001351",NA,128,NA,NA,NA,"MISC","Miscellaneous Cell Types","URINALYSIS",NA,"-",NA,NA,NA,"-",NA,NA,NA,NA,NA,NA,NA,NA,NA,"URINE",NA,NA,NA,NA,NA,NA,NA,NA,NA,NA,NA,NA,NA,NA,NA,29,"2007-07-10T07:34:00",NA,29,NA,NA,NA,NA,NA,NA
"GLP003","LB","107001351",NA,129,NA,NA,NA,"CYTRPHOS","Triple Phosphate Crystals","URINALYSIS",NA,"-",NA,NA,NA,"-",NA,NA,NA,NA,NA,NA,NA,NA,NA,"URINE",NA,NA,NA,NA,NA,NA,NA,NA,NA,NA,NA,NA,NA,NA,NA,29,"2007-07-10T07:34:00",NA,29,NA,NA,NA,NA,NA,NA
"GLP003","LB","107001351",NA,130,NA,NA,NA,"SPERM","Spermatozoa","URINALYSIS",NA,"1+",NA,NA,NA,"1+",NA,NA,NA,NA,NA,NA,NA,NA,NA,"URINE",NA,NA,NA,NA,NA,NA,NA,NA,NA,NA,NA,NA,NA,NA,NA,29,"2007-07-10T07:34:00",NA,29,NA,NA,NA,NA,NA,NA
"GLP003","LB","107001351",NA,131,NA,NA,NA,"WBC","Leukocytes","URINALYSIS",NA,"-",NA,NA,NA,"-",NA,NA,NA,NA,NA,NA,NA,NA,NA,"URINE",NA,NA,NA,NA,NA,NA,NA,NA,NA,NA,NA,NA,NA,NA,NA,29,"2007-07-10T07:34:00",NA,29,NA,NA,NA,NA,NA,NA
"GLP003","LB","107001351",NA,132,NA,NA,NA,"RBC","Erythrocytes","URINALYSIS",NA,"-",NA,NA,NA,"-",NA,NA,NA,NA,NA,NA,NA,NA,NA,"URINE",NA,NA,NA,NA,NA,NA,NA,NA,NA,NA,NA,NA,NA,NA,NA,29,"2007-07-10T07:34:00",NA,29,NA,NA,NA,NA,NA,NA
"GLP003","LB","107001351",NA,133,NA,NA,NA,"CRYOTHER","Other Crystals","URINALYSIS",NA,"-",NA,NA,NA,"-",NA,NA,NA,NA,NA,NA,NA,NA,NA,"URINE",NA,NA,NA,NA,NA,NA,NA,NA,NA,NA,NA,NA,NA,NA,NA,29,"2007-07-10T07:34:00",NA,29,NA,NA,NA,NA,NA,NA
"GLP003","LB","107001351",NA,134,NA,NA,NA,"PROT","Protein","URINALYSIS",NA,"63","mg/dL",NA,NA,"63",63,"mg/dL",NA,NA,NA,NA,NA,NA,NA,"URINE",NA,NA,NA,NA,NA,NA,NA,NA,NA,NA,NA,NA,NA,NA,NA,29,"2007-07-09T16:53:00",NA,28,NA,NA,NA,NA,NA,NA
"GLP003","LB","107001351",NA,135,NA,NA,NA,"BICARB","Bicarbonate","SERUM CHEMISTRY",NA,"21","mmol/L",NA,NA,"21",21,"mmol/L",NA,NA,NA,NA,NA,NA,NA,"SERUM",NA,NA,NA,NA,NA,NA,NA,NA,NA,NA,NA,NA,NA,NA,NA,29,"2007-07-10T09:53:00",NA,29,NA,NA,NA,NA,NA,NA
"GLP003","LB","107001351",NA,137,NA,NA,NA,"RBCMORPH","Erythrocyte Cell Morphology","HEMATOLOGY",NA,"-",NA,NA,NA,"-",NA,NA,NA,NA,NA,NA,NA,NA,NA,"WHOLE BLOOD",NA,NA,NA,NA,NA,NA,NA,NA,NA,NA,NA,NA,NA,NA,NA,29,"2007-07-10T09:00:00",NA,29,NA,NA,NA,NA,NA,NA
"GLP003","LB","107001351",NA,138,NA,NA,NA,"WBC","Leukocytes","HEMATOLOGY",NA,"10.29","10^9/L",NA,NA,"10.29",10.29,"10^9/L",NA,NA,NA,NA,NA,NA,NA,"WHOLE BLOOD",NA,NA,NA,NA,NA,NA,NA,NA,NA,NA,NA,NA,NA,NA,NA,43,"2007-07-24T08:35:00",NA,43,NA,NA,NA,NA,NA,NA
"GLP003","LB","107001351",NA,139,NA,NA,NA,"RBC","Erythrocytes","HEMATOLOGY",NA,"8.24","10^12/L",NA,NA,"8.24",8.24,"10^12/L",NA,NA,NA,NA,NA,NA,NA,"WHOLE BLOOD",NA,NA,NA,NA,NA,NA,NA,NA,NA,NA,NA,NA,NA,NA,NA,43,"2007-07-24T08:35:00",NA,43,NA,NA,NA,NA,NA,NA
"GLP003","LB","107001351",NA,140,NA,NA,NA,"HGB","Hemoglobin","HEMATOLOGY",NA,"15.5","g/dL",NA,NA,"15.5",15.5,"g/dL",NA,NA,NA,NA,NA,NA,NA,"WHOLE BLOOD",NA,NA,NA,NA,NA,NA,NA,NA,NA,NA,NA,NA,NA,NA,NA,43,"2007-07-24T08:35:00",NA,43,NA,NA,NA,NA,NA,NA
"GLP003","LB","107001351",NA,141,NA,NA,NA,"HCT","Hematocrit","HEMATOLOGY",NA,"45.6","%",NA,NA,"45.6",45.6,"%",NA,NA,NA,NA,NA,NA,NA,"WHOLE BLOOD",NA,NA,NA,NA,NA,NA,NA,NA,NA,NA,NA,NA,NA,NA,NA,43,"2007-07-24T08:35:00",NA,43,NA,NA,NA,NA,NA,NA
"GLP003","LB","107001351",NA,142,NA,NA,NA,"MCV","Ery. Mean Corpuscular Volume","HEMATOLOGY",NA,"55.4","fL",NA,NA,"55.4",55.4,"fL",NA,NA,NA,NA,NA,NA,NA,"WHOLE BLOOD",NA,NA,NA,NA,NA,NA,NA,NA,NA,NA,NA,NA,NA,NA,NA,43,"2007-07-24T08:35:00",NA,43,NA,NA,NA,NA,NA,NA
"GLP003","LB","107001351",NA,143,NA,NA,NA,"MCH","Ery. Mean Corpuscular Hemoglobin","HEMATOLOGY",NA,"18.8","pg",NA,NA,"18.8",18.8,"pg",NA,NA,NA,NA,NA,NA,NA,"WHOLE BLOOD",NA,NA,NA,NA,NA,NA,NA,NA,NA,NA,NA,NA,NA,NA,NA,43,"2007-07-24T08:35:00",NA,43,NA,NA,NA,NA,NA,NA
"GLP003","LB","107001351",NA,144,NA,NA,NA,"MCHC","Ery. Mean Corpuscular HGB Concentration","HEMATOLOGY",NA,"34.0","g/dL",NA,NA,"34.0",34,"g/dL",NA,NA,NA,NA,NA,NA,NA,"WHOLE BLOOD",NA,NA,NA,NA,NA,NA,NA,NA,NA,NA,NA,NA,NA,NA,NA,43,"2007-07-24T08:35:00",NA,43,NA,NA,NA,NA,NA,NA
"GLP003","LB","107001351",NA,145,NA,NA,NA,"RDW","Erythrocytes Distribution Width","HEMATOLOGY",NA,"14.9","%",NA,NA,"14.9",14.9,"%",NA,NA,NA,NA,NA,NA,NA,"WHOLE BLOOD",NA,NA,NA,NA,NA,NA,NA,NA,NA,NA,NA,NA,NA,NA,NA,43,"2007-07-24T08:35:00",NA,43,NA,NA,NA,NA,NA,NA
"GLP003","LB","107001351",NA,146,NA,NA,NA,"PLAT","Platelets","HEMATOLOGY",NA,"960","10^9/L",NA,NA,"960",960,"10^9/L",NA,NA,NA,NA,NA,NA,NA,"WHOLE BLOOD",NA,NA,NA,NA,NA,NA,NA,NA,NA,NA,NA,NA,NA,NA,NA,43,"2007-07-24T08:35:00",NA,43,NA,NA,NA,NA,NA,NA
"GLP003","LB","107001351",NA,147,NA,NA,NA,"RETIRBC","Reticulocytes/Erythrocytes","HEMATOLOGY",NA,"3.8","%",NA,NA,"3.8",3.8,"%",NA,NA,NA,NA,NA,NA,NA,"WHOLE BLOOD",NA,NA,NA,NA,NA,NA,NA,NA,NA,NA,NA,NA,NA,NA,NA,43,"2007-07-24T08:35:00",NA,43,NA,NA,NA,NA,NA,NA
"GLP003","LB","107001351",NA,148,NA,NA,NA,"RETI","Reticulocytes","HEMATOLOGY",NA,"0.310","10^12/L",NA,NA,"0.310",0.31,"10^12/L",NA,NA,NA,NA,NA,NA,NA,"WHOLE BLOOD",NA,NA,NA,NA,NA,NA,NA,NA,NA,NA,NA,NA,NA,NA,NA,43,"2007-07-24T08:35:00",NA,43,NA,NA,NA,NA,NA,NA
"GLP003","LB","107001351",NA,149,NA,NA,NA,"NEUT","Neutrophils","HEMATOLOGY",NA,"1.37","10^9/L",NA,NA,"1.37",1.37,"10^9/L",NA,NA,NA,NA,NA,NA,NA,"WHOLE BLOOD",NA,NA,NA,NA,NA,NA,NA,NA,NA,NA,NA,NA,NA,NA,NA,43,"2007-07-24T08:35:00",NA,43,NA,NA,NA,NA,NA,NA
"GLP003","LB","107001351",NA,150,NA,NA,NA,"LYM","Lymphocytes","HEMATOLOGY",NA,"8.05","10^9/L",NA,NA,"8.05",8.05,"10^9/L",NA,NA,NA,NA,NA,NA,NA,"WHOLE BLOOD",NA,NA,NA,NA,NA,NA,NA,NA,NA,NA,NA,NA,NA,NA,NA,43,"2007-07-24T08:35:00",NA,43,NA,NA,NA,NA,NA,NA
"GLP003","LB","107001351",NA,151,NA,NA,NA,"MONO","Monocytes","HEMATOLOGY",NA,"0.48","10^9/L",NA,NA,"0.48",0.48,"10^9/L",NA,NA,NA,NA,NA,NA,NA,"WHOLE BLOOD",NA,NA,NA,NA,NA,NA,NA,NA,NA,NA,NA,NA,NA,NA,NA,43,"2007-07-24T08:35:00",NA,43,NA,NA,NA,NA,NA,NA
"GLP003","LB","107001351",NA,152,NA,NA,NA,"EOS","Eosinophils","HEMATOLOGY",NA,"0.08","10^9/L",NA,NA,"0.08",0.08,"10^9/L",NA,NA,NA,NA,NA,NA,NA,"WHOLE BLOOD",NA,NA,NA,NA,NA,NA,NA,NA,NA,NA,NA,NA,NA,NA,NA,43,"2007-07-24T08:35:00",NA,43,NA,NA,NA,NA,NA,NA
"GLP003","LB","107001351",NA,153,NA,NA,NA,"BASO","Basophils","HEMATOLOGY",NA,"0.06","10^9/L",NA,NA,"0.06",0.06,"10^9/L",NA,NA,NA,NA,NA,NA,NA,"WHOLE BLOOD",NA,NA,NA,NA,NA,NA,NA,NA,NA,NA,NA,NA,NA,NA,NA,43,"2007-07-24T08:35:00",NA,43,NA,NA,NA,NA,NA,NA
"GLP003","LB","107001351",NA,154,NA,NA,NA,"LGUNSCE","Large Unstained Cells","HEMATOLOGY",NA,"0.24","10^9/L",NA,NA,"0.24",0.24,"10^9/L",NA,NA,NA,NA,NA,NA,NA,"WHOLE BLOOD",NA,NA,NA,NA,NA,NA,NA,NA,NA,NA,NA,NA,NA,NA,NA,43,"2007-07-24T08:35:00",NA,43,NA,NA,NA,NA,NA,NA
"GLP003","LB","107001351",NA,155,NA,NA,NA,"ALT","Alanine Aminotransferase","SERUM CHEMISTRY",NA,"35","U/L",NA,NA,"35",35,"U/L",NA,NA,NA,NA,NA,NA,NA,"SERUM",NA,NA,NA,NA,NA,NA,NA,NA,NA,NA,NA,NA,NA,NA,NA,43,"2007-07-24T07:25:00",NA,43,NA,NA,NA,NA,NA,NA
"GLP003","LB","107001351",NA,156,NA,NA,NA,"ALB","Albumin","SERUM CHEMISTRY",NA,"3.7","g/dL",NA,NA,"3.7",3.7,"g/dL",NA,NA,NA,NA,NA,NA,NA,"SERUM",NA,NA,NA,NA,NA,NA,NA,NA,NA,NA,NA,NA,NA,NA,NA,43,"2007-07-24T07:25:00",NA,43,NA,NA,NA,NA,NA,NA
"GLP003","LB","107001351",NA,157,NA,NA,NA,"ALBGLOB","Albumin/Globulin","SERUM CHEMISTRY",NA,"1.2","RATIO",NA,NA,"1.2",1.2,"RATIO",NA,NA,NA,NA,NA,NA,NA,"SERUM",NA,NA,NA,NA,NA,NA,NA,NA,NA,NA,NA,NA,NA,NA,NA,43,"2007-07-24T07:25:00",NA,43,NA,NA,NA,NA,NA,NA
"GLP003","LB","107001351",NA,158,NA,NA,NA,"ALP","Alkaline Phosphatase","SERUM CHEMISTRY",NA,"120","U/L",NA,NA,"120",120,"U/L",NA,NA,NA,NA,NA,NA,NA,"SERUM",NA,NA,NA,NA,NA,NA,NA,NA,NA,NA,NA,NA,NA,NA,NA,43,"2007-07-24T07:25:00",NA,43,NA,NA,NA,NA,NA,NA
"GLP003","LB","107001351",NA,159,NA,NA,NA,"AST","Aspartate Aminotransferase","SERUM CHEMISTRY",NA,"90","U/L",NA,NA,"90",90,"U/L",NA,NA,NA,NA,NA,NA,NA,"SERUM",NA,NA,NA,NA,NA,NA,NA,NA,NA,NA,NA,NA,NA,NA,NA,43,"2007-07-24T07:25:00",NA,43,NA,NA,NA,NA,NA,NA
"GLP003","LB","107001351",NA,160,NA,NA,NA,"BUN","Blood Urea Nitrogen","SERUM CHEMISTRY",NA,"13","mg/dL",NA,NA,"13",13,"mg/dL",NA,NA,NA,NA,NA,NA,NA,"SERUM",NA,NA,NA,NA,NA,NA,NA,NA,NA,NA,NA,NA,NA,NA,NA,43,"2007-07-24T07:25:00",NA,43,NA,NA,NA,NA,NA,NA
"GLP003","LB","107001351",NA,161,NA,NA,NA,"CA","Calcium","SERUM CHEMISTRY",NA,"12.5","mg/dL",NA,NA,"12.5",12.5,"mg/dL",NA,NA,NA,NA,NA,NA,NA,"SERUM",NA,NA,NA,NA,NA,NA,NA,NA,NA,NA,NA,NA,NA,NA,NA,43,"2007-07-24T07:25:00",NA,43,NA,NA,NA,NA,NA,NA
"GLP003","LB","107001351",NA,162,NA,NA,NA,"CL","Chloride","SERUM CHEMISTRY",NA,"104","mEq/L",NA,NA,"104",104,"mEq/L",NA,NA,NA,NA,NA,NA,NA,"SERUM",NA,NA,NA,NA,NA,NA,NA,NA,NA,NA,NA,NA,NA,NA,NA,43,"2007-07-24T07:25:00",NA,43,NA,NA,NA,NA,NA,NA
"GLP003","LB","107001351",NA,163,NA,NA,NA,"CHOL","Cholesterol","SERUM CHEMISTRY",NA,"66","mg/dL",NA,NA,"66",66,"mg/dL",NA,NA,NA,NA,NA,NA,NA,"SERUM",NA,NA,NA,NA,NA,NA,NA,NA,NA,NA,NA,NA,NA,NA,NA,43,"2007-07-24T07:25:00",NA,43,NA,NA,NA,NA,NA,NA
"GLP003","LB","107001351",NA,164,NA,NA,NA,"CREAT","Creatinine","SERUM CHEMISTRY",NA,"0.36","mg/dL",NA,NA,"0.36",0.36,"mg/dL",NA,NA,NA,NA,NA,NA,NA,"SERUM",NA,NA,NA,NA,NA,NA,NA,NA,NA,NA,NA,NA,NA,NA,NA,43,"2007-07-24T07:25:00",NA,43,NA,NA,NA,NA,NA,NA
"GLP003","LB","107001351",NA,165,NA,NA,NA,"GLOBUL","Globulin","SERUM CHEMISTRY",NA,"3.2","g/dL",NA,NA,"3.2",3.2,"g/dL",NA,NA,NA,NA,NA,NA,NA,"SERUM",NA,NA,NA,NA,NA,NA,NA,NA,NA,NA,NA,NA,NA,NA,NA,43,"2007-07-24T07:25:00",NA,43,NA,NA,NA,NA,NA,NA
"GLP003","LB","107001351",NA,166,NA,NA,NA,"GLUC","Glucose","SERUM CHEMISTRY",NA,"94","mg/dL",NA,NA,"94",94,"mg/dL",NA,NA,NA,NA,NA,NA,NA,"SERUM",NA,NA,NA,NA,NA,NA,NA,NA,NA,NA,NA,NA,NA,NA,NA,43,"2007-07-24T07:25:00",NA,43,NA,NA,NA,NA,NA,NA
"GLP003","LB","107001351",NA,167,NA,NA,NA,"K","Potassium","SERUM CHEMISTRY",NA,"5.2","mEq/L",NA,NA,"5.2",5.2,"mEq/L",NA,NA,NA,NA,NA,NA,NA,"SERUM",NA,NA,NA,NA,NA,NA,NA,NA,NA,NA,NA,NA,NA,NA,NA,43,"2007-07-24T07:25:00",NA,43,NA,NA,NA,NA,NA,NA
"GLP003","LB","107001351",NA,168,NA,NA,NA,"PHOS","Phosphate","SERUM CHEMISTRY",NA,"7.3","mg/dL",NA,NA,"7.3",7.3,"mg/dL",NA,NA,NA,NA,NA,NA,NA,"SERUM",NA,NA,NA,NA,NA,NA,NA,NA,NA,NA,NA,NA,NA,NA,NA,43,"2007-07-24T07:25:00",NA,43,NA,NA,NA,NA,NA,NA
"GLP003","LB","107001351",NA,169,NA,NA,NA,"SODIUM","Sodium","SERUM CHEMISTRY",NA,"147","mEq/L",NA,NA,"147",147,"mEq/L",NA,NA,NA,NA,NA,NA,NA,"SERUM",NA,NA,NA,NA,NA,NA,NA,NA,NA,NA,NA,NA,NA,NA,NA,43,"2007-07-24T07:25:00",NA,43,NA,NA,NA,NA,NA,NA
"GLP003","LB","107001351",NA,170,NA,NA,NA,"BILI","Bilirubin","SERUM CHEMISTRY",NA,"0.10","mg/dL",NA,NA,"0.10",0.1,"mg/dL",NA,NA,NA,NA,NA,NA,NA,"SERUM",NA,NA,NA,NA,NA,NA,NA,NA,NA,NA,NA,NA,NA,NA,NA,43,"2007-07-24T07:25:00",NA,43,NA,NA,NA,NA,NA,NA
"GLP003","LB","107001351",NA,171,NA,NA,NA,"PROT","Protein","SERUM CHEMISTRY",NA,"6.9","g/dL",NA,NA,"6.9",6.9,"g/dL",NA,NA,NA,NA,NA,NA,NA,"SERUM",NA,NA,NA,NA,NA,NA,NA,NA,NA,NA,NA,NA,NA,NA,NA,43,"2007-07-24T07:25:00",NA,43,NA,NA,NA,NA,NA,NA
"GLP003","LB","107001351",NA,172,NA,NA,NA,"TRIG","Triglycerides","SERUM CHEMISTRY",NA,"41","mg/dL",NA,NA,"41",41,"mg/dL",NA,NA,NA,NA,NA,NA,NA,"SERUM",NA,NA,NA,NA,NA,NA,NA,NA,NA,NA,NA,NA,NA,NA,NA,43,"2007-07-24T07:25:00",NA,43,NA,NA,NA,NA,NA,NA
"GLP003","LB","107001351",NA,173,NA,NA,NA,"APTT","Activated Partial Thromboplastin Time","COAGULATION",NA,"16.3","sec",NA,NA,"16.3",16.3,"sec",NA,NA,NA,NA,NA,NA,NA,"PLASMA",NA,NA,NA,NA,NA,NA,NA,NA,NA,NA,NA,NA,NA,NA,NA,43,"2007-07-24T08:44:00",NA,43,NA,NA,NA,NA,NA,NA
"GLP003","LB","107001351",NA,174,NA,NA,NA,"PT","Prothrombin Time","COAGULATION",NA,"17.8","sec",NA,NA,"17.8",17.8,"sec",NA,NA,NA,NA,NA,NA,NA,"PLASMA",NA,NA,NA,NA,NA,NA,NA,NA,NA,NA,NA,NA,NA,NA,NA,43,"2007-07-24T08:44:00",NA,43,NA,NA,NA,NA,NA,NA
"GLP003","LB","107001351",NA,175,NA,NA,NA,"FIBRINO","Fibrinogen","COAGULATION",NA,"282","mg/dL",NA,NA,"282",282,"mg/dL",NA,NA,NA,NA,NA,NA,NA,"PLASMA",NA,NA,NA,NA,NA,NA,NA,NA,NA,NA,NA,NA,NA,NA,NA,43,"2007-07-24T08:44:00",NA,43,NA,NA,NA,NA,NA,NA
"GLP003","LB","107001351",NA,176,NA,NA,NA,"CLARITY","Clarity","URINALYSIS",NA,"CLEAR",NA,NA,NA,"CLEAR",NA,NA,NA,NA,NA,NA,NA,NA,NA,"URINE",NA,NA,NA,NA,NA,NA,NA,NA,NA,NA,NA,NA,NA,NA,NA,43,"2007-07-24T06:47:00",NA,43,NA,NA,NA,NA,NA,NA
"GLP003","LB","107001351",NA,177,NA,NA,NA,"COLOR","Color","URINALYSIS",NA,"YELLOW",NA,NA,NA,"YELLOW",NA,NA,NA,NA,NA,NA,NA,NA,NA,"URINE",NA,NA,NA,NA,NA,NA,NA,NA,NA,NA,NA,NA,NA,NA,NA,43,"2007-07-24T06:47:00",NA,43,NA,NA,NA,NA,NA,NA
"GLP003","LB","107001351",NA,178,NA,NA,NA,"BILI","Bilirubin","URINALYSIS",NA,"NEGATIVE",NA,NA,NA,"NEGATIVE",NA,NA,NA,NA,NA,NA,NA,NA,NA,"URINE",NA,NA,NA,NA,NA,NA,NA,"Atlas",NA,NA,NA,NA,NA,NA,NA,43,"2007-07-24T06:47:00",NA,43,NA,NA,NA,NA,NA,NA
"GLP003","LB","107001351",NA,179,NA,NA,NA,"GLUC","Glucose","URINALYSIS",NA,"NEGATIVE",NA,NA,NA,"NEGATIVE",NA,NA,NA,NA,NA,NA,NA,NA,NA,"URINE",NA,NA,NA,NA,NA,NA,NA,"Atlas, qualitative",NA,NA,NA,NA,NA,NA,NA,43,"2007-07-24T06:47:00",NA,43,NA,NA,NA,NA,NA,NA
"GLP003","LB","107001351",NA,180,NA,NA,NA,"OCCBLD","Occult Blood","URINALYSIS",NA,"NEGATIVE",NA,NA,NA,"NEGATIVE",NA,NA,NA,NA,NA,NA,NA,NA,NA,"URINE",NA,NA,NA,NA,NA,NA,NA,NA,NA,NA,NA,NA,NA,NA,NA,43,"2007-07-24T06:47:00",NA,43,NA,NA,NA,NA,NA,NA
"GLP003","LB","107001351",NA,181,NA,NA,NA,"KETONES","Ketones","URINALYSIS",NA,"TRACE",NA,NA,NA,"TRACE",NA,NA,NA,NA,NA,NA,NA,NA,NA,"URINE",NA,NA,NA,NA,NA,NA,NA,NA,NA,NA,NA,NA,NA,NA,NA,43,"2007-07-24T06:47:00",NA,43,NA,NA,NA,NA,NA,NA
"GLP003","LB","107001351",NA,182,NA,NA,NA,"PH","pH","URINALYSIS",NA,"6.5","pH",NA,NA,"6.5",6.5,"pH",NA,NA,NA,NA,NA,NA,NA,"URINE",NA,NA,NA,NA,NA,NA,NA,NA,NA,NA,NA,NA,NA,NA,NA,43,"2007-07-24T06:47:00",NA,43,NA,NA,NA,NA,NA,NA
"GLP003","LB","107001351",NA,183,NA,NA,NA,"SPGRAV","Specific Gravity","URINALYSIS",NA,"1.024",NA,NA,NA,"1.024",1.024,NA,NA,NA,NA,NA,NA,NA,NA,"URINE",NA,NA,NA,NA,NA,NA,NA,NA,NA,NA,NA,NA,NA,NA,NA,43,"2007-07-24T06:47:00",NA,43,NA,NA,NA,NA,NA,NA
"GLP003","LB","107001351",NA,184,NA,NA,NA,"UROBIL","Urobilinogen","URINALYSIS",NA,"0.2","mg/dL",NA,NA,"0.2",0.2,"mg/dL",NA,NA,NA,NA,NA,NA,NA,"URINE",NA,NA,NA,NA,NA,NA,NA,NA,NA,NA,NA,NA,NA,NA,NA,43,"2007-07-24T06:47:00",NA,43,NA,NA,NA,NA,NA,NA
"GLP003","LB","107001351",NA,185,NA,NA,NA,"VOLUME","Volume","URINALYSIS",NA,"10","mL",NA,NA,"10",10,"mL",NA,NA,NA,NA,NA,NA,NA,"URINE",NA,NA,NA,NA,NA,NA,NA,NA,NA,NA,NA,NA,NA,NA,NA,43,"2007-07-24T07:28:00",NA,43,NA,NA,NA,NA,NA,NA
"GLP003","LB","107001351",NA,186,NA,NA,NA,"ANISO","Anisocytes","HEMATOLOGY",NA,"-",NA,NA,NA,"-",NA,NA,NA,NA,NA,NA,NA,NA,NA,"WHOLE BLOOD",NA,NA,NA,NA,NA,NA,NA,NA,NA,NA,NA,NA,NA,NA,NA,43,"2007-07-24T11:01:00",NA,43,NA,NA,NA,NA,NA,NA
"GLP003","LB","107001351",NA,187,NA,NA,NA,"RBCINCL","RBC Inclusions","HEMATOLOGY",NA,"-",NA,NA,NA,"-",NA,NA,NA,NA,NA,NA,NA,NA,NA,"WHOLE BLOOD",NA,NA,NA,NA,NA,NA,NA,NA,NA,NA,NA,NA,NA,NA,NA,43,"2007-07-24T11:01:00",NA,43,NA,NA,NA,NA,NA,NA
"GLP003","LB","107001351",NA,188,NA,NA,NA,"PLATM","Platelet Morphology","HEMATOLOGY",NA,"-",NA,NA,NA,"-",NA,NA,NA,NA,NA,NA,NA,NA,NA,"WHOLE BLOOD",NA,NA,NA,NA,NA,NA,NA,NA,NA,NA,NA,NA,NA,NA,NA,43,"2007-07-24T11:01:00",NA,43,NA,NA,NA,NA,NA,NA
"GLP003","LB","107001351",NA,189,NA,NA,NA,"POIKILO","Poikilocytes","HEMATOLOGY",NA,"3+",NA,NA,NA,"3+",NA,NA,NA,NA,NA,NA,NA,NA,NA,"WHOLE BLOOD",NA,NA,NA,NA,NA,NA,NA,NA,NA,NA,NA,NA,NA,NA,NA,43,"2007-07-24T11:01:00",NA,43,NA,NA,NA,NA,NA,NA
"GLP003","LB","107001351",NA,190,NA,NA,NA,"POLYCHR","Polychromasia","HEMATOLOGY",NA,"-",NA,NA,NA,"-",NA,NA,NA,NA,NA,NA,NA,NA,NA,"WHOLE BLOOD",NA,NA,NA,NA,NA,NA,NA,NA,NA,NA,NA,NA,NA,NA,NA,43,"2007-07-24T11:01:00",NA,43,NA,NA,NA,NA,NA,NA
"GLP003","LB","107001351",NA,191,NA,NA,NA,"WBCMORPH","Leukocyte Cell Morphology","HEMATOLOGY",NA,"-",NA,NA,NA,"-",NA,NA,NA,NA,NA,NA,NA,NA,NA,"WHOLE BLOOD",NA,NA,NA,NA,NA,NA,NA,NA,NA,NA,NA,NA,NA,NA,NA,43,"2007-07-24T11:01:00",NA,43,NA,NA,NA,NA,NA,NA
"GLP003","LB","107001351",NA,192,NA,NA,NA,"CYAMORPH","Amorphous Crystals","URINALYSIS",NA,"-",NA,NA,NA,"-",NA,NA,NA,NA,NA,NA,NA,NA,NA,"URINE",NA,NA,NA,NA,NA,NA,NA,NA,NA,NA,NA,NA,NA,NA,NA,43,"2007-07-24T06:47:00",NA,43,NA,NA,NA,NA,NA,NA
"GLP003","LB","107001351",NA,193,NA,NA,NA,"BACT","Bacteria","URINALYSIS",NA,"-",NA,NA,NA,"-",NA,NA,NA,NA,NA,NA,NA,NA,NA,"URINE",NA,NA,NA,NA,NA,NA,NA,NA,NA,NA,NA,NA,NA,NA,NA,43,"2007-07-24T06:47:00",NA,43,NA,NA,NA,NA,NA,NA
"GLP003","LB","107001351",NA,194,NA,NA,NA,"CYCACAR","Calcium Carbonate Crystals","URINALYSIS",NA,"-",NA,NA,NA,"-",NA,NA,NA,NA,NA,NA,NA,NA,NA,"URINE",NA,NA,NA,NA,NA,NA,NA,NA,NA,NA,NA,NA,NA,NA,NA,43,"2007-07-24T06:47:00",NA,43,NA,NA,NA,NA,NA,NA
"GLP003","LB","107001351",NA,195,NA,NA,NA,"CYCAOXA","Calcium Oxalate Crystals","URINALYSIS",NA,"-",NA,NA,NA,"-",NA,NA,NA,NA,NA,NA,NA,NA,NA,"URINE",NA,NA,NA,NA,NA,NA,NA,NA,NA,NA,NA,NA,NA,NA,NA,43,"2007-07-24T06:47:00",NA,43,NA,NA,NA,NA,NA,NA
"GLP003","LB","107001351",NA,196,NA,NA,NA,"EPIC","Epithelial Cells","URINALYSIS",NA,"-",NA,NA,NA,"-",NA,NA,NA,NA,NA,NA,NA,NA,NA,"URINE",NA,NA,NA,NA,NA,NA,NA,NA,NA,NA,NA,NA,NA,NA,NA,43,"2007-07-24T06:47:00",NA,43,NA,NA,NA,NA,NA,NA
"GLP003","LB","107001351",NA,197,NA,NA,NA,"CASTS","Casts","URINALYSIS",NA,"-",NA,NA,NA,"-",NA,NA,NA,NA,NA,NA,NA,NA,NA,"URINE",NA,NA,NA,NA,NA,NA,NA,NA,NA,NA,NA,NA,NA,NA,NA,43,"2007-07-24T06:47:00",NA,43,NA,NA,NA,NA,NA,NA
"GLP003","LB","107001351",NA,198,NA,NA,NA,"MISC","Miscellaneous Cell Types","URINALYSIS",NA,"-",NA,NA,NA,"-",NA,NA,NA,NA,NA,NA,NA,NA,NA,"URINE",NA,NA,NA,NA,NA,NA,NA,NA,NA,NA,NA,NA,NA,NA,NA,43,"2007-07-24T06:47:00",NA,43,NA,NA,NA,NA,NA,NA
"GLP003","LB","107001351",NA,199,NA,NA,NA,"CYTRPHOS","Triple Phosphate Crystals","URINALYSIS",NA,"1+",NA,NA,NA,"1+",NA,NA,NA,NA,NA,NA,NA,NA,NA,"URINE",NA,NA,NA,NA,NA,NA,NA,NA,NA,NA,NA,NA,NA,NA,NA,43,"2007-07-24T06:47:00",NA,43,NA,NA,NA,NA,NA,NA
"GLP003","LB","107001351",NA,200,NA,NA,NA,"SPERM","Spermatozoa","URINALYSIS",NA,"2+",NA,NA,NA,"2+",NA,NA,NA,NA,NA,NA,NA,NA,NA,"URINE",NA,NA,NA,NA,NA,NA,NA,NA,NA,NA,NA,NA,NA,NA,NA,43,"2007-07-24T06:47:00",NA,43,NA,NA,NA,NA,NA,NA
"GLP003","LB","107001351",NA,201,NA,NA,NA,"WBC","Leukocytes","URINALYSIS",NA,"-",NA,NA,NA,"-",NA,NA,NA,NA,NA,NA,NA,NA,NA,"URINE",NA,NA,NA,NA,NA,NA,NA,NA,NA,NA,NA,NA,NA,NA,NA,43,"2007-07-24T06:47:00",NA,43,NA,NA,NA,NA,NA,NA
"GLP003","LB","107001351",NA,202,NA,NA,NA,"RBC","Erythrocytes","URINALYSIS",NA,"-",NA,NA,NA,"-",NA,NA,NA,NA,NA,NA,NA,NA,NA,"URINE",NA,NA,NA,NA,NA,NA,NA,NA,NA,NA,NA,NA,NA,NA,NA,43,"2007-07-24T06:47:00",NA,43,NA,NA,NA,NA,NA,NA
"GLP003","LB","107001351",NA,203,NA,NA,NA,"CRYOTHER","Other Crystals","URINALYSIS",NA,"-",NA,NA,NA,"-",NA,NA,NA,NA,NA,NA,NA,NA,NA,"URINE",NA,NA,NA,NA,NA,NA,NA,NA,NA,NA,NA,NA,NA,NA,NA,43,"2007-07-24T06:47:00",NA,43,NA,NA,NA,NA,NA,NA
"GLP003","LB","107001351",NA,204,NA,NA,NA,"PROT","Protein","URINALYSIS",NA,"91","mg/dL",NA,NA,"91",91,"mg/dL",NA,NA,NA,NA,NA,NA,NA,"URINE",NA,NA,NA,NA,NA,NA,NA,NA,NA,NA,NA,NA,NA,NA,NA,43,"2007-07-23T13:28:00",NA,42,NA,NA,NA,NA,NA,NA
"GLP003","LB","107001351",NA,205,NA,NA,NA,"BICARB","Bicarbonate","SERUM CHEMISTRY",NA,"23","mmol/L",NA,NA,"23",23,"mmol/L",NA,NA,NA,NA,NA,NA,NA,"SERUM",NA,NA,NA,NA,NA,NA,NA,NA,NA,NA,NA,NA,NA,NA,NA,43,"2007-07-24T07:25:00",NA,43,NA,NA,NA,NA,NA,NA
"GLP003","LB","107001351",NA,207,NA,NA,NA,"RBCMORPH","Erythrocyte Cell Morphology","HEMATOLOGY",NA,"-",NA,NA,NA,"-",NA,NA,NA,NA,NA,NA,NA,NA,NA,"WHOLE BLOOD",NA,NA,NA,NA,NA,NA,NA,NA,NA,NA,NA,NA,NA,NA,NA,43,"2007-07-24T11:01:00",NA,43,NA,NA,NA,NA,NA,NA
"GLP003","LB","107001355",NA,208,NA,NA,NA,"WBC","Leukocytes","HEMATOLOGY",NA,"13.51","10^9/L",NA,NA,"13.51",13.51,"10^9/L",NA,NA,NA,NA,NA,NA,NA,"WHOLE BLOOD",NA,NA,NA,NA,NA,NA,NA,NA,NA,NA,NA,NA,NA,NA,NA,30,"2007-07-11T09:00:00",NA,30,NA,NA,NA,NA,NA,NA
"GLP003","LB","107001355",NA,209,NA,NA,NA,"RBC","Erythrocytes","HEMATOLOGY",NA,"9.61","10^12/L",NA,NA,"9.61",9.61,"10^12/L",NA,NA,NA,NA,NA,NA,NA,"WHOLE BLOOD",NA,NA,NA,NA,NA,NA,NA,NA,NA,NA,NA,NA,NA,NA,NA,30,"2007-07-11T09:00:00",NA,30,NA,NA,NA,NA,NA,NA
"GLP003","LB","107001355",NA,210,NA,NA,NA,"HGB","Hemoglobin","HEMATOLOGY",NA,"18.0","g/dL",NA,NA,"18.0",18,"g/dL",NA,NA,NA,NA,NA,NA,NA,"WHOLE BLOOD",NA,NA,NA,NA,NA,NA,NA,NA,NA,NA,NA,NA,NA,NA,NA,30,"2007-07-11T09:00:00",NA,30,NA,NA,NA,NA,NA,NA
"GLP003","LB","107001355",NA,211,NA,NA,NA,"HCT","Hematocrit","HEMATOLOGY",NA,"51.6","%",NA,NA,"51.6",51.6,"%",NA,NA,NA,NA,NA,NA,NA,"WHOLE BLOOD",NA,NA,NA,NA,NA,NA,NA,NA,NA,NA,NA,NA,NA,NA,NA,30,"2007-07-11T09:00:00",NA,30,NA,NA,NA,NA,NA,NA
"GLP003","LB","107001355",NA,212,NA,NA,NA,"MCV","Ery. Mean Corpuscular Volume","HEMATOLOGY",NA,"53.7","fL",NA,NA,"53.7",53.7,"fL",NA,NA,NA,NA,NA,NA,NA,"WHOLE BLOOD",NA,NA,NA,NA,NA,NA,NA,NA,NA,NA,NA,NA,NA,NA,NA,30,"2007-07-11T09:00:00",NA,30,NA,NA,NA,NA,NA,NA
"GLP003","LB","107001355",NA,213,NA,NA,NA,"MCH","Ery. Mean Corpuscular Hemoglobin","HEMATOLOGY",NA,"18.8","pg",NA,NA,"18.8",18.8,"pg",NA,NA,NA,NA,NA,NA,NA,"WHOLE BLOOD",NA,NA,NA,NA,NA,NA,NA,NA,NA,NA,NA,NA,NA,NA,NA,30,"2007-07-11T09:00:00",NA,30,NA,NA,NA,NA,NA,NA
"GLP003","LB","107001355",NA,214,NA,NA,NA,"MCHC","Ery. Mean Corpuscular HGB Concentration","HEMATOLOGY",NA,"35.0","g/dL",NA,NA,"35.0",35,"g/dL",NA,NA,NA,NA,NA,NA,NA,"WHOLE BLOOD",NA,NA,NA,NA,NA,NA,NA,NA,NA,NA,NA,NA,NA,NA,NA,30,"2007-07-11T09:00:00",NA,30,NA,NA,NA,NA,NA,NA
"GLP003","LB","107001355",NA,215,NA,NA,NA,"RDW","Erythrocytes Distribution Width","HEMATOLOGY",NA,"11.3","%",NA,NA,"11.3",11.3,"%",NA,NA,NA,NA,NA,NA,NA,"WHOLE BLOOD",NA,NA,NA,NA,NA,NA,NA,NA,NA,NA,NA,NA,NA,NA,NA,30,"2007-07-11T09:00:00",NA,30,NA,NA,NA,NA,NA,NA
"GLP003","LB","107001355",NA,216,NA,NA,NA,"PLAT","Platelets","HEMATOLOGY",NA,"986","10^9/L",NA,NA,"986",986,"10^9/L",NA,NA,NA,NA,NA,NA,NA,"WHOLE BLOOD",NA,NA,NA,NA,NA,NA,NA,NA,NA,NA,NA,NA,NA,NA,NA,30,"2007-07-11T09:00:00",NA,30,NA,NA,NA,NA,NA,NA
"GLP003","LB","107001355",NA,217,NA,NA,NA,"RETIRBC","Reticulocytes/Erythrocytes","HEMATOLOGY",NA,"1.9","%",NA,NA,"1.9",1.9,"%",NA,NA,NA,NA,NA,NA,NA,"WHOLE BLOOD",NA,NA,NA,NA,NA,NA,NA,NA,NA,NA,NA,NA,NA,NA,NA,30,"2007-07-11T09:00:00",NA,30,NA,NA,NA,NA,NA,NA
"GLP003","LB","107001355",NA,218,NA,NA,NA,"RETI","Reticulocytes","HEMATOLOGY",NA,"0.186","10^12/L",NA,NA,"0.186",0.186,"10^12/L",NA,NA,NA,NA,NA,NA,NA,"WHOLE BLOOD",NA,NA,NA,NA,NA,NA,NA,NA,NA,NA,NA,NA,NA,NA,NA,30,"2007-07-11T09:00:00",NA,30,NA,NA,NA,NA,NA,NA
"GLP003","LB","107001355",NA,219,NA,NA,NA,"NEUT","Neutrophils","HEMATOLOGY",NA,"2.50","10^9/L",NA,NA,"2.50",2.5,"10^9/L",NA,NA,NA,NA,NA,NA,NA,"WHOLE BLOOD",NA,NA,NA,NA,NA,NA,NA,NA,NA,NA,NA,NA,NA,NA,NA,30,"2007-07-11T09:00:00",NA,30,NA,NA,NA,NA,NA,NA
"GLP003","LB","107001355",NA,220,NA,NA,NA,"LYM","Lymphocytes","HEMATOLOGY",NA,"10.15","10^9/L",NA,NA,"10.15",10.15,"10^9/L",NA,NA,NA,NA,NA,NA,NA,"WHOLE BLOOD",NA,NA,NA,NA,NA,NA,NA,NA,NA,NA,NA,NA,NA,NA,NA,30,"2007-07-11T09:00:00",NA,30,NA,NA,NA,NA,NA,NA
"GLP003","LB","107001355",NA,221,NA,NA,NA,"MONO","Monocytes","HEMATOLOGY",NA,"0.46","10^9/L",NA,NA,"0.46",0.46,"10^9/L",NA,NA,NA,NA,NA,NA,NA,"WHOLE BLOOD",NA,NA,NA,NA,NA,NA,NA,NA,NA,NA,NA,NA,NA,NA,NA,30,"2007-07-11T09:00:00",NA,30,NA,NA,NA,NA,NA,NA
"GLP003","LB","107001355",NA,222,NA,NA,NA,"EOS","Eosinophils","HEMATOLOGY",NA,"0.11","10^9/L",NA,NA,"0.11",0.11,"10^9/L",NA,NA,NA,NA,NA,NA,NA,"WHOLE BLOOD",NA,NA,NA,NA,NA,NA,NA,NA,NA,NA,NA,NA,NA,NA,NA,30,"2007-07-11T09:00:00",NA,30,NA,NA,NA,NA,NA,NA
"GLP003","LB","107001355",NA,223,NA,NA,NA,"BASO","Basophils","HEMATOLOGY",NA,"0.15","10^9/L",NA,NA,"0.15",0.15,"10^9/L",NA,NA,NA,NA,NA,NA,NA,"WHOLE BLOOD",NA,NA,NA,NA,NA,NA,NA,NA,NA,NA,NA,NA,NA,NA,NA,30,"2007-07-11T09:00:00",NA,30,NA,NA,NA,NA,NA,NA
"GLP003","LB","107001355",NA,224,NA,NA,NA,"LGUNSCE","Large Unstained Cells","HEMATOLOGY",NA,"0.13","10^9/L",NA,NA,"0.13",0.13,"10^9/L",NA,NA,NA,NA,NA,NA,NA,"WHOLE BLOOD",NA,NA,NA,NA,NA,NA,NA,NA,NA,NA,NA,NA,NA,NA,NA,30,"2007-07-11T09:00:00",NA,30,NA,NA,NA,NA,NA,NA
"GLP003","LB","107001355",NA,225,NA,NA,NA,"ALT","Alanine Aminotransferase","SERUM CHEMISTRY",NA,"77","U/L",NA,NA,"77",77,"U/L",NA,NA,NA,NA,NA,NA,NA,"SERUM",NA,NA,NA,NA,NA,NA,NA,NA,NA,NA,NA,NA,NA,NA,NA,30,"2007-07-11T08:20:00",NA,30,NA,NA,NA,NA,NA,NA
"GLP003","LB","107001355",NA,226,NA,NA,NA,"ALB","Albumin","SERUM CHEMISTRY",NA,"3.6","g/dL",NA,NA,"3.6",3.6,"g/dL",NA,NA,NA,NA,NA,NA,NA,"SERUM",NA,NA,NA,NA,NA,NA,NA,NA,NA,NA,NA,NA,NA,NA,NA,30,"2007-07-11T08:20:00",NA,30,NA,NA,NA,NA,NA,NA
"GLP003","LB","107001355",NA,227,NA,NA,NA,"ALBGLOB","Albumin/Globulin","SERUM CHEMISTRY",NA,"1.1","RATIO",NA,NA,"1.1",1.1,"RATIO",NA,NA,NA,NA,NA,NA,NA,"SERUM",NA,NA,NA,NA,NA,NA,NA,NA,NA,NA,NA,NA,NA,NA,NA,30,"2007-07-11T08:20:00",NA,30,NA,NA,NA,NA,NA,NA
"GLP003","LB","107001355",NA,228,NA,NA,NA,"ALP","Alkaline Phosphatase","SERUM CHEMISTRY",NA,"133","U/L",NA,NA,"133",133,"U/L",NA,NA,NA,NA,NA,NA,NA,"SERUM",NA,NA,NA,NA,NA,NA,NA,NA,NA,NA,NA,NA,NA,NA,NA,30,"2007-07-11T08:20:00",NA,30,NA,NA,NA,NA,NA,NA
"GLP003","LB","107001355",NA,229,NA,NA,NA,"AST","Aspartate Aminotransferase","SERUM CHEMISTRY",NA,"119","U/L",NA,NA,"119",119,"U/L",NA,NA,NA,NA,NA,NA,NA,"SERUM",NA,NA,NA,NA,NA,NA,NA,NA,NA,NA,NA,NA,NA,NA,NA,30,"2007-07-11T08:20:00",NA,30,NA,NA,NA,NA,NA,NA
"GLP003","LB","107001355",NA,230,NA,NA,NA,"BUN","Blood Urea Nitrogen","SERUM CHEMISTRY",NA,"15","mg/dL",NA,NA,"15",15,"mg/dL",NA,NA,NA,NA,NA,NA,NA,"SERUM",NA,NA,NA,NA,NA,NA,NA,NA,NA,NA,NA,NA,NA,NA,NA,30,"2007-07-11T08:20:00",NA,30,NA,NA,NA,NA,NA,NA
"GLP003","LB","107001355",NA,231,NA,NA,NA,"CA","Calcium","SERUM CHEMISTRY",NA,"12.6","mg/dL",NA,NA,"12.6",12.6,"mg/dL",NA,NA,NA,NA,NA,NA,NA,"SERUM",NA,NA,NA,NA,NA,NA,NA,NA,NA,NA,NA,NA,NA,NA,NA,30,"2007-07-11T08:20:00",NA,30,NA,NA,NA,NA,NA,NA
"GLP003","LB","107001355",NA,232,NA,NA,NA,"CL","Chloride","SERUM CHEMISTRY",NA,"100","mEq/L",NA,NA,"100",100,"mEq/L",NA,NA,NA,NA,NA,NA,NA,"SERUM",NA,NA,NA,NA,NA,NA,NA,NA,NA,NA,NA,NA,NA,NA,NA,30,"2007-07-11T08:20:00",NA,30,NA,NA,NA,NA,NA,NA
"GLP003","LB","107001355",NA,233,NA,NA,NA,"CHOL","Cholesterol","SERUM CHEMISTRY",NA,"91","mg/dL",NA,NA,"91",91,"mg/dL",NA,NA,NA,NA,NA,NA,NA,"SERUM",NA,NA,NA,NA,NA,NA,NA,NA,NA,NA,NA,NA,NA,NA,NA,30,"2007-07-11T08:20:00",NA,30,NA,NA,NA,NA,NA,NA
"GLP003","LB","107001355",NA,234,NA,NA,NA,"CREAT","Creatinine","SERUM CHEMISTRY",NA,"0.42","mg/dL",NA,NA,"0.42",0.42,"mg/dL",NA,NA,NA,NA,NA,NA,NA,"SERUM",NA,NA,NA,NA,NA,NA,NA,NA,NA,NA,NA,NA,NA,NA,NA,30,"2007-07-11T08:20:00",NA,30,NA,NA,NA,NA,NA,NA
"GLP003","LB","107001355",NA,235,NA,NA,NA,"GLOBUL","Globulin","SERUM CHEMISTRY",NA,"3.3","g/dL",NA,NA,"3.3",3.3,"g/dL",NA,NA,NA,NA,NA,NA,NA,"SERUM",NA,NA,NA,NA,NA,NA,NA,NA,NA,NA,NA,NA,NA,NA,NA,30,"2007-07-11T08:20:00",NA,30,NA,NA,NA,NA,NA,NA
"GLP003","LB","107001355",NA,236,NA,NA,NA,"GLUC","Glucose","SERUM CHEMISTRY",NA,"109","mg/dL",NA,NA,"109",109,"mg/dL",NA,NA,NA,NA,NA,NA,NA,"SERUM",NA,NA,NA,NA,NA,NA,NA,NA,NA,NA,NA,NA,NA,NA,NA,30,"2007-07-11T08:20:00",NA,30,NA,NA,NA,NA,NA,NA
"GLP003","LB","107001355",NA,237,NA,NA,NA,"K","Potassium","SERUM CHEMISTRY",NA,"6.1","mEq/L",NA,NA,"6.1",6.1,"mEq/L",NA,NA,NA,NA,NA,NA,NA,"SERUM",NA,NA,NA,NA,NA,NA,NA,NA,NA,NA,NA,NA,NA,NA,NA,30,"2007-07-11T08:20:00",NA,30,NA,NA,NA,NA,NA,NA
"GLP003","LB","107001355",NA,238,NA,NA,NA,"PHOS","Phosphate","SERUM CHEMISTRY",NA,"7.7","mg/dL",NA,NA,"7.7",7.7,"mg/dL",NA,NA,NA,NA,NA,NA,NA,"SERUM",NA,NA,NA,NA,NA,NA,NA,NA,NA,NA,NA,NA,NA,NA,NA,30,"2007-07-11T08:20:00",NA,30,NA,NA,NA,NA,NA,NA
"GLP003","LB","107001355",NA,239,NA,NA,NA,"SODIUM","Sodium","SERUM CHEMISTRY",NA,"142","mEq/L",NA,NA,"142",142,"mEq/L",NA,NA,NA,NA,NA,NA,NA,"SERUM",NA,NA,NA,NA,NA,NA,NA,NA,NA,NA,NA,NA,NA,NA,NA,30,"2007-07-11T08:20:00",NA,30,NA,NA,NA,NA,NA,NA
"GLP003","LB","107001355",NA,240,NA,NA,NA,"BILI","Bilirubin","SERUM CHEMISTRY",NA,"0.11","mg/dL",NA,NA,"0.11",0.11,"mg/dL",NA,NA,NA,NA,NA,NA,NA,"SERUM",NA,NA,NA,NA,NA,NA,NA,NA,NA,NA,NA,NA,NA,NA,NA,30,"2007-07-11T08:20:00",NA,30,NA,NA,NA,NA,NA,NA
"GLP003","LB","107001355",NA,241,NA,NA,NA,"PROT","Protein","SERUM CHEMISTRY",NA,"6.9","g/dL",NA,NA,"6.9",6.9,"g/dL",NA,NA,NA,NA,NA,NA,NA,"SERUM",NA,NA,NA,NA,NA,NA,NA,NA,NA,NA,NA,NA,NA,NA,NA,30,"2007-07-11T08:20:00",NA,30,NA,NA,NA,NA,NA,NA
"GLP003","LB","107001355",NA,242,NA,NA,NA,"TRIG","Triglycerides","SERUM CHEMISTRY",NA,"19","mg/dL",NA,NA,"19",19,"mg/dL",NA,NA,NA,NA,NA,NA,NA,"SERUM",NA,NA,NA,NA,NA,NA,NA,NA,NA,NA,NA,NA,NA,NA,NA,30,"2007-07-11T08:20:00",NA,30,NA,NA,NA,NA,NA,NA
"GLP003","LB","107001355",NA,243,NA,NA,NA,"APTT","Activated Partial Thromboplastin Time","COAGULATION",NA,"15.4","sec",NA,NA,"15.4",15.4,"sec",NA,NA,NA,NA,NA,NA,NA,"PLASMA",NA,NA,NA,NA,NA,NA,NA,NA,NA,NA,NA,NA,NA,NA,NA,30,"2007-07-11T09:00:00",NA,30,NA,NA,NA,NA,NA,NA
"GLP003","LB","107001355",NA,244,NA,NA,NA,"PT","Prothrombin Time","COAGULATION",NA,"16.8","sec",NA,NA,"16.8",16.8,"sec",NA,NA,NA,NA,NA,NA,NA,"PLASMA",NA,NA,NA,NA,NA,NA,NA,NA,NA,NA,NA,NA,NA,NA,NA,30,"2007-07-11T09:00:00",NA,30,NA,NA,NA,NA,NA,NA
"GLP003","LB","107001355",NA,245,NA,NA,NA,"FIBRINO","Fibrinogen","COAGULATION",NA,"263","mg/dL",NA,NA,"263",263,"mg/dL",NA,NA,NA,NA,NA,NA,NA,"PLASMA",NA,NA,NA,NA,NA,NA,NA,NA,NA,NA,NA,NA,NA,NA,NA,30,"2007-07-11T09:00:00",NA,30,NA,NA,NA,NA,NA,NA
"GLP003","LB","107001355",NA,246,NA,NA,NA,"CLARITY","Clarity","URINALYSIS",NA,"CLOUDY",NA,NA,NA,"CLOUDY",NA,NA,NA,NA,NA,NA,NA,NA,NA,"URINE",NA,NA,NA,NA,NA,NA,NA,NA,NA,NA,NA,NA,NA,NA,NA,30,"2007-07-11T07:28:00",NA,30,NA,NA,NA,NA,NA,NA
"GLP003","LB","107001355",NA,247,NA,NA,NA,"COLOR","Color","URINALYSIS",NA,"YELLOW",NA,NA,NA,"YELLOW",NA,NA,NA,NA,NA,NA,NA,NA,NA,"URINE",NA,NA,NA,NA,NA,NA,NA,NA,NA,NA,NA,NA,NA,NA,NA,30,"2007-07-11T07:28:00",NA,30,NA,NA,NA,NA,NA,NA
"GLP003","LB","107001355",NA,248,NA,NA,NA,"BILI","Bilirubin","URINALYSIS",NA,"NEGATIVE",NA,NA,NA,"NEGATIVE",NA,NA,NA,NA,NA,NA,NA,NA,NA,"URINE",NA,NA,NA,NA,NA,NA,NA,"Atlas",NA,NA,NA,NA,NA,NA,NA,30,"2007-07-11T07:28:00",NA,30,NA,NA,NA,NA,NA,NA
"GLP003","LB","107001355",NA,249,NA,NA,NA,"GLUC","Glucose","URINALYSIS",NA,"NEGATIVE",NA,NA,NA,"NEGATIVE",NA,NA,NA,NA,NA,NA,NA,NA,NA,"URINE",NA,NA,NA,NA,NA,NA,NA,"Atlas, qualitative",NA,NA,NA,NA,NA,NA,NA,30,"2007-07-11T07:28:00",NA,30,NA,NA,NA,NA,NA,NA
"GLP003","LB","107001355",NA,250,NA,NA,NA,"OCCBLD","Occult Blood","URINALYSIS",NA,"NEGATIVE",NA,NA,NA,"NEGATIVE",NA,NA,NA,NA,NA,NA,NA,NA,NA,"URINE",NA,NA,NA,NA,NA,NA,NA,NA,NA,NA,NA,NA,NA,NA,NA,30,"2007-07-11T07:28:00",NA,30,NA,NA,NA,NA,NA,NA
"GLP003","LB","107001355",NA,251,NA,NA,NA,"KETONES","Ketones","URINALYSIS",NA,"NEGATIVE",NA,NA,NA,"NEGATIVE",NA,NA,NA,NA,NA,NA,NA,NA,NA,"URINE",NA,NA,NA,NA,NA,NA,NA,NA,NA,NA,NA,NA,NA,NA,NA,30,"2007-07-11T07:28:00",NA,30,NA,NA,NA,NA,NA,NA
"GLP003","LB","107001355",NA,252,NA,NA,NA,"PH","pH","URINALYSIS",NA,"6.0","pH",NA,NA,"6.0",6,"pH",NA,NA,NA,NA,NA,NA,NA,"URINE",NA,NA,NA,NA,NA,NA,NA,NA,NA,NA,NA,NA,NA,NA,NA,30,"2007-07-11T07:28:00",NA,30,NA,NA,NA,NA,NA,NA
"GLP003","LB","107001355",NA,253,NA,NA,NA,"SPGRAV","Specific Gravity","URINALYSIS",NA,"1.030",NA,NA,NA,"1.030",1.03,NA,NA,NA,NA,NA,NA,NA,NA,"URINE",NA,NA,NA,NA,NA,NA,NA,NA,NA,NA,NA,NA,NA,NA,NA,30,"2007-07-11T07:28:00",NA,30,NA,NA,NA,NA,NA,NA
"GLP003","LB","107001355",NA,254,NA,NA,NA,"UROBIL","Urobilinogen","URINALYSIS",NA,"0.2","mg/dL",NA,NA,"0.2",0.2,"mg/dL",NA,NA,NA,NA,NA,NA,NA,"URINE",NA,NA,NA,NA,NA,NA,NA,NA,NA,NA,NA,NA,NA,NA,NA,30,"2007-07-11T07:28:00",NA,30,NA,NA,NA,NA,NA,NA
"GLP003","LB","107001355",NA,255,NA,NA,NA,"VOLUME","Volume","URINALYSIS",NA,"13","mL",NA,NA,"13",13,"mL",NA,NA,NA,NA,NA,NA,NA,"URINE",NA,NA,NA,NA,NA,NA,NA,NA,NA,NA,NA,NA,NA,NA,NA,30,"2007-07-11T08:20:00",NA,30,NA,NA,NA,NA,NA,NA
"GLP003","LB","107001355",NA,256,NA,NA,NA,"ANISO","Anisocytes","HEMATOLOGY",NA,"-",NA,NA,NA,"-",NA,NA,NA,NA,NA,NA,NA,NA,NA,"WHOLE BLOOD",NA,NA,NA,NA,NA,NA,NA,NA,NA,NA,NA,NA,NA,NA,NA,30,"2007-07-11T10:00:00",NA,30,NA,NA,NA,NA,NA,NA
"GLP003","LB","107001355",NA,257,NA,NA,NA,"RBCINCL","RBC Inclusions","HEMATOLOGY",NA,"-",NA,NA,NA,"-",NA,NA,NA,NA,NA,NA,NA,NA,NA,"WHOLE BLOOD",NA,NA,NA,NA,NA,NA,NA,NA,NA,NA,NA,NA,NA,NA,NA,30,"2007-07-11T10:00:00",NA,30,NA,NA,NA,NA,NA,NA
"GLP003","LB","107001355",NA,258,NA,NA,NA,"PLATM","Platelet Morphology","HEMATOLOGY",NA,"-",NA,NA,NA,"-",NA,NA,NA,NA,NA,NA,NA,NA,NA,"WHOLE BLOOD",NA,NA,NA,NA,NA,NA,NA,NA,NA,NA,NA,NA,NA,NA,NA,30,"2007-07-11T10:00:00",NA,30,NA,NA,NA,NA,NA,NA
"GLP003","LB","107001355",NA,259,NA,NA,NA,"POIKILO","Poikilocytes","HEMATOLOGY",NA,"4+",NA,NA,NA,"4+",NA,NA,NA,NA,NA,NA,NA,NA,NA,"WHOLE BLOOD",NA,NA,NA,NA,NA,NA,NA,NA,NA,NA,NA,NA,NA,NA,NA,30,"2007-07-11T10:00:00",NA,30,NA,NA,NA,NA,NA,NA
"GLP003","LB","107001355",NA,260,NA,NA,NA,"POLYCHR","Polychromasia","HEMATOLOGY",NA,"-",NA,NA,NA,"-",NA,NA,NA,NA,NA,NA,NA,NA,NA,"WHOLE BLOOD",NA,NA,NA,NA,NA,NA,NA,NA,NA,NA,NA,NA,NA,NA,NA,30,"2007-07-11T10:00:00",NA,30,NA,NA,NA,NA,NA,NA
"GLP003","LB","107001355",NA,261,NA,NA,NA,"WBCMORPH","Leukocyte Cell Morphology","HEMATOLOGY",NA,"-",NA,NA,NA,"-",NA,NA,NA,NA,NA,NA,NA,NA,NA,"WHOLE BLOOD",NA,NA,NA,NA,NA,NA,NA,NA,NA,NA,NA,NA,NA,NA,NA,30,"2007-07-11T10:00:00",NA,30,NA,NA,NA,NA,NA,NA
"GLP003","LB","107001355",NA,262,NA,NA,NA,"CYAMORPH","Amorphous Crystals","URINALYSIS",NA,"2+",NA,NA,NA,"2+",NA,NA,NA,NA,NA,NA,NA,NA,NA,"URINE",NA,NA,NA,NA,NA,NA,NA,NA,NA,NA,NA,NA,NA,NA,NA,30,"2007-07-11T07:28:00",NA,30,NA,NA,NA,NA,NA,NA
"GLP003","LB","107001355",NA,263,NA,NA,NA,"BACT","Bacteria","URINALYSIS",NA,"2+",NA,NA,NA,"2+",NA,NA,NA,NA,NA,NA,NA,NA,NA,"URINE",NA,NA,NA,NA,NA,NA,NA,NA,NA,NA,NA,NA,NA,NA,NA,30,"2007-07-11T07:28:00",NA,30,NA,NA,NA,NA,NA,NA
"GLP003","LB","107001355",NA,264,NA,NA,NA,"CYCACAR","Calcium Carbonate Crystals","URINALYSIS",NA,"-",NA,NA,NA,"-",NA,NA,NA,NA,NA,NA,NA,NA,NA,"URINE",NA,NA,NA,NA,NA,NA,NA,NA,NA,NA,NA,NA,NA,NA,NA,30,"2007-07-11T07:28:00",NA,30,NA,NA,NA,NA,NA,NA
"GLP003","LB","107001355",NA,265,NA,NA,NA,"CYCAOXA","Calcium Oxalate Crystals","URINALYSIS",NA,"-",NA,NA,NA,"-",NA,NA,NA,NA,NA,NA,NA,NA,NA,"URINE",NA,NA,NA,NA,NA,NA,NA,NA,NA,NA,NA,NA,NA,NA,NA,30,"2007-07-11T07:28:00",NA,30,NA,NA,NA,NA,NA,NA
"GLP003","LB","107001355",NA,266,NA,NA,NA,"EPIC","Epithelial Cells","URINALYSIS",NA,"-",NA,NA,NA,"-",NA,NA,NA,NA,NA,NA,NA,NA,NA,"URINE",NA,NA,NA,NA,NA,NA,NA,NA,NA,NA,NA,NA,NA,NA,NA,30,"2007-07-11T07:28:00",NA,30,NA,NA,NA,NA,NA,NA
"GLP003","LB","107001355",NA,267,NA,NA,NA,"CASTS","Casts","URINALYSIS",NA,"-",NA,NA,NA,"-",NA,NA,NA,NA,NA,NA,NA,NA,NA,"URINE",NA,NA,NA,NA,NA,NA,NA,NA,NA,NA,NA,NA,NA,NA,NA,30,"2007-07-11T07:28:00",NA,30,NA,NA,NA,NA,NA,NA
"GLP003","LB","107001355",NA,268,NA,NA,NA,"MISC","Miscellaneous Cell Types","URINALYSIS",NA,"-",NA,NA,NA,"-",NA,NA,NA,NA,NA,NA,NA,NA,NA,"URINE",NA,NA,NA,NA,NA,NA,NA,NA,NA,NA,NA,NA,NA,NA,NA,30,"2007-07-11T07:28:00",NA,30,NA,NA,NA,NA,NA,NA
"GLP003","LB","107001355",NA,269,NA,NA,NA,"CYTRPHOS","Triple Phosphate Crystals","URINALYSIS",NA,"-",NA,NA,NA,"-",NA,NA,NA,NA,NA,NA,NA,NA,NA,"URINE",NA,NA,NA,NA,NA,NA,NA,NA,NA,NA,NA,NA,NA,NA,NA,30,"2007-07-11T07:28:00",NA,30,NA,NA,NA,NA,NA,NA
"GLP003","LB","107001355",NA,270,NA,NA,NA,"SPERM","Spermatozoa","URINALYSIS",NA,"1+",NA,NA,NA,"1+",NA,NA,NA,NA,NA,NA,NA,NA,NA,"URINE",NA,NA,NA,NA,NA,NA,NA,NA,NA,NA,NA,NA,NA,NA,NA,30,"2007-07-11T07:28:00",NA,30,NA,NA,NA,NA,NA,NA
"GLP003","LB","107001355",NA,271,NA,NA,NA,"WBC","Leukocytes","URINALYSIS",NA,"-",NA,NA,NA,"-",NA,NA,NA,NA,NA,NA,NA,NA,NA,"URINE",NA,NA,NA,NA,NA,NA,NA,NA,NA,NA,NA,NA,NA,NA,NA,30,"2007-07-11T07:28:00",NA,30,NA,NA,NA,NA,NA,NA
"GLP003","LB","107001355",NA,272,NA,NA,NA,"RBC","Erythrocytes","URINALYSIS",NA,"-",NA,NA,NA,"-",NA,NA,NA,NA,NA,NA,NA,NA,NA,"URINE",NA,NA,NA,NA,NA,NA,NA,NA,NA,NA,NA,NA,NA,NA,NA,30,"2007-07-11T07:28:00",NA,30,NA,NA,NA,NA,NA,NA
"GLP003","LB","107001355",NA,273,NA,NA,NA,"CRYOTHER","Other Crystals","URINALYSIS",NA,"-",NA,NA,NA,"-",NA,NA,NA,NA,NA,NA,NA,NA,NA,"URINE",NA,NA,NA,NA,NA,NA,NA,NA,NA,NA,NA,NA,NA,NA,NA,30,"2007-07-11T07:28:00",NA,30,NA,NA,NA,NA,NA,NA
"GLP003","LB","107001355",NA,274,NA,NA,NA,"PROT","Protein","URINALYSIS",NA,"56","mg/dL",NA,NA,"56",56,"mg/dL",NA,NA,NA,NA,NA,NA,NA,"URINE",NA,NA,NA,NA,NA,NA,NA,NA,NA,NA,NA,NA,NA,NA,NA,30,"2007-07-10T14:20:00",NA,29,NA,NA,NA,NA,NA,NA
"GLP003","LB","107001355",NA,275,NA,NA,NA,"BICARB","Bicarbonate","SERUM CHEMISTRY",NA,"21","mmol/L",NA,NA,"21",21,"mmol/L",NA,NA,NA,NA,NA,NA,NA,"SERUM",NA,NA,NA,NA,NA,NA,NA,NA,NA,NA,NA,NA,NA,NA,NA,30,"2007-07-11T08:20:00",NA,30,NA,NA,NA,NA,NA,NA
"GLP003","LB","107001355",NA,277,NA,NA,NA,"RBCMORPH","Erythrocyte Cell Morphology","HEMATOLOGY",NA,"-",NA,NA,NA,"-",NA,NA,NA,NA,NA,NA,NA,NA,NA,"WHOLE BLOOD",NA,NA,NA,NA,NA,NA,NA,NA,NA,NA,NA,NA,NA,NA,NA,30,"2007-07-11T10:00:00",NA,30,NA,NA,NA,NA,NA,NA
"GLP003","LB","107001362",NA,278,NA,NA,NA,"WBC","Leukocytes","HEMATOLOGY",NA,"18.88","10^9/L",NA,NA,"18.88",18.88,"10^9/L",NA,NA,NA,NA,NA,NA,NA,"WHOLE BLOOD",NA,NA,NA,NA,NA,NA,NA,NA,NA,NA,NA,NA,NA,NA,NA,29,"2007-07-10T08:00:00",NA,29,NA,NA,NA,NA,NA,NA
"GLP003","LB","107001362",NA,279,NA,NA,NA,"RBC","Erythrocytes","HEMATOLOGY",NA,"9.37","10^12/L",NA,NA,"9.37",9.37,"10^12/L",NA,NA,NA,NA,NA,NA,NA,"WHOLE BLOOD",NA,NA,NA,NA,NA,NA,NA,NA,NA,NA,NA,NA,NA,NA,NA,29,"2007-07-10T08:00:00",NA,29,NA,NA,NA,NA,NA,NA
"GLP003","LB","107001362",NA,280,NA,NA,NA,"HGB","Hemoglobin","HEMATOLOGY",NA,"17.0","g/dL",NA,NA,"17.0",17,"g/dL",NA,NA,NA,NA,NA,NA,NA,"WHOLE BLOOD",NA,NA,NA,NA,NA,NA,NA,NA,NA,NA,NA,NA,NA,NA,NA,29,"2007-07-10T08:00:00",NA,29,NA,NA,NA,NA,NA,NA
"GLP003","LB","107001362",NA,281,NA,NA,NA,"HCT","Hematocrit","HEMATOLOGY",NA,"49.0","%",NA,NA,"49.0",49,"%",NA,NA,NA,NA,NA,NA,NA,"WHOLE BLOOD",NA,NA,NA,NA,NA,NA,NA,NA,NA,NA,NA,NA,NA,NA,NA,29,"2007-07-10T08:00:00",NA,29,NA,NA,NA,NA,NA,NA
"GLP003","LB","107001362",NA,282,NA,NA,NA,"MCV","Ery. Mean Corpuscular Volume","HEMATOLOGY",NA,"52.3","fL",NA,NA,"52.3",52.3,"fL",NA,NA,NA,NA,NA,NA,NA,"WHOLE BLOOD",NA,NA,NA,NA,NA,NA,NA,NA,NA,NA,NA,NA,NA,NA,NA,29,"2007-07-10T08:00:00",NA,29,NA,NA,NA,NA,NA,NA
"GLP003","LB","107001362",NA,283,NA,NA,NA,"MCH","Ery. Mean Corpuscular Hemoglobin","HEMATOLOGY",NA,"18.1","pg",NA,NA,"18.1",18.1,"pg",NA,NA,NA,NA,NA,NA,NA,"WHOLE BLOOD",NA,NA,NA,NA,NA,NA,NA,NA,NA,NA,NA,NA,NA,NA,NA,29,"2007-07-10T08:00:00",NA,29,NA,NA,NA,NA,NA,NA
"GLP003","LB","107001362",NA,284,NA,NA,NA,"MCHC","Ery. Mean Corpuscular HGB Concentration","HEMATOLOGY",NA,"34.7","g/dL",NA,NA,"34.7",34.7,"g/dL",NA,NA,NA,NA,NA,NA,NA,"WHOLE BLOOD",NA,NA,NA,NA,NA,NA,NA,NA,NA,NA,NA,NA,NA,NA,NA,29,"2007-07-10T08:00:00",NA,29,NA,NA,NA,NA,NA,NA
"GLP003","LB","107001362",NA,285,NA,NA,NA,"RDW","Erythrocytes Distribution Width","HEMATOLOGY",NA,"13.6","%",NA,NA,"13.6",13.6,"%",NA,NA,NA,NA,NA,NA,NA,"WHOLE BLOOD",NA,NA,NA,NA,NA,NA,NA,NA,NA,NA,NA,NA,NA,NA,NA,29,"2007-07-10T08:00:00",NA,29,NA,NA,NA,NA,NA,NA
"GLP003","LB","107001362",NA,286,NA,NA,NA,"PLAT","Platelets","HEMATOLOGY",NA,"1157","10^9/L",NA,NA,"1157",1157,"10^9/L",NA,NA,NA,NA,NA,NA,NA,"WHOLE BLOOD",NA,NA,NA,NA,NA,NA,NA,NA,NA,NA,NA,NA,NA,NA,NA,29,"2007-07-10T08:00:00",NA,29,NA,NA,NA,NA,NA,NA
"GLP003","LB","107001362",NA,287,NA,NA,NA,"RETIRBC","Reticulocytes/Erythrocytes","HEMATOLOGY",NA,"3.0","%",NA,NA,"3.0",3,"%",NA,NA,NA,NA,NA,NA,NA,"WHOLE BLOOD",NA,NA,NA,NA,NA,NA,NA,NA,NA,NA,NA,NA,NA,NA,NA,29,"2007-07-10T08:00:00",NA,29,NA,NA,NA,NA,NA,NA
"GLP003","LB","107001362",NA,288,NA,NA,NA,"RETI","Reticulocytes","HEMATOLOGY",NA,"0.278","10^12/L",NA,NA,"0.278",0.278,"10^12/L",NA,NA,NA,NA,NA,NA,NA,"WHOLE BLOOD",NA,NA,NA,NA,NA,NA,NA,NA,NA,NA,NA,NA,NA,NA,NA,29,"2007-07-10T08:00:00",NA,29,NA,NA,NA,NA,NA,NA
"GLP003","LB","107001362",NA,289,NA,NA,NA,"NEUT","Neutrophils","HEMATOLOGY",NA,"2.74","10^9/L",NA,NA,"2.74",2.74,"10^9/L",NA,NA,NA,NA,NA,NA,NA,"WHOLE BLOOD",NA,NA,NA,NA,NA,NA,NA,NA,NA,NA,NA,NA,NA,NA,NA,29,"2007-07-10T08:00:00",NA,29,NA,NA,NA,NA,NA,NA
"GLP003","LB","107001362",NA,290,NA,NA,NA,"LYM","Lymphocytes","HEMATOLOGY",NA,"15.20","10^9/L",NA,NA,"15.20",15.2,"10^9/L",NA,NA,NA,NA,NA,NA,NA,"WHOLE BLOOD",NA,NA,NA,NA,NA,NA,NA,NA,NA,NA,NA,NA,NA,NA,NA,29,"2007-07-10T08:00:00",NA,29,NA,NA,NA,NA,NA,NA
"GLP003","LB","107001362",NA,291,NA,NA,NA,"MONO","Monocytes","HEMATOLOGY",NA,"0.38","10^9/L",NA,NA,"0.38",0.38,"10^9/L",NA,NA,NA,NA,NA,NA,NA,"WHOLE BLOOD",NA,NA,NA,NA,NA,NA,NA,NA,NA,NA,NA,NA,NA,NA,NA,29,"2007-07-10T08:00:00",NA,29,NA,NA,NA,NA,NA,NA
"GLP003","LB","107001362",NA,292,NA,NA,NA,"EOS","Eosinophils","HEMATOLOGY",NA,"0.16","10^9/L",NA,NA,"0.16",0.16,"10^9/L",NA,NA,NA,NA,NA,NA,NA,"WHOLE BLOOD",NA,NA,NA,NA,NA,NA,NA,NA,NA,NA,NA,NA,NA,NA,NA,29,"2007-07-10T08:00:00",NA,29,NA,NA,NA,NA,NA,NA
"GLP003","LB","107001362",NA,293,NA,NA,NA,"BASO","Basophils","HEMATOLOGY",NA,"0.16","10^9/L",NA,NA,"0.16",0.16,"10^9/L",NA,NA,NA,NA,NA,NA,NA,"WHOLE BLOOD",NA,NA,NA,NA,NA,NA,NA,NA,NA,NA,NA,NA,NA,NA,NA,29,"2007-07-10T08:00:00",NA,29,NA,NA,NA,NA,NA,NA
"GLP003","LB","107001362",NA,294,NA,NA,NA,"LGUNSCE","Large Unstained Cells","HEMATOLOGY",NA,"0.25","10^9/L",NA,NA,"0.25",0.25,"10^9/L",NA,NA,NA,NA,NA,NA,NA,"WHOLE BLOOD",NA,NA,NA,NA,NA,NA,NA,NA,NA,NA,NA,NA,NA,NA,NA,29,"2007-07-10T08:00:00",NA,29,NA,NA,NA,NA,NA,NA
"GLP003","LB","107001362",NA,295,NA,NA,NA,"ALT","Alanine Aminotransferase","SERUM CHEMISTRY",NA,"31","U/L",NA,NA,"31",31,"U/L",NA,NA,NA,NA,NA,NA,NA,"SERUM",NA,NA,NA,NA,NA,NA,NA,NA,NA,NA,NA,NA,NA,NA,NA,29,"2007-07-10T09:53:00",NA,29,NA,NA,NA,NA,NA,NA
"GLP003","LB","107001362",NA,296,NA,NA,NA,"ALB","Albumin","SERUM CHEMISTRY",NA,"3.5","g/dL",NA,NA,"3.5",3.5,"g/dL",NA,NA,NA,NA,NA,NA,NA,"SERUM",NA,NA,NA,NA,NA,NA,NA,NA,NA,NA,NA,NA,NA,NA,NA,29,"2007-07-10T09:53:00",NA,29,NA,NA,NA,NA,NA,NA
"GLP003","LB","107001362",NA,297,NA,NA,NA,"ALBGLOB","Albumin/Globulin","SERUM CHEMISTRY",NA,"1.1","RATIO",NA,NA,"1.1",1.1,"RATIO",NA,NA,NA,NA,NA,NA,NA,"SERUM",NA,NA,NA,NA,NA,NA,NA,NA,NA,NA,NA,NA,NA,NA,NA,29,"2007-07-10T09:53:00",NA,29,NA,NA,NA,NA,NA,NA
"GLP003","LB","107001362",NA,298,NA,NA,NA,"ALP","Alkaline Phosphatase","SERUM CHEMISTRY",NA,"101","U/L",NA,NA,"101",101,"U/L",NA,NA,NA,NA,NA,NA,NA,"SERUM",NA,NA,NA,NA,NA,NA,NA,NA,NA,NA,NA,NA,NA,NA,NA,29,"2007-07-10T09:53:00",NA,29,NA,NA,NA,NA,NA,NA
"GLP003","LB","107001362",NA,299,NA,NA,NA,"AST","Aspartate Aminotransferase","SERUM CHEMISTRY",NA,"89","U/L",NA,NA,"89",89,"U/L",NA,NA,NA,NA,NA,NA,NA,"SERUM",NA,NA,NA,NA,NA,NA,NA,NA,NA,NA,NA,NA,NA,NA,NA,29,"2007-07-10T09:53:00",NA,29,NA,NA,NA,NA,NA,NA
"GLP003","LB","107001362",NA,300,NA,NA,NA,"BUN","Blood Urea Nitrogen","SERUM CHEMISTRY",NA,"12","mg/dL",NA,NA,"12",12,"mg/dL",NA,NA,NA,NA,NA,NA,NA,"SERUM",NA,NA,NA,NA,NA,NA,NA,NA,NA,NA,NA,NA,NA,NA,NA,29,"2007-07-10T09:53:00",NA,29,NA,NA,NA,NA,NA,NA
"GLP003","LB","107001362",NA,301,NA,NA,NA,"CA","Calcium","SERUM CHEMISTRY",NA,"12.4","mg/dL",NA,NA,"12.4",12.4,"mg/dL",NA,NA,NA,NA,NA,NA,NA,"SERUM",NA,NA,NA,NA,NA,NA,NA,NA,NA,NA,NA,NA,NA,NA,NA,29,"2007-07-10T09:53:00",NA,29,NA,NA,NA,NA,NA,NA
"GLP003","LB","107001362",NA,302,NA,NA,NA,"CL","Chloride","SERUM CHEMISTRY",NA,"102","mEq/L",NA,NA,"102",102,"mEq/L",NA,NA,NA,NA,NA,NA,NA,"SERUM",NA,NA,NA,NA,NA,NA,NA,NA,NA,NA,NA,NA,NA,NA,NA,29,"2007-07-10T09:53:00",NA,29,NA,NA,NA,NA,NA,NA
"GLP003","LB","107001362",NA,303,NA,NA,NA,"CHOL","Cholesterol","SERUM CHEMISTRY",NA,"43","mg/dL",NA,NA,"43",43,"mg/dL",NA,NA,NA,NA,NA,NA,NA,"SERUM",NA,NA,NA,NA,NA,NA,NA,NA,NA,NA,NA,NA,NA,NA,NA,29,"2007-07-10T09:53:00",NA,29,NA,NA,NA,NA,NA,NA
"GLP003","LB","107001362",NA,304,NA,NA,NA,"CREAT","Creatinine","SERUM CHEMISTRY",NA,"0.31","mg/dL",NA,NA,"0.31",0.31,"mg/dL",NA,NA,NA,NA,NA,NA,NA,"SERUM",NA,NA,NA,NA,NA,NA,NA,NA,NA,NA,NA,NA,NA,NA,NA,29,"2007-07-10T09:53:00",NA,29,NA,NA,NA,NA,NA,NA
"GLP003","LB","107001362",NA,305,NA,NA,NA,"GLOBUL","Globulin","SERUM CHEMISTRY",NA,"3.1","g/dL",NA,NA,"3.1",3.1,"g/dL",NA,NA,NA,NA,NA,NA,NA,"SERUM",NA,NA,NA,NA,NA,NA,NA,NA,NA,NA,NA,NA,NA,NA,NA,29,"2007-07-10T09:53:00",NA,29,NA,NA,NA,NA,NA,NA
"GLP003","LB","107001362",NA,306,NA,NA,NA,"GLUC","Glucose","SERUM CHEMISTRY",NA,"100","mg/dL",NA,NA,"100",100,"mg/dL",NA,NA,NA,NA,NA,NA,NA,"SERUM",NA,NA,NA,NA,NA,NA,NA,NA,NA,NA,NA,NA,NA,NA,NA,29,"2007-07-10T09:53:00",NA,29,NA,NA,NA,NA,NA,NA
"GLP003","LB","107001362",NA,307,NA,NA,NA,"K","Potassium","SERUM CHEMISTRY",NA,"5.5","mEq/L",NA,NA,"5.5",5.5,"mEq/L",NA,NA,NA,NA,NA,NA,NA,"SERUM",NA,NA,NA,NA,NA,NA,NA,NA,NA,NA,NA,NA,NA,NA,NA,29,"2007-07-10T09:53:00",NA,29,NA,NA,NA,NA,NA,NA
"GLP003","LB","107001362",NA,308,NA,NA,NA,"PHOS","Phosphate","SERUM CHEMISTRY",NA,"7.2","mg/dL",NA,NA,"7.2",7.2,"mg/dL",NA,NA,NA,NA,NA,NA,NA,"SERUM",NA,NA,NA,NA,NA,NA,NA,NA,NA,NA,NA,NA,NA,NA,NA,29,"2007-07-10T09:53:00",NA,29,NA,NA,NA,NA,NA,NA
"GLP003","LB","107001362",NA,309,NA,NA,NA,"SODIUM","Sodium","SERUM CHEMISTRY",NA,"143","mEq/L",NA,NA,"143",143,"mEq/L",NA,NA,NA,NA,NA,NA,NA,"SERUM",NA,NA,NA,NA,NA,NA,NA,NA,NA,NA,NA,NA,NA,NA,NA,29,"2007-07-10T09:53:00",NA,29,NA,NA,NA,NA,NA,NA
"GLP003","LB","107001362",NA,310,NA,NA,NA,"BILI","Bilirubin","SERUM CHEMISTRY",NA,"0.10","mg/dL",NA,NA,"0.10",0.1,"mg/dL",NA,NA,NA,NA,NA,NA,NA,"SERUM",NA,NA,NA,NA,NA,NA,NA,NA,NA,NA,NA,NA,NA,NA,NA,29,"2007-07-10T09:53:00",NA,29,NA,NA,NA,NA,NA,NA
"GLP003","LB","107001362",NA,311,NA,NA,NA,"PROT","Protein","SERUM CHEMISTRY",NA,"6.6","g/dL",NA,NA,"6.6",6.6,"g/dL",NA,NA,NA,NA,NA,NA,NA,"SERUM",NA,NA,NA,NA,NA,NA,NA,NA,NA,NA,NA,NA,NA,NA,NA,29,"2007-07-10T09:53:00",NA,29,NA,NA,NA,NA,NA,NA
"GLP003","LB","107001362",NA,312,NA,NA,NA,"TRIG","Triglycerides","SERUM CHEMISTRY",NA,"65","mg/dL",NA,NA,"65",65,"mg/dL",NA,NA,NA,NA,NA,NA,NA,"SERUM",NA,NA,NA,NA,NA,NA,NA,NA,NA,NA,NA,NA,NA,NA,NA,29,"2007-07-10T09:53:00",NA,29,NA,NA,NA,NA,NA,NA
"GLP003","LB","107001362",NA,313,NA,NA,NA,"CLARITY","Clarity","URINALYSIS",NA,"CLEAR",NA,NA,NA,"CLEAR",NA,NA,NA,NA,NA,NA,NA,NA,NA,"URINE",NA,NA,NA,NA,NA,NA,NA,NA,NA,NA,NA,NA,NA,NA,NA,29,"2007-07-10T07:34:00",NA,29,NA,NA,NA,NA,NA,NA
"GLP003","LB","107001362",NA,314,NA,NA,NA,"COLOR","Color","URINALYSIS",NA,"YELLOW",NA,NA,NA,"YELLOW",NA,NA,NA,NA,NA,NA,NA,NA,NA,"URINE",NA,NA,NA,NA,NA,NA,NA,NA,NA,NA,NA,NA,NA,NA,NA,29,"2007-07-10T07:34:00",NA,29,NA,NA,NA,NA,NA,NA
"GLP003","LB","107001362",NA,315,NA,NA,NA,"BILI","Bilirubin","URINALYSIS",NA,"NEGATIVE",NA,NA,NA,"NEGATIVE",NA,NA,NA,NA,NA,NA,NA,NA,NA,"URINE",NA,NA,NA,NA,NA,NA,NA,"Atlas",NA,NA,NA,NA,NA,NA,NA,29,"2007-07-10T07:34:00",NA,29,NA,NA,NA,NA,NA,NA
"GLP003","LB","107001362",NA,316,NA,NA,NA,"GLUC","Glucose","URINALYSIS",NA,"NEGATIVE",NA,NA,NA,"NEGATIVE",NA,NA,NA,NA,NA,NA,NA,NA,NA,"URINE",NA,NA,NA,NA,NA,NA,NA,"Atlas, qualitative",NA,NA,NA,NA,NA,NA,NA,29,"2007-07-10T07:34:00",NA,29,NA,NA,NA,NA,NA,NA
"GLP003","LB","107001362",NA,317,NA,NA,NA,"OCCBLD","Occult Blood","URINALYSIS",NA,"NEGATIVE",NA,NA,NA,"NEGATIVE",NA,NA,NA,NA,NA,NA,NA,NA,NA,"URINE",NA,NA,NA,NA,NA,NA,NA,NA,NA,NA,NA,NA,NA,NA,NA,29,"2007-07-10T07:34:00",NA,29,NA,NA,NA,NA,NA,NA
"GLP003","LB","107001362",NA,318,NA,NA,NA,"KETONES","Ketones","URINALYSIS",NA,"TRACE",NA,NA,NA,"TRACE",NA,NA,NA,NA,NA,NA,NA,NA,NA,"URINE",NA,NA,NA,NA,NA,NA,NA,NA,NA,NA,NA,NA,NA,NA,NA,29,"2007-07-10T07:34:00",NA,29,NA,NA,NA,NA,NA,NA
"GLP003","LB","107001362",NA,319,NA,NA,NA,"PH","pH","URINALYSIS",NA,"6.5","pH",NA,NA,"6.5",6.5,"pH",NA,NA,NA,NA,NA,NA,NA,"URINE",NA,NA,NA,NA,NA,NA,NA,NA,NA,NA,NA,NA,NA,NA,NA,29,"2007-07-10T07:34:00",NA,29,NA,NA,NA,NA,NA,NA
"GLP003","LB","107001362",NA,320,NA,NA,NA,"SPGRAV","Specific Gravity","URINALYSIS",NA,"1.031",NA,NA,NA,"1.031",1.031,NA,NA,NA,NA,NA,NA,NA,NA,"URINE",NA,NA,NA,NA,NA,NA,NA,NA,NA,NA,NA,NA,NA,NA,NA,29,"2007-07-10T07:34:00",NA,29,NA,NA,NA,NA,NA,NA
"GLP003","LB","107001362",NA,321,NA,NA,NA,"UROBIL","Urobilinogen","URINALYSIS",NA,"0.2","mg/dL",NA,NA,"0.2",0.2,"mg/dL",NA,NA,NA,NA,NA,NA,NA,"URINE",NA,NA,NA,NA,NA,NA,NA,NA,NA,NA,NA,NA,NA,NA,NA,29,"2007-07-10T07:34:00",NA,29,NA,NA,NA,NA,NA,NA
"GLP003","LB","107001362",NA,322,NA,NA,NA,"VOLUME","Volume","URINALYSIS",NA,"8","mL",NA,NA,"8",8,"mL",NA,NA,NA,NA,NA,NA,NA,"URINE",NA,NA,NA,NA,NA,NA,NA,NA,NA,NA,NA,NA,NA,NA,NA,29,"2007-07-10T10:53:00",NA,29,NA,NA,NA,NA,NA,NA
"GLP003","LB","107001362",NA,323,NA,NA,NA,"ANISO","Anisocytes","HEMATOLOGY",NA,"-",NA,NA,NA,"-",NA,NA,NA,NA,NA,NA,NA,NA,NA,"WHOLE BLOOD",NA,NA,NA,NA,NA,NA,NA,NA,NA,NA,NA,NA,NA,NA,NA,29,"2007-07-10T09:00:00",NA,29,NA,NA,NA,NA,NA,NA
"GLP003","LB","107001362",NA,324,NA,NA,NA,"RBCINCL","RBC Inclusions","HEMATOLOGY",NA,"-",NA,NA,NA,"-",NA,NA,NA,NA,NA,NA,NA,NA,NA,"WHOLE BLOOD",NA,NA,NA,NA,NA,NA,NA,NA,NA,NA,NA,NA,NA,NA,NA,29,"2007-07-10T09:00:00",NA,29,NA,NA,NA,NA,NA,NA
"GLP003","LB","107001362",NA,325,NA,NA,NA,"PLATM","Platelet Morphology","HEMATOLOGY",NA,"-",NA,NA,NA,"-",NA,NA,NA,NA,NA,NA,NA,NA,NA,"WHOLE BLOOD",NA,NA,NA,NA,NA,NA,NA,NA,NA,NA,NA,NA,NA,NA,NA,29,"2007-07-10T09:00:00",NA,29,NA,NA,NA,NA,NA,NA
"GLP003","LB","107001362",NA,326,NA,NA,NA,"POIKILO","Poikilocytes","HEMATOLOGY",NA,"4+",NA,NA,NA,"4+",NA,NA,NA,NA,NA,NA,NA,NA,NA,"WHOLE BLOOD",NA,NA,NA,NA,NA,NA,NA,NA,NA,NA,NA,NA,NA,NA,NA,29,"2007-07-10T09:00:00",NA,29,NA,NA,NA,NA,NA,NA
"GLP003","LB","107001362",NA,327,NA,NA,NA,"POLYCHR","Polychromasia","HEMATOLOGY",NA,"-",NA,NA,NA,"-",NA,NA,NA,NA,NA,NA,NA,NA,NA,"WHOLE BLOOD",NA,NA,NA,NA,NA,NA,NA,NA,NA,NA,NA,NA,NA,NA,NA,29,"2007-07-10T09:00:00",NA,29,NA,NA,NA,NA,NA,NA
"GLP003","LB","107001362",NA,328,NA,NA,NA,"WBCMORPH","Leukocyte Cell Morphology","HEMATOLOGY",NA,"-",NA,NA,NA,"-",NA,NA,NA,NA,NA,NA,NA,NA,NA,"WHOLE BLOOD",NA,NA,NA,NA,NA,NA,NA,NA,NA,NA,NA,NA,NA,NA,NA,29,"2007-07-10T09:00:00",NA,29,NA,NA,NA,NA,NA,NA
"GLP003","LB","107001362",NA,329,NA,NA,NA,"CYAMORPH","Amorphous Crystals","URINALYSIS",NA,"-",NA,NA,NA,"-",NA,NA,NA,NA,NA,NA,NA,NA,NA,"URINE",NA,NA,NA,NA,NA,NA,NA,NA,NA,NA,NA,NA,NA,NA,NA,29,"2007-07-10T07:34:00",NA,29,NA,NA,NA,NA,NA,NA
"GLP003","LB","107001362",NA,330,NA,NA,NA,"BACT","Bacteria","URINALYSIS",NA,"3+",NA,NA,NA,"3+",NA,NA,NA,NA,NA,NA,NA,NA,NA,"URINE",NA,NA,NA,NA,NA,NA,NA,NA,NA,NA,NA,NA,NA,NA,NA,29,"2007-07-10T07:34:00",NA,29,NA,NA,NA,NA,NA,NA
"GLP003","LB","107001362",NA,331,NA,NA,NA,"CYCACAR","Calcium Carbonate Crystals","URINALYSIS",NA,"-",NA,NA,NA,"-",NA,NA,NA,NA,NA,NA,NA,NA,NA,"URINE",NA,NA,NA,NA,NA,NA,NA,NA,NA,NA,NA,NA,NA,NA,NA,29,"2007-07-10T07:34:00",NA,29,NA,NA,NA,NA,NA,NA
"GLP003","LB","107001362",NA,332,NA,NA,NA,"CYCAOXA","Calcium Oxalate Crystals","URINALYSIS",NA,"-",NA,NA,NA,"-",NA,NA,NA,NA,NA,NA,NA,NA,NA,"URINE",NA,NA,NA,NA,NA,NA,NA,NA,NA,NA,NA,NA,NA,NA,NA,29,"2007-07-10T07:34:00",NA,29,NA,NA,NA,NA,NA,NA
"GLP003","LB","107001362",NA,333,NA,NA,NA,"EPIC","Epithelial Cells","URINALYSIS",NA,"-",NA,NA,NA,"-",NA,NA,NA,NA,NA,NA,NA,NA,NA,"URINE",NA,NA,NA,NA,NA,NA,NA,NA,NA,NA,NA,NA,NA,NA,NA,29,"2007-07-10T07:34:00",NA,29,NA,NA,NA,NA,NA,NA
"GLP003","LB","107001362",NA,334,NA,NA,NA,"CASTS","Casts","URINALYSIS",NA,"-",NA,NA,NA,"-",NA,NA,NA,NA,NA,NA,NA,NA,NA,"URINE",NA,NA,NA,NA,NA,NA,NA,NA,NA,NA,NA,NA,NA,NA,NA,29,"2007-07-10T07:34:00",NA,29,NA,NA,NA,NA,NA,NA
"GLP003","LB","107001362",NA,335,NA,NA,NA,"MISC","Miscellaneous Cell Types","URINALYSIS",NA,"-",NA,NA,NA,"-",NA,NA,NA,NA,NA,NA,NA,NA,NA,"URINE",NA,NA,NA,NA,NA,NA,NA,NA,NA,NA,NA,NA,NA,NA,NA,29,"2007-07-10T07:34:00",NA,29,NA,NA,NA,NA,NA,NA
"GLP003","LB","107001362",NA,336,NA,NA,NA,"CYTRPHOS","Triple Phosphate Crystals","URINALYSIS",NA,"1+",NA,NA,NA,"1+",NA,NA,NA,NA,NA,NA,NA,NA,NA,"URINE",NA,NA,NA,NA,NA,NA,NA,NA,NA,NA,NA,NA,NA,NA,NA,29,"2007-07-10T07:34:00",NA,29,NA,NA,NA,NA,NA,NA
"GLP003","LB","107001362",NA,337,NA,NA,NA,"SPERM","Spermatozoa","URINALYSIS",NA,"3+",NA,NA,NA,"3+",NA,NA,NA,NA,NA,NA,NA,NA,NA,"URINE",NA,NA,NA,NA,NA,NA,NA,NA,NA,NA,NA,NA,NA,NA,NA,29,"2007-07-10T07:34:00",NA,29,NA,NA,NA,NA,NA,NA
"GLP003","LB","107001362",NA,338,NA,NA,NA,"WBC","Leukocytes","URINALYSIS",NA,"-",NA,NA,NA,"-",NA,NA,NA,NA,NA,NA,NA,NA,NA,"URINE",NA,NA,NA,NA,NA,NA,NA,NA,NA,NA,NA,NA,NA,NA,NA,29,"2007-07-10T07:34:00",NA,29,NA,NA,NA,NA,NA,NA
"GLP003","LB","107001362",NA,339,NA,NA,NA,"RBC","Erythrocytes","URINALYSIS",NA,"-",NA,NA,NA,"-",NA,NA,NA,NA,NA,NA,NA,NA,NA,"URINE",NA,NA,NA,NA,NA,NA,NA,NA,NA,NA,NA,NA,NA,NA,NA,29,"2007-07-10T07:34:00",NA,29,NA,NA,NA,NA,NA,NA
"GLP003","LB","107001362",NA,340,NA,NA,NA,"CRYOTHER","Other Crystals","URINALYSIS",NA,"-",NA,NA,NA,"-",NA,NA,NA,NA,NA,NA,NA,NA,NA,"URINE",NA,NA,NA,NA,NA,NA,NA,NA,NA,NA,NA,NA,NA,NA,NA,29,"2007-07-10T07:34:00",NA,29,NA,NA,NA,NA,NA,NA
"GLP003","LB","107001362",NA,341,NA,NA,NA,"PROT","Protein","URINALYSIS",NA,"72","mg/dL",NA,NA,"72",72,"mg/dL",NA,NA,NA,NA,NA,NA,NA,"URINE",NA,NA,NA,NA,NA,NA,NA,NA,NA,NA,NA,NA,NA,NA,NA,29,"2007-07-09T16:53:00",NA,28,NA,NA,NA,NA,NA,NA
"GLP003","LB","107001362",NA,342,NA,NA,NA,"BICARB","Bicarbonate","SERUM CHEMISTRY",NA,"23","mmol/L",NA,NA,"23",23,"mmol/L",NA,NA,NA,NA,NA,NA,NA,"SERUM",NA,NA,NA,NA,NA,NA,NA,NA,NA,NA,NA,NA,NA,NA,NA,29,"2007-07-10T09:53:00",NA,29,NA,NA,NA,NA,NA,NA
"GLP003","LB","107001362",NA,344,NA,NA,NA,"RBCMORPH","Erythrocyte Cell Morphology","HEMATOLOGY",NA,"-",NA,NA,NA,"-",NA,NA,NA,NA,NA,NA,NA,NA,NA,"WHOLE BLOOD",NA,NA,NA,NA,NA,NA,NA,NA,NA,NA,NA,NA,NA,NA,NA,29,"2007-07-10T09:00:00",NA,29,NA,NA,NA,NA,NA,NA
"GLP003","LB","107001362",NA,345,NA,NA,NA,"WBC","Leukocytes","HEMATOLOGY",NA,"18.13","10^9/L",NA,NA,"18.13",18.13,"10^9/L",NA,NA,NA,NA,NA,NA,NA,"WHOLE BLOOD",NA,NA,NA,NA,NA,NA,NA,NA,NA,NA,NA,NA,NA,NA,NA,43,"2007-07-24T08:35:00",NA,43,NA,NA,NA,NA,NA,NA
"GLP003","LB","107001362",NA,346,NA,NA,NA,"RBC","Erythrocytes","HEMATOLOGY",NA,"9.34","10^12/L",NA,NA,"9.34",9.34,"10^12/L",NA,NA,NA,NA,NA,NA,NA,"WHOLE BLOOD",NA,NA,NA,NA,NA,NA,NA,NA,NA,NA,NA,NA,NA,NA,NA,43,"2007-07-24T08:35:00",NA,43,NA,NA,NA,NA,NA,NA
"GLP003","LB","107001362",NA,347,NA,NA,NA,"HGB","Hemoglobin","HEMATOLOGY",NA,"16.7","g/dL",NA,NA,"16.7",16.7,"g/dL",NA,NA,NA,NA,NA,NA,NA,"WHOLE BLOOD",NA,NA,NA,NA,NA,NA,NA,NA,NA,NA,NA,NA,NA,NA,NA,43,"2007-07-24T08:35:00",NA,43,NA,NA,NA,NA,NA,NA
"GLP003","LB","107001362",NA,348,NA,NA,NA,"HCT","Hematocrit","HEMATOLOGY",NA,"48.9","%",NA,NA,"48.9",48.9,"%",NA,NA,NA,NA,NA,NA,NA,"WHOLE BLOOD",NA,NA,NA,NA,NA,NA,NA,NA,NA,NA,NA,NA,NA,NA,NA,43,"2007-07-24T08:35:00",NA,43,NA,NA,NA,NA,NA,NA
"GLP003","LB","107001362",NA,349,NA,NA,NA,"MCV","Ery. Mean Corpuscular Volume","HEMATOLOGY",NA,"52.4","fL",NA,NA,"52.4",52.4,"fL",NA,NA,NA,NA,NA,NA,NA,"WHOLE BLOOD",NA,NA,NA,NA,NA,NA,NA,NA,NA,NA,NA,NA,NA,NA,NA,43,"2007-07-24T08:35:00",NA,43,NA,NA,NA,NA,NA,NA
"GLP003","LB","107001362",NA,350,NA,NA,NA,"MCH","Ery. Mean Corpuscular Hemoglobin","HEMATOLOGY",NA,"17.9","pg",NA,NA,"17.9",17.9,"pg",NA,NA,NA,NA,NA,NA,NA,"WHOLE BLOOD",NA,NA,NA,NA,NA,NA,NA,NA,NA,NA,NA,NA,NA,NA,NA,43,"2007-07-24T08:35:00",NA,43,NA,NA,NA,NA,NA,NA
"GLP003","LB","107001362",NA,351,NA,NA,NA,"MCHC","Ery. Mean Corpuscular HGB Concentration","HEMATOLOGY",NA,"34.2","g/dL",NA,NA,"34.2",34.2,"g/dL",NA,NA,NA,NA,NA,NA,NA,"WHOLE BLOOD",NA,NA,NA,NA,NA,NA,NA,NA,NA,NA,NA,NA,NA,NA,NA,43,"2007-07-24T08:35:00",NA,43,NA,NA,NA,NA,NA,NA
"GLP003","LB","107001362",NA,352,NA,NA,NA,"RDW","Erythrocytes Distribution Width","HEMATOLOGY",NA,"15.1","%",NA,NA,"15.1",15.1,"%",NA,NA,NA,NA,NA,NA,NA,"WHOLE BLOOD",NA,NA,NA,NA,NA,NA,NA,NA,NA,NA,NA,NA,NA,NA,NA,43,"2007-07-24T08:35:00",NA,43,NA,NA,NA,NA,NA,NA
"GLP003","LB","107001362",NA,353,NA,NA,NA,"PLAT","Platelets","HEMATOLOGY",NA,"1124","10^9/L",NA,NA,"1124",1124,"10^9/L",NA,NA,NA,NA,NA,NA,NA,"WHOLE BLOOD",NA,NA,NA,NA,NA,NA,NA,NA,NA,NA,NA,NA,NA,NA,NA,43,"2007-07-24T08:35:00",NA,43,NA,NA,NA,NA,NA,NA
"GLP003","LB","107001362",NA,354,NA,NA,NA,"RETIRBC","Reticulocytes/Erythrocytes","HEMATOLOGY",NA,"3.0","%",NA,NA,"3.0",3,"%",NA,NA,NA,NA,NA,NA,NA,"WHOLE BLOOD",NA,NA,NA,NA,NA,NA,NA,NA,NA,NA,NA,NA,NA,NA,NA,43,"2007-07-24T08:35:00",NA,43,NA,NA,NA,NA,NA,NA
"GLP003","LB","107001362",NA,355,NA,NA,NA,"RETI","Reticulocytes","HEMATOLOGY",NA,"0.284","10^12/L",NA,NA,"0.284",0.284,"10^12/L",NA,NA,NA,NA,NA,NA,NA,"WHOLE BLOOD",NA,NA,NA,NA,NA,NA,NA,NA,NA,NA,NA,NA,NA,NA,NA,43,"2007-07-24T08:35:00",NA,43,NA,NA,NA,NA,NA,NA
"GLP003","LB","107001362",NA,356,NA,NA,NA,"NEUT","Neutrophils","HEMATOLOGY",NA,"2.75","10^9/L",NA,NA,"2.75",2.75,"10^9/L",NA,NA,NA,NA,NA,NA,NA,"WHOLE BLOOD",NA,NA,NA,NA,NA,NA,NA,NA,NA,NA,NA,NA,NA,NA,NA,43,"2007-07-24T08:35:00",NA,43,NA,NA,NA,NA,NA,NA
"GLP003","LB","107001362",NA,357,NA,NA,NA,"LYM","Lymphocytes","HEMATOLOGY",NA,"14.58","10^9/L",NA,NA,"14.58",14.58,"10^9/L",NA,NA,NA,NA,NA,NA,NA,"WHOLE BLOOD",NA,NA,NA,NA,NA,NA,NA,NA,NA,NA,NA,NA,NA,NA,NA,43,"2007-07-24T08:35:00",NA,43,NA,NA,NA,NA,NA,NA
"GLP003","LB","107001362",NA,358,NA,NA,NA,"MONO","Monocytes","HEMATOLOGY",NA,"0.49","10^9/L",NA,NA,"0.49",0.49,"10^9/L",NA,NA,NA,NA,NA,NA,NA,"WHOLE BLOOD",NA,NA,NA,NA,NA,NA,NA,NA,NA,NA,NA,NA,NA,NA,NA,43,"2007-07-24T08:35:00",NA,43,NA,NA,NA,NA,NA,NA
"GLP003","LB","107001362",NA,359,NA,NA,NA,"EOS","Eosinophils","HEMATOLOGY",NA,"0.11","10^9/L",NA,NA,"0.11",0.11,"10^9/L",NA,NA,NA,NA,NA,NA,NA,"WHOLE BLOOD",NA,NA,NA,NA,NA,NA,NA,NA,NA,NA,NA,NA,NA,NA,NA,43,"2007-07-24T08:35:00",NA,43,NA,NA,NA,NA,NA,NA
"GLP003","LB","107001362",NA,360,NA,NA,NA,"BASO","Basophils","HEMATOLOGY",NA,"0.12","10^9/L",NA,NA,"0.12",0.12,"10^9/L",NA,NA,NA,NA,NA,NA,NA,"WHOLE BLOOD",NA,NA,NA,NA,NA,NA,NA,NA,NA,NA,NA,NA,NA,NA,NA,43,"2007-07-24T08:35:00",NA,43,NA,NA,NA,NA,NA,NA
"GLP003","LB","107001362",NA,361,NA,NA,NA,"LGUNSCE","Large Unstained Cells","HEMATOLOGY",NA,"0.07","10^9/L",NA,NA,"0.07",0.07,"10^9/L",NA,NA,NA,NA,NA,NA,NA,"WHOLE BLOOD",NA,NA,NA,NA,NA,NA,NA,NA,NA,NA,NA,NA,NA,NA,NA,43,"2007-07-24T08:35:00",NA,43,NA,NA,NA,NA,NA,NA
"GLP003","LB","107001362",NA,362,NA,NA,NA,"ALT","Alanine Aminotransferase","SERUM CHEMISTRY",NA,"36","U/L",NA,NA,"36",36,"U/L",NA,NA,NA,NA,NA,NA,NA,"SERUM",NA,NA,NA,NA,NA,NA,NA,NA,NA,NA,NA,NA,NA,NA,NA,43,"2007-07-24T07:25:00",NA,43,NA,NA,NA,NA,NA,NA
"GLP003","LB","107001362",NA,363,NA,NA,NA,"ALB","Albumin","SERUM CHEMISTRY",NA,"3.5","g/dL",NA,NA,"3.5",3.5,"g/dL",NA,NA,NA,NA,NA,NA,NA,"SERUM",NA,NA,NA,NA,NA,NA,NA,NA,NA,NA,NA,NA,NA,NA,NA,43,"2007-07-24T07:25:00",NA,43,NA,NA,NA,NA,NA,NA
"GLP003","LB","107001362",NA,364,NA,NA,NA,"ALBGLOB","Albumin/Globulin","SERUM CHEMISTRY",NA,"1.1","RATIO",NA,NA,"1.1",1.1,"RATIO",NA,NA,NA,NA,NA,NA,NA,"SERUM",NA,NA,NA,NA,NA,NA,NA,NA,NA,NA,NA,NA,NA,NA,NA,43,"2007-07-24T07:25:00",NA,43,NA,NA,NA,NA,NA,NA
"GLP003","LB","107001362",NA,365,NA,NA,NA,"ALP","Alkaline Phosphatase","SERUM CHEMISTRY",NA,"93","U/L",NA,NA,"93",93,"U/L",NA,NA,NA,NA,NA,NA,NA,"SERUM",NA,NA,NA,NA,NA,NA,NA,NA,NA,NA,NA,NA,NA,NA,NA,43,"2007-07-24T07:25:00",NA,43,NA,NA,NA,NA,NA,NA
"GLP003","LB","107001362",NA,366,NA,NA,NA,"AST","Aspartate Aminotransferase","SERUM CHEMISTRY",NA,"84","U/L",NA,NA,"84",84,"U/L",NA,NA,NA,NA,NA,NA,NA,"SERUM",NA,NA,NA,NA,NA,NA,NA,NA,NA,NA,NA,NA,NA,NA,NA,43,"2007-07-24T07:25:00",NA,43,NA,NA,NA,NA,NA,NA
"GLP003","LB","107001362",NA,367,NA,NA,NA,"BUN","Blood Urea Nitrogen","SERUM CHEMISTRY",NA,"12","mg/dL",NA,NA,"12",12,"mg/dL",NA,NA,NA,NA,NA,NA,NA,"SERUM",NA,NA,NA,NA,NA,NA,NA,NA,NA,NA,NA,NA,NA,NA,NA,43,"2007-07-24T07:25:00",NA,43,NA,NA,NA,NA,NA,NA
"GLP003","LB","107001362",NA,368,NA,NA,NA,"CA","Calcium","SERUM CHEMISTRY",NA,"12.7","mg/dL",NA,NA,"12.7",12.7,"mg/dL",NA,NA,NA,NA,NA,NA,NA,"SERUM",NA,NA,NA,NA,NA,NA,NA,NA,NA,NA,NA,NA,NA,NA,NA,43,"2007-07-24T07:25:00",NA,43,NA,NA,NA,NA,NA,NA
"GLP003","LB","107001362",NA,369,NA,NA,NA,"CL","Chloride","SERUM CHEMISTRY",NA,"104","mEq/L",NA,NA,"104",104,"mEq/L",NA,NA,NA,NA,NA,NA,NA,"SERUM",NA,NA,NA,NA,NA,NA,NA,NA,NA,NA,NA,NA,NA,NA,NA,43,"2007-07-24T07:25:00",NA,43,NA,NA,NA,NA,NA,NA
"GLP003","LB","107001362",NA,370,NA,NA,NA,"CHOL","Cholesterol","SERUM CHEMISTRY",NA,"47","mg/dL",NA,NA,"47",47,"mg/dL",NA,NA,NA,NA,NA,NA,NA,"SERUM",NA,NA,NA,NA,NA,NA,NA,NA,NA,NA,NA,NA,NA,NA,NA,43,"2007-07-24T07:25:00",NA,43,NA,NA,NA,NA,NA,NA
"GLP003","LB","107001362",NA,371,NA,NA,NA,"CREAT","Creatinine","SERUM CHEMISTRY",NA,"0.38","mg/dL",NA,NA,"0.38",0.38,"mg/dL",NA,NA,NA,NA,NA,NA,NA,"SERUM",NA,NA,NA,NA,NA,NA,NA,NA,NA,NA,NA,NA,NA,NA,NA,43,"2007-07-24T07:25:00",NA,43,NA,NA,NA,NA,NA,NA
"GLP003","LB","107001362",NA,372,NA,NA,NA,"GLOBUL","Globulin","SERUM CHEMISTRY",NA,"3.3","g/dL",NA,NA,"3.3",3.3,"g/dL",NA,NA,NA,NA,NA,NA,NA,"SERUM",NA,NA,NA,NA,NA,NA,NA,NA,NA,NA,NA,NA,NA,NA,NA,43,"2007-07-24T07:25:00",NA,43,NA,NA,NA,NA,NA,NA
"GLP003","LB","107001362",NA,373,NA,NA,NA,"GLUC","Glucose","SERUM CHEMISTRY",NA,"118","mg/dL",NA,NA,"118",118,"mg/dL",NA,NA,NA,NA,NA,NA,NA,"SERUM",NA,NA,NA,NA,NA,NA,NA,NA,NA,NA,NA,NA,NA,NA,NA,43,"2007-07-24T07:25:00",NA,43,NA,NA,NA,NA,NA,NA
"GLP003","LB","107001362",NA,374,NA,NA,NA,"K","Potassium","SERUM CHEMISTRY",NA,"5.2","mEq/L",NA,NA,"5.2",5.2,"mEq/L",NA,NA,NA,NA,NA,NA,NA,"SERUM",NA,NA,NA,NA,NA,NA,NA,NA,NA,NA,NA,NA,NA,NA,NA,43,"2007-07-24T07:25:00",NA,43,NA,NA,NA,NA,NA,NA
"GLP003","LB","107001362",NA,375,NA,NA,NA,"PHOS","Phosphate","SERUM CHEMISTRY",NA,"7.3","mg/dL",NA,NA,"7.3",7.3,"mg/dL",NA,NA,NA,NA,NA,NA,NA,"SERUM",NA,NA,NA,NA,NA,NA,NA,NA,NA,NA,NA,NA,NA,NA,NA,43,"2007-07-24T07:25:00",NA,43,NA,NA,NA,NA,NA,NA
"GLP003","LB","107001362",NA,376,NA,NA,NA,"SODIUM","Sodium","SERUM CHEMISTRY",NA,"147","mEq/L",NA,NA,"147",147,"mEq/L",NA,NA,NA,NA,NA,NA,NA,"SERUM",NA,NA,NA,NA,NA,NA,NA,NA,NA,NA,NA,NA,NA,NA,NA,43,"2007-07-24T07:25:00",NA,43,NA,NA,NA,NA,NA,NA
"GLP003","LB","107001362",NA,377,NA,NA,NA,"BILI","Bilirubin","SERUM CHEMISTRY",NA,"0.12","mg/dL",NA,NA,"0.12",0.12,"mg/dL",NA,NA,NA,NA,NA,NA,NA,"SERUM",NA,NA,NA,NA,NA,NA,NA,NA,NA,NA,NA,NA,NA,NA,NA,43,"2007-07-24T07:25:00",NA,43,NA,NA,NA,NA,NA,NA
"GLP003","LB","107001362",NA,378,NA,NA,NA,"PROT","Protein","SERUM CHEMISTRY",NA,"6.8","g/dL",NA,NA,"6.8",6.8,"g/dL",NA,NA,NA,NA,NA,NA,NA,"SERUM",NA,NA,NA,NA,NA,NA,NA,NA,NA,NA,NA,NA,NA,NA,NA,43,"2007-07-24T07:25:00",NA,43,NA,NA,NA,NA,NA,NA
"GLP003","LB","107001362",NA,379,NA,NA,NA,"TRIG","Triglycerides","SERUM CHEMISTRY",NA,"82","mg/dL",NA,NA,"82",82,"mg/dL",NA,NA,NA,NA,NA,NA,NA,"SERUM",NA,NA,NA,NA,NA,NA,NA,NA,NA,NA,NA,NA,NA,NA,NA,43,"2007-07-24T07:25:00",NA,43,NA,NA,NA,NA,NA,NA
"GLP003","LB","107001362",NA,380,NA,NA,NA,"APTT","Activated Partial Thromboplastin Time","COAGULATION",NA,"15.6","sec",NA,NA,"15.6",15.6,"sec",NA,NA,NA,NA,NA,NA,NA,"PLASMA",NA,NA,NA,NA,NA,NA,NA,NA,NA,NA,NA,NA,NA,NA,NA,43,"2007-07-24T08:44:00",NA,43,NA,NA,NA,NA,NA,NA
"GLP003","LB","107001362",NA,381,NA,NA,NA,"PT","Prothrombin Time","COAGULATION",NA,"17.1","sec",NA,NA,"17.1",17.1,"sec",NA,NA,NA,NA,NA,NA,NA,"PLASMA",NA,NA,NA,NA,NA,NA,NA,NA,NA,NA,NA,NA,NA,NA,NA,43,"2007-07-24T08:44:00",NA,43,NA,NA,NA,NA,NA,NA
"GLP003","LB","107001362",NA,382,NA,NA,NA,"FIBRINO","Fibrinogen","COAGULATION",NA,"245","mg/dL",NA,NA,"245",245,"mg/dL",NA,NA,NA,NA,NA,NA,NA,"PLASMA",NA,NA,NA,NA,NA,NA,NA,NA,NA,NA,NA,NA,NA,NA,NA,43,"2007-07-24T08:44:00",NA,43,NA,NA,NA,NA,NA,NA
"GLP003","LB","107001362",NA,383,NA,NA,NA,"CLARITY","Clarity","URINALYSIS",NA,"CLOUDY",NA,NA,NA,"CLOUDY",NA,NA,NA,NA,NA,NA,NA,NA,NA,"URINE",NA,NA,NA,NA,NA,NA,NA,NA,NA,NA,NA,NA,NA,NA,NA,43,"2007-07-24T06:47:00",NA,43,NA,NA,NA,NA,NA,NA
"GLP003","LB","107001362",NA,384,NA,NA,NA,"COLOR","Color","URINALYSIS",NA,"YELLOW",NA,NA,NA,"YELLOW",NA,NA,NA,NA,NA,NA,NA,NA,NA,"URINE",NA,NA,NA,NA,NA,NA,NA,NA,NA,NA,NA,NA,NA,NA,NA,43,"2007-07-24T06:47:00",NA,43,NA,NA,NA,NA,NA,NA
"GLP003","LB","107001362",NA,385,NA,NA,NA,"BILI","Bilirubin","URINALYSIS",NA,"NEGATIVE",NA,NA,NA,"NEGATIVE",NA,NA,NA,NA,NA,NA,NA,NA,NA,"URINE",NA,NA,NA,NA,NA,NA,NA,"Atlas",NA,NA,NA,NA,NA,NA,NA,43,"2007-07-24T06:47:00",NA,43,NA,NA,NA,NA,NA,NA
"GLP003","LB","107001362",NA,386,NA,NA,NA,"GLUC","Glucose","URINALYSIS",NA,"NEGATIVE",NA,NA,NA,"NEGATIVE",NA,NA,NA,NA,NA,NA,NA,NA,NA,"URINE",NA,NA,NA,NA,NA,NA,NA,"Atlas, qualitative",NA,NA,NA,NA,NA,NA,NA,43,"2007-07-24T06:47:00",NA,43,NA,NA,NA,NA,NA,NA
"GLP003","LB","107001362",NA,387,NA,NA,NA,"OCCBLD","Occult Blood","URINALYSIS",NA,"NEGATIVE",NA,NA,NA,"NEGATIVE",NA,NA,NA,NA,NA,NA,NA,NA,NA,"URINE",NA,NA,NA,NA,NA,NA,NA,NA,NA,NA,NA,NA,NA,NA,NA,43,"2007-07-24T06:47:00",NA,43,NA,NA,NA,NA,NA,NA
"GLP003","LB","107001362",NA,388,NA,NA,NA,"KETONES","Ketones","URINALYSIS",NA,"TRACE",NA,NA,NA,"TRACE",NA,NA,NA,NA,NA,NA,NA,NA,NA,"URINE",NA,NA,NA,NA,NA,NA,NA,NA,NA,NA,NA,NA,NA,NA,NA,43,"2007-07-24T06:47:00",NA,43,NA,NA,NA,NA,NA,NA
"GLP003","LB","107001362",NA,389,NA,NA,NA,"PH","pH","URINALYSIS",NA,"6.5","pH",NA,NA,"6.5",6.5,"pH",NA,NA,NA,NA,NA,NA,NA,"URINE",NA,NA,NA,NA,NA,NA,NA,NA,NA,NA,NA,NA,NA,NA,NA,43,"2007-07-24T06:47:00",NA,43,NA,NA,NA,NA,NA,NA
"GLP003","LB","107001362",NA,390,NA,NA,NA,"SPGRAV","Specific Gravity","URINALYSIS",NA,"1.037",NA,NA,NA,"1.037",1.037,NA,NA,NA,NA,NA,NA,NA,NA,"URINE",NA,NA,NA,NA,NA,NA,NA,NA,NA,NA,NA,NA,NA,NA,NA,43,"2007-07-24T06:47:00",NA,43,NA,NA,NA,NA,NA,NA
"GLP003","LB","107001362",NA,391,NA,NA,NA,"UROBIL","Urobilinogen","URINALYSIS",NA,"0.2","mg/dL",NA,NA,"0.2",0.2,"mg/dL",NA,NA,NA,NA,NA,NA,NA,"URINE",NA,NA,NA,NA,NA,NA,NA,NA,NA,NA,NA,NA,NA,NA,NA,43,"2007-07-24T06:47:00",NA,43,NA,NA,NA,NA,NA,NA
"GLP003","LB","107001362",NA,392,NA,NA,NA,"VOLUME","Volume","URINALYSIS",NA,"9","mL",NA,NA,"9",9,"mL",NA,NA,NA,NA,NA,NA,NA,"URINE",NA,NA,NA,NA,NA,NA,NA,NA,NA,NA,NA,NA,NA,NA,NA,43,"2007-07-24T07:28:00",NA,43,NA,NA,NA,NA,NA,NA
"GLP003","LB","107001362",NA,393,NA,NA,NA,"ANISO","Anisocytes","HEMATOLOGY",NA,"-",NA,NA,NA,"-",NA,NA,NA,NA,NA,NA,NA,NA,NA,"WHOLE BLOOD",NA,NA,NA,NA,NA,NA,NA,NA,NA,NA,NA,NA,NA,NA,NA,43,"2007-07-24T11:01:00",NA,43,NA,NA,NA,NA,NA,NA
"GLP003","LB","107001362",NA,394,NA,NA,NA,"RBCINCL","RBC Inclusions","HEMATOLOGY",NA,"-",NA,NA,NA,"-",NA,NA,NA,NA,NA,NA,NA,NA,NA,"WHOLE BLOOD",NA,NA,NA,NA,NA,NA,NA,NA,NA,NA,NA,NA,NA,NA,NA,43,"2007-07-24T11:01:00",NA,43,NA,NA,NA,NA,NA,NA
"GLP003","LB","107001362",NA,395,NA,NA,NA,"PLATM","Platelet Morphology","HEMATOLOGY",NA,"-",NA,NA,NA,"-",NA,NA,NA,NA,NA,NA,NA,NA,NA,"WHOLE BLOOD",NA,NA,NA,NA,NA,NA,NA,NA,NA,NA,NA,NA,NA,NA,NA,43,"2007-07-24T11:01:00",NA,43,NA,NA,NA,NA,NA,NA
"GLP003","LB","107001362",NA,396,NA,NA,NA,"POIKILO","Poikilocytes","HEMATOLOGY",NA,"3+",NA,NA,NA,"3+",NA,NA,NA,NA,NA,NA,NA,NA,NA,"WHOLE BLOOD",NA,NA,NA,NA,NA,NA,NA,NA,NA,NA,NA,NA,NA,NA,NA,43,"2007-07-24T11:01:00",NA,43,NA,NA,NA,NA,NA,NA
"GLP003","LB","107001362",NA,397,NA,NA,NA,"POLYCHR","Polychromasia","HEMATOLOGY",NA,"-",NA,NA,NA,"-",NA,NA,NA,NA,NA,NA,NA,NA,NA,"WHOLE BLOOD",NA,NA,NA,NA,NA,NA,NA,NA,NA,NA,NA,NA,NA,NA,NA,43,"2007-07-24T11:01:00",NA,43,NA,NA,NA,NA,NA,NA
"GLP003","LB","107001362",NA,398,NA,NA,NA,"WBCMORPH","Leukocyte Cell Morphology","HEMATOLOGY",NA,"-",NA,NA,NA,"-",NA,NA,NA,NA,NA,NA,NA,NA,NA,"WHOLE BLOOD",NA,NA,NA,NA,NA,NA,NA,NA,NA,NA,NA,NA,NA,NA,NA,43,"2007-07-24T11:01:00",NA,43,NA,NA,NA,NA,NA,NA
"GLP003","LB","107001362",NA,399,NA,NA,NA,"CYAMORPH","Amorphous Crystals","URINALYSIS",NA,"-",NA,NA,NA,"-",NA,NA,NA,NA,NA,NA,NA,NA,NA,"URINE",NA,NA,NA,NA,NA,NA,NA,NA,NA,NA,NA,NA,NA,NA,NA,43,"2007-07-24T06:47:00",NA,43,NA,NA,NA,NA,NA,NA
"GLP003","LB","107001362",NA,400,NA,NA,NA,"BACT","Bacteria","URINALYSIS",NA,"-",NA,NA,NA,"-",NA,NA,NA,NA,NA,NA,NA,NA,NA,"URINE",NA,NA,NA,NA,NA,NA,NA,NA,NA,NA,NA,NA,NA,NA,NA,43,"2007-07-24T06:47:00",NA,43,NA,NA,NA,NA,NA,NA
"GLP003","LB","107001362",NA,401,NA,NA,NA,"CYCACAR","Calcium Carbonate Crystals","URINALYSIS",NA,"-",NA,NA,NA,"-",NA,NA,NA,NA,NA,NA,NA,NA,NA,"URINE",NA,NA,NA,NA,NA,NA,NA,NA,NA,NA,NA,NA,NA,NA,NA,43,"2007-07-24T06:47:00",NA,43,NA,NA,NA,NA,NA,NA
"GLP003","LB","107001362",NA,402,NA,NA,NA,"CYCAOXA","Calcium Oxalate Crystals","URINALYSIS",NA,"-",NA,NA,NA,"-",NA,NA,NA,NA,NA,NA,NA,NA,NA,"URINE",NA,NA,NA,NA,NA,NA,NA,NA,NA,NA,NA,NA,NA,NA,NA,43,"2007-07-24T06:47:00",NA,43,NA,NA,NA,NA,NA,NA
"GLP003","LB","107001362",NA,403,NA,NA,NA,"EPIC","Epithelial Cells","URINALYSIS",NA,"1+",NA,NA,NA,"1+",NA,NA,NA,NA,NA,NA,NA,NA,NA,"URINE",NA,NA,NA,NA,NA,NA,NA,NA,NA,NA,NA,NA,NA,NA,NA,43,"2007-07-24T06:47:00",NA,43,NA,NA,NA,NA,NA,NA
"GLP003","LB","107001362",NA,404,NA,NA,NA,"CASTS","Casts","URINALYSIS",NA,"-",NA,NA,NA,"-",NA,NA,NA,NA,NA,NA,NA,NA,NA,"URINE",NA,NA,NA,NA,NA,NA,NA,NA,NA,NA,NA,NA,NA,NA,NA,43,"2007-07-24T06:47:00",NA,43,NA,NA,NA,NA,NA,NA
"GLP003","LB","107001362",NA,405,NA,NA,NA,"MISC","Miscellaneous Cell Types","URINALYSIS",NA,"-",NA,NA,NA,"-",NA,NA,NA,NA,NA,NA,NA,NA,NA,"URINE",NA,NA,NA,NA,NA,NA,NA,NA,NA,NA,NA,NA,NA,NA,NA,43,"2007-07-24T06:47:00",NA,43,NA,NA,NA,NA,NA,NA
"GLP003","LB","107001362",NA,406,NA,NA,NA,"CYTRPHOS","Triple Phosphate Crystals","URINALYSIS",NA,"2+",NA,NA,NA,"2+",NA,NA,NA,NA,NA,NA,NA,NA,NA,"URINE",NA,NA,NA,NA,NA,NA,NA,NA,NA,NA,NA,NA,NA,NA,NA,43,"2007-07-24T06:47:00",NA,43,NA,NA,NA,NA,NA,NA
"GLP003","LB","107001362",NA,407,NA,NA,NA,"SPERM","Spermatozoa","URINALYSIS",NA,"1+",NA,NA,NA,"1+",NA,NA,NA,NA,NA,NA,NA,NA,NA,"URINE",NA,NA,NA,NA,NA,NA,NA,NA,NA,NA,NA,NA,NA,NA,NA,43,"2007-07-24T06:47:00",NA,43,NA,NA,NA,NA,NA,NA
"GLP003","LB","107001362",NA,408,NA,NA,NA,"WBC","Leukocytes","URINALYSIS",NA,"-",NA,NA,NA,"-",NA,NA,NA,NA,NA,NA,NA,NA,NA,"URINE",NA,NA,NA,NA,NA,NA,NA,NA,NA,NA,NA,NA,NA,NA,NA,43,"2007-07-24T06:47:00",NA,43,NA,NA,NA,NA,NA,NA
"GLP003","LB","107001362",NA,409,NA,NA,NA,"RBC","Erythrocytes","URINALYSIS",NA,"-",NA,NA,NA,"-",NA,NA,NA,NA,NA,NA,NA,NA,NA,"URINE",NA,NA,NA,NA,NA,NA,NA,NA,NA,NA,NA,NA,NA,NA,NA,43,"2007-07-24T06:47:00",NA,43,NA,NA,NA,NA,NA,NA
"GLP003","LB","107001362",NA,410,NA,NA,NA,"CRYOTHER","Other Crystals","URINALYSIS",NA,"-",NA,NA,NA,"-",NA,NA,NA,NA,NA,NA,NA,NA,NA,"URINE",NA,NA,NA,NA,NA,NA,NA,NA,NA,NA,NA,NA,NA,NA,NA,43,"2007-07-24T06:47:00",NA,43,NA,NA,NA,NA,NA,NA
"GLP003","LB","107001362",NA,411,NA,NA,NA,"PROT","Protein","URINALYSIS",NA,"90","mg/dL",NA,NA,"90",90,"mg/dL",NA,NA,NA,NA,NA,NA,NA,"URINE",NA,NA,NA,NA,NA,NA,NA,NA,NA,NA,NA,NA,NA,NA,NA,43,"2007-07-23T13:28:00",NA,42,NA,NA,NA,NA,NA,NA
"GLP003","LB","107001362",NA,412,NA,NA,NA,"BICARB","Bicarbonate","SERUM CHEMISTRY",NA,"23","mmol/L",NA,NA,"23",23,"mmol/L",NA,NA,NA,NA,NA,NA,NA,"SERUM",NA,NA,NA,NA,NA,NA,NA,NA,NA,NA,NA,NA,NA,NA,NA,43,"2007-07-24T07:25:00",NA,43,NA,NA,NA,NA,NA,NA
"GLP003","LB","107001362",NA,414,NA,NA,NA,"RBCMORPH","Erythrocyte Cell Morphology","HEMATOLOGY",NA,"-",NA,NA,NA,"-",NA,NA,NA,NA,NA,NA,NA,NA,NA,"WHOLE BLOOD",NA,NA,NA,NA,NA,NA,NA,NA,NA,NA,NA,NA,NA,NA,NA,43,"2007-07-24T11:01:00",NA,43,NA,NA,NA,NA,NA,NA
"GLP003","LB","107001363",NA,415,NA,NA,NA,"WBC","Leukocytes","HEMATOLOGY",NA,"18.13","10^9/L",NA,NA,"18.13",18.13,"10^9/L",NA,NA,NA,NA,NA,NA,NA,"WHOLE BLOOD",NA,NA,NA,NA,NA,NA,NA,NA,NA,NA,NA,NA,NA,NA,NA,30,"2007-07-11T09:00:00",NA,30,NA,NA,NA,NA,NA,NA
"GLP003","LB","107001363",NA,416,NA,NA,NA,"RBC","Erythrocytes","HEMATOLOGY",NA,"8.74","10^12/L",NA,NA,"8.74",8.74,"10^12/L",NA,NA,NA,NA,NA,NA,NA,"WHOLE BLOOD",NA,NA,NA,NA,NA,NA,NA,NA,NA,NA,NA,NA,NA,NA,NA,30,"2007-07-11T09:00:00",NA,30,NA,NA,NA,NA,NA,NA
"GLP003","LB","107001363",NA,417,NA,NA,NA,"HGB","Hemoglobin","HEMATOLOGY",NA,"17.0","g/dL",NA,NA,"17.0",17,"g/dL",NA,NA,NA,NA,NA,NA,NA,"WHOLE BLOOD",NA,NA,NA,NA,NA,NA,NA,NA,NA,NA,NA,NA,NA,NA,NA,30,"2007-07-11T09:00:00",NA,30,NA,NA,NA,NA,NA,NA
"GLP003","LB","107001363",NA,418,NA,NA,NA,"HCT","Hematocrit","HEMATOLOGY",NA,"47.5","%",NA,NA,"47.5",47.5,"%",NA,NA,NA,NA,NA,NA,NA,"WHOLE BLOOD",NA,NA,NA,NA,NA,NA,NA,NA,NA,NA,NA,NA,NA,NA,NA,30,"2007-07-11T09:00:00",NA,30,NA,NA,NA,NA,NA,NA
"GLP003","LB","107001363",NA,419,NA,NA,NA,"MCV","Ery. Mean Corpuscular Volume","HEMATOLOGY",NA,"54.4","fL",NA,NA,"54.4",54.4,"fL",NA,NA,NA,NA,NA,NA,NA,"WHOLE BLOOD",NA,NA,NA,NA,NA,NA,NA,NA,NA,NA,NA,NA,NA,NA,NA,30,"2007-07-11T09:00:00",NA,30,NA,NA,NA,NA,NA,NA
"GLP003","LB","107001363",NA,420,NA,NA,NA,"MCH","Ery. Mean Corpuscular Hemoglobin","HEMATOLOGY",NA,"19.4","pg",NA,NA,"19.4",19.4,"pg",NA,NA,NA,NA,NA,NA,NA,"WHOLE BLOOD",NA,NA,NA,NA,NA,NA,NA,NA,NA,NA,NA,NA,NA,NA,NA,30,"2007-07-11T09:00:00",NA,30,NA,NA,NA,NA,NA,NA
"GLP003","LB","107001363",NA,421,NA,NA,NA,"MCHC","Ery. Mean Corpuscular HGB Concentration","HEMATOLOGY",NA,"35.7","g/dL",NA,NA,"35.7",35.7,"g/dL",NA,NA,NA,NA,NA,NA,NA,"WHOLE BLOOD",NA,NA,NA,NA,NA,NA,NA,NA,NA,NA,NA,NA,NA,NA,NA,30,"2007-07-11T09:00:00",NA,30,NA,NA,NA,NA,NA,NA
"GLP003","LB","107001363",NA,422,NA,NA,NA,"RDW","Erythrocytes Distribution Width","HEMATOLOGY",NA,"11.6","%",NA,NA,"11.6",11.6,"%",NA,NA,NA,NA,NA,NA,NA,"WHOLE BLOOD",NA,NA,NA,NA,NA,NA,NA,NA,NA,NA,NA,NA,NA,NA,NA,30,"2007-07-11T09:00:00",NA,30,NA,NA,NA,NA,NA,NA
"GLP003","LB","107001363",NA,423,NA,NA,NA,"PLAT","Platelets","HEMATOLOGY",NA,NA,NA,NA,NA,NA,NA,NA,NA,NA,NA,NA,"NOT DONE","Platelet clumping.  Qualitative estimate = ADEQ",NA,"WHOLE BLOOD",NA,NA,NA,NA,NA,NA,NA,NA,NA,NA,NA,NA,NA,NA,NA,30,"2007-07-11T09:00:00",NA,30,NA,NA,NA,NA,NA,NA
"GLP003","LB","107001363",NA,424,NA,NA,NA,"RETIRBC","Reticulocytes/Erythrocytes","HEMATOLOGY",NA,"1.7","%",NA,NA,"1.7",1.7,"%",NA,NA,NA,NA,NA,NA,NA,"WHOLE BLOOD",NA,NA,NA,NA,NA,NA,NA,NA,NA,NA,NA,NA,NA,NA,NA,30,"2007-07-11T09:00:00",NA,30,NA,NA,NA,NA,NA,NA
"GLP003","LB","107001363",NA,425,NA,NA,NA,"RETI","Reticulocytes","HEMATOLOGY",NA,"0.146","10^12/L",NA,NA,"0.146",0.146,"10^12/L",NA,NA,NA,NA,NA,NA,NA,"WHOLE BLOOD",NA,NA,NA,NA,NA,NA,NA,NA,NA,NA,NA,NA,NA,NA,NA,30,"2007-07-11T09:00:00",NA,30,NA,NA,NA,NA,NA,NA
"GLP003","LB","107001363",NA,426,NA,NA,NA,"NEUT","Neutrophils","HEMATOLOGY",NA,"1.35","10^9/L",NA,NA,"1.35",1.35,"10^9/L",NA,NA,NA,NA,NA,NA,NA,"WHOLE BLOOD",NA,NA,NA,NA,NA,NA,NA,NA,NA,NA,NA,NA,NA,NA,NA,30,"2007-07-11T09:00:00",NA,30,NA,NA,NA,NA,NA,NA
"GLP003","LB","107001363",NA,427,NA,NA,NA,"LYM","Lymphocytes","HEMATOLOGY",NA,"15.87","10^9/L",NA,NA,"15.87",15.87,"10^9/L",NA,NA,NA,NA,NA,NA,NA,"WHOLE BLOOD",NA,NA,NA,NA,NA,NA,NA,NA,NA,NA,NA,NA,NA,NA,NA,30,"2007-07-11T09:00:00",NA,30,NA,NA,NA,NA,NA,NA
"GLP003","LB","107001363",NA,428,NA,NA,NA,"MONO","Monocytes","HEMATOLOGY",NA,"0.49","10^9/L",NA,NA,"0.49",0.49,"10^9/L",NA,NA,NA,NA,NA,NA,NA,"WHOLE BLOOD",NA,NA,NA,NA,NA,NA,NA,NA,NA,NA,NA,NA,NA,NA,NA,30,"2007-07-11T09:00:00",NA,30,NA,NA,NA,NA,NA,NA
"GLP003","LB","107001363",NA,429,NA,NA,NA,"EOS","Eosinophils","HEMATOLOGY",NA,"0.12","10^9/L",NA,NA,"0.12",0.12,"10^9/L",NA,NA,NA,NA,NA,NA,NA,"WHOLE BLOOD",NA,NA,NA,NA,NA,NA,NA,NA,NA,NA,NA,NA,NA,NA,NA,30,"2007-07-11T09:00:00",NA,30,NA,NA,NA,NA,NA,NA
"GLP003","LB","107001363",NA,430,NA,NA,NA,"BASO","Basophils","HEMATOLOGY",NA,"0.20","10^9/L",NA,NA,"0.20",0.2,"10^9/L",NA,NA,NA,NA,NA,NA,NA,"WHOLE BLOOD",NA,NA,NA,NA,NA,NA,NA,NA,NA,NA,NA,NA,NA,NA,NA,30,"2007-07-11T09:00:00",NA,30,NA,NA,NA,NA,NA,NA
"GLP003","LB","107001363",NA,431,NA,NA,NA,"LGUNSCE","Large Unstained Cells","HEMATOLOGY",NA,"0.10","10^9/L",NA,NA,"0.10",0.1,"10^9/L",NA,NA,NA,NA,NA,NA,NA,"WHOLE BLOOD",NA,NA,NA,NA,NA,NA,NA,NA,NA,NA,NA,NA,NA,NA,NA,30,"2007-07-11T09:00:00",NA,30,NA,NA,NA,NA,NA,NA
"GLP003","LB","107001363",NA,432,NA,NA,NA,"ALT","Alanine Aminotransferase","SERUM CHEMISTRY",NA,"23","U/L",NA,NA,"23",23,"U/L",NA,NA,NA,NA,NA,NA,NA,"SERUM",NA,NA,NA,NA,NA,NA,NA,NA,NA,NA,NA,NA,NA,NA,NA,30,"2007-07-11T08:20:00",NA,30,NA,NA,NA,NA,NA,NA
"GLP003","LB","107001363",NA,433,NA,NA,NA,"ALB","Albumin","SERUM CHEMISTRY",NA,"3.7","g/dL",NA,NA,"3.7",3.7,"g/dL",NA,NA,NA,NA,NA,NA,NA,"SERUM",NA,NA,NA,NA,NA,NA,NA,NA,NA,NA,NA,NA,NA,NA,NA,30,"2007-07-11T08:20:00",NA,30,NA,NA,NA,NA,NA,NA
"GLP003","LB","107001363",NA,434,NA,NA,NA,"ALBGLOB","Albumin/Globulin","SERUM CHEMISTRY",NA,"1.1","RATIO",NA,NA,"1.1",1.1,"RATIO",NA,NA,NA,NA,NA,NA,NA,"SERUM",NA,NA,NA,NA,NA,NA,NA,NA,NA,NA,NA,NA,NA,NA,NA,30,"2007-07-11T08:20:00",NA,30,NA,NA,NA,NA,NA,NA
"GLP003","LB","107001363",NA,435,NA,NA,NA,"ALP","Alkaline Phosphatase","SERUM CHEMISTRY",NA,"129","U/L",NA,NA,"129",129,"U/L",NA,NA,NA,NA,NA,NA,NA,"SERUM",NA,NA,NA,NA,NA,NA,NA,NA,NA,NA,NA,NA,NA,NA,NA,30,"2007-07-11T08:20:00",NA,30,NA,NA,NA,NA,NA,NA
"GLP003","LB","107001363",NA,436,NA,NA,NA,"AST","Aspartate Aminotransferase","SERUM CHEMISTRY",NA,"67","U/L",NA,NA,"67",67,"U/L",NA,NA,NA,NA,NA,NA,NA,"SERUM",NA,NA,NA,NA,NA,NA,NA,NA,NA,NA,NA,NA,NA,NA,NA,30,"2007-07-11T08:20:00",NA,30,NA,NA,NA,NA,NA,NA
"GLP003","LB","107001363",NA,437,NA,NA,NA,"BUN","Blood Urea Nitrogen","SERUM CHEMISTRY",NA,"13","mg/dL",NA,NA,"13",13,"mg/dL",NA,NA,NA,NA,NA,NA,NA,"SERUM",NA,NA,NA,NA,NA,NA,NA,NA,NA,NA,NA,NA,NA,NA,NA,30,"2007-07-11T08:20:00",NA,30,NA,NA,NA,NA,NA,NA
"GLP003","LB","107001363",NA,438,NA,NA,NA,"CA","Calcium","SERUM CHEMISTRY",NA,"12.4","mg/dL",NA,NA,"12.4",12.4,"mg/dL",NA,NA,NA,NA,NA,NA,NA,"SERUM",NA,NA,NA,NA,NA,NA,NA,NA,NA,NA,NA,NA,NA,NA,NA,30,"2007-07-11T08:20:00",NA,30,NA,NA,NA,NA,NA,NA
"GLP003","LB","107001363",NA,439,NA,NA,NA,"CL","Chloride","SERUM CHEMISTRY",NA,"100","mEq/L",NA,NA,"100",100,"mEq/L",NA,NA,NA,NA,NA,NA,NA,"SERUM",NA,NA,NA,NA,NA,NA,NA,NA,NA,NA,NA,NA,NA,NA,NA,30,"2007-07-11T08:20:00",NA,30,NA,NA,NA,NA,NA,NA
"GLP003","LB","107001363",NA,440,NA,NA,NA,"CHOL","Cholesterol","SERUM CHEMISTRY",NA,"93","mg/dL",NA,NA,"93",93,"mg/dL",NA,NA,NA,NA,NA,NA,NA,"SERUM",NA,NA,NA,NA,NA,NA,NA,NA,NA,NA,NA,NA,NA,NA,NA,30,"2007-07-11T08:20:00",NA,30,NA,NA,NA,NA,NA,NA
"GLP003","LB","107001363",NA,441,NA,NA,NA,"CREAT","Creatinine","SERUM CHEMISTRY",NA,"0.39","mg/dL",NA,NA,"0.39",0.39,"mg/dL",NA,NA,NA,NA,NA,NA,NA,"SERUM",NA,NA,NA,NA,NA,NA,NA,NA,NA,NA,NA,NA,NA,NA,NA,30,"2007-07-11T08:20:00",NA,30,NA,NA,NA,NA,NA,NA
"GLP003","LB","107001363",NA,442,NA,NA,NA,"GLOBUL","Globulin","SERUM CHEMISTRY",NA,"3.3","g/dL",NA,NA,"3.3",3.3,"g/dL",NA,NA,NA,NA,NA,NA,NA,"SERUM",NA,NA,NA,NA,NA,NA,NA,NA,NA,NA,NA,NA,NA,NA,NA,30,"2007-07-11T08:20:00",NA,30,NA,NA,NA,NA,NA,NA
"GLP003","LB","107001363",NA,443,NA,NA,NA,"GLUC","Glucose","SERUM CHEMISTRY",NA,"98","mg/dL",NA,NA,"98",98,"mg/dL",NA,NA,NA,NA,NA,NA,NA,"SERUM",NA,NA,NA,NA,NA,NA,NA,NA,NA,NA,NA,NA,NA,NA,NA,30,"2007-07-11T08:20:00",NA,30,NA,NA,NA,NA,NA,NA
"GLP003","LB","107001363",NA,444,NA,NA,NA,"K","Potassium","SERUM CHEMISTRY",NA,"4.8","mEq/L",NA,NA,"4.8",4.8,"mEq/L",NA,NA,NA,NA,NA,NA,NA,"SERUM",NA,NA,NA,NA,NA,NA,NA,NA,NA,NA,NA,NA,NA,NA,NA,30,"2007-07-11T08:20:00",NA,30,NA,NA,NA,NA,NA,NA
"GLP003","LB","107001363",NA,445,NA,NA,NA,"PHOS","Phosphate","SERUM CHEMISTRY",NA,"6.9","mg/dL",NA,NA,"6.9",6.9,"mg/dL",NA,NA,NA,NA,NA,NA,NA,"SERUM",NA,NA,NA,NA,NA,NA,NA,NA,NA,NA,NA,NA,NA,NA,NA,30,"2007-07-11T08:20:00",NA,30,NA,NA,NA,NA,NA,NA
"GLP003","LB","107001363",NA,446,NA,NA,NA,"SODIUM","Sodium","SERUM CHEMISTRY",NA,"144","mEq/L",NA,NA,"144",144,"mEq/L",NA,NA,NA,NA,NA,NA,NA,"SERUM",NA,NA,NA,NA,NA,NA,NA,NA,NA,NA,NA,NA,NA,NA,NA,30,"2007-07-11T08:20:00",NA,30,NA,NA,NA,NA,NA,NA
"GLP003","LB","107001363",NA,447,NA,NA,NA,"BILI","Bilirubin","SERUM CHEMISTRY",NA,"0.13","mg/dL",NA,NA,"0.13",0.13,"mg/dL",NA,NA,NA,NA,NA,NA,NA,"SERUM",NA,NA,NA,NA,NA,NA,NA,NA,NA,NA,NA,NA,NA,NA,NA,30,"2007-07-11T08:20:00",NA,30,NA,NA,NA,NA,NA,NA
"GLP003","LB","107001363",NA,448,NA,NA,NA,"PROT","Protein","SERUM CHEMISTRY",NA,"7.0","g/dL",NA,NA,"7.0",7,"g/dL",NA,NA,NA,NA,NA,NA,NA,"SERUM",NA,NA,NA,NA,NA,NA,NA,NA,NA,NA,NA,NA,NA,NA,NA,30,"2007-07-11T08:20:00",NA,30,NA,NA,NA,NA,NA,NA
"GLP003","LB","107001363",NA,449,NA,NA,NA,"TRIG","Triglycerides","SERUM CHEMISTRY",NA,"44","mg/dL",NA,NA,"44",44,"mg/dL",NA,NA,NA,NA,NA,NA,NA,"SERUM",NA,NA,NA,NA,NA,NA,NA,NA,NA,NA,NA,NA,NA,NA,NA,30,"2007-07-11T08:20:00",NA,30,NA,NA,NA,NA,NA,NA
"GLP003","LB","107001363",NA,450,NA,NA,NA,"CLARITY","Clarity","URINALYSIS",NA,"CLEAR",NA,NA,NA,"CLEAR",NA,NA,NA,NA,NA,NA,NA,NA,NA,"URINE",NA,NA,NA,NA,NA,NA,NA,NA,NA,NA,NA,NA,NA,NA,NA,30,"2007-07-11T07:28:00",NA,30,NA,NA,NA,NA,NA,NA
"GLP003","LB","107001363",NA,451,NA,NA,NA,"COLOR","Color","URINALYSIS",NA,"YELLOW",NA,NA,NA,"YELLOW",NA,NA,NA,NA,NA,NA,NA,NA,NA,"URINE",NA,NA,NA,NA,NA,NA,NA,NA,NA,NA,NA,NA,NA,NA,NA,30,"2007-07-11T07:28:00",NA,30,NA,NA,NA,NA,NA,NA
"GLP003","LB","107001363",NA,452,NA,NA,NA,"BILI","Bilirubin","URINALYSIS",NA,"NEGATIVE",NA,NA,NA,"NEGATIVE",NA,NA,NA,NA,NA,NA,NA,NA,NA,"URINE",NA,NA,NA,NA,NA,NA,NA,"Atlas",NA,NA,NA,NA,NA,NA,NA,30,"2007-07-11T07:28:00",NA,30,NA,NA,NA,NA,NA,NA
"GLP003","LB","107001363",NA,453,NA,NA,NA,"GLUC","Glucose","URINALYSIS",NA,"NEGATIVE",NA,NA,NA,"NEGATIVE",NA,NA,NA,NA,NA,NA,NA,NA,NA,"URINE",NA,NA,NA,NA,NA,NA,NA,"Atlas, qualitative",NA,NA,NA,NA,NA,NA,NA,30,"2007-07-11T07:28:00",NA,30,NA,NA,NA,NA,NA,NA
"GLP003","LB","107001363",NA,454,NA,NA,NA,"OCCBLD","Occult Blood","URINALYSIS",NA,"NEGATIVE",NA,NA,NA,"NEGATIVE",NA,NA,NA,NA,NA,NA,NA,NA,NA,"URINE",NA,NA,NA,NA,NA,NA,NA,NA,NA,NA,NA,NA,NA,NA,NA,30,"2007-07-11T07:28:00",NA,30,NA,NA,NA,NA,NA,NA
"GLP003","LB","107001363",NA,455,NA,NA,NA,"KETONES","Ketones","URINALYSIS",NA,"NEGATIVE",NA,NA,NA,"NEGATIVE",NA,NA,NA,NA,NA,NA,NA,NA,NA,"URINE",NA,NA,NA,NA,NA,NA,NA,NA,NA,NA,NA,NA,NA,NA,NA,30,"2007-07-11T07:28:00",NA,30,NA,NA,NA,NA,NA,NA
"GLP003","LB","107001363",NA,456,NA,NA,NA,"PH","pH","URINALYSIS",NA,"6.5","pH",NA,NA,"6.5",6.5,"pH",NA,NA,NA,NA,NA,NA,NA,"URINE",NA,NA,NA,NA,NA,NA,NA,NA,NA,NA,NA,NA,NA,NA,NA,30,"2007-07-11T07:28:00",NA,30,NA,NA,NA,NA,NA,NA
"GLP003","LB","107001363",NA,457,NA,NA,NA,"SPGRAV","Specific Gravity","URINALYSIS",NA,"1.017",NA,NA,NA,"1.017",1.017,NA,NA,NA,NA,NA,NA,NA,NA,"URINE",NA,NA,NA,NA,NA,NA,NA,NA,NA,NA,NA,NA,NA,NA,NA,30,"2007-07-11T07:28:00",NA,30,NA,NA,NA,NA,NA,NA
"GLP003","LB","107001363",NA,458,NA,NA,NA,"UROBIL","Urobilinogen","URINALYSIS",NA,"0.2","mg/dL",NA,NA,"0.2",0.2,"mg/dL",NA,NA,NA,NA,NA,NA,NA,"URINE",NA,NA,NA,NA,NA,NA,NA,NA,NA,NA,NA,NA,NA,NA,NA,30,"2007-07-11T07:28:00",NA,30,NA,NA,NA,NA,NA,NA
"GLP003","LB","107001363",NA,459,NA,NA,NA,"VOLUME","Volume","URINALYSIS",NA,"19","mL",NA,NA,"19",19,"mL",NA,NA,NA,NA,NA,NA,NA,"URINE",NA,NA,NA,NA,NA,NA,NA,NA,NA,NA,NA,NA,NA,NA,NA,30,"2007-07-11T08:20:00",NA,30,NA,NA,NA,NA,NA,NA
"GLP003","LB","107001363",NA,460,NA,NA,NA,"ANISO","Anisocytes","HEMATOLOGY",NA,"-",NA,NA,NA,"-",NA,NA,NA,NA,NA,NA,NA,NA,NA,"WHOLE BLOOD",NA,NA,NA,NA,NA,NA,NA,NA,NA,NA,NA,NA,NA,NA,NA,30,"2007-07-11T10:00:00",NA,30,NA,NA,NA,NA,NA,NA
"GLP003","LB","107001363",NA,461,NA,NA,NA,"RBCINCL","RBC Inclusions","HEMATOLOGY",NA,"-",NA,NA,NA,"-",NA,NA,NA,NA,NA,NA,NA,NA,NA,"WHOLE BLOOD",NA,NA,NA,NA,NA,NA,NA,NA,NA,NA,NA,NA,NA,NA,NA,30,"2007-07-11T10:00:00",NA,30,NA,NA,NA,NA,NA,NA
"GLP003","LB","107001363",NA,462,NA,NA,NA,"PLATM","Platelet Morphology","HEMATOLOGY",NA,NA,NA,NA,NA,NA,NA,NA,NA,NA,NA,NA,"NOT DONE","Platelet clumping",NA,"WHOLE BLOOD",NA,NA,NA,NA,NA,NA,NA,NA,NA,NA,NA,NA,NA,NA,NA,30,"2007-07-11T10:00:00",NA,30,NA,NA,NA,NA,NA,NA
"GLP003","LB","107001363",NA,463,NA,NA,NA,"POIKILO","Poikilocytes","HEMATOLOGY",NA,"3+",NA,NA,NA,"3+",NA,NA,NA,NA,NA,NA,NA,NA,NA,"WHOLE BLOOD",NA,NA,NA,NA,NA,NA,NA,NA,NA,NA,NA,NA,NA,NA,NA,30,"2007-07-11T10:00:00",NA,30,NA,NA,NA,NA,NA,NA
"GLP003","LB","107001363",NA,464,NA,NA,NA,"POLYCHR","Polychromasia","HEMATOLOGY",NA,"-",NA,NA,NA,"-",NA,NA,NA,NA,NA,NA,NA,NA,NA,"WHOLE BLOOD",NA,NA,NA,NA,NA,NA,NA,NA,NA,NA,NA,NA,NA,NA,NA,30,"2007-07-11T10:00:00",NA,30,NA,NA,NA,NA,NA,NA
"GLP003","LB","107001363",NA,465,NA,NA,NA,"WBCMORPH","Leukocyte Cell Morphology","HEMATOLOGY",NA,"-",NA,NA,NA,"-",NA,NA,NA,NA,NA,NA,NA,NA,NA,"WHOLE BLOOD",NA,NA,NA,NA,NA,NA,NA,NA,NA,NA,NA,NA,NA,NA,NA,30,"2007-07-11T10:00:00",NA,30,NA,NA,NA,NA,NA,NA
"GLP003","LB","107001363",NA,466,NA,NA,NA,"CYAMORPH","Amorphous Crystals","URINALYSIS",NA,"1+",NA,NA,NA,"1+",NA,NA,NA,NA,NA,NA,NA,NA,NA,"URINE",NA,NA,NA,NA,NA,NA,NA,NA,NA,NA,NA,NA,NA,NA,NA,30,"2007-07-11T07:28:00",NA,30,NA,NA,NA,NA,NA,NA
"GLP003","LB","107001363",NA,467,NA,NA,NA,"BACT","Bacteria","URINALYSIS",NA,"2+",NA,NA,NA,"2+",NA,NA,NA,NA,NA,NA,NA,NA,NA,"URINE",NA,NA,NA,NA,NA,NA,NA,NA,NA,NA,NA,NA,NA,NA,NA,30,"2007-07-11T07:28:00",NA,30,NA,NA,NA,NA,NA,NA
"GLP003","LB","107001363",NA,468,NA,NA,NA,"CYCACAR","Calcium Carbonate Crystals","URINALYSIS",NA,"-",NA,NA,NA,"-",NA,NA,NA,NA,NA,NA,NA,NA,NA,"URINE",NA,NA,NA,NA,NA,NA,NA,NA,NA,NA,NA,NA,NA,NA,NA,30,"2007-07-11T07:28:00",NA,30,NA,NA,NA,NA,NA,NA
"GLP003","LB","107001363",NA,469,NA,NA,NA,"CYCAOXA","Calcium Oxalate Crystals","URINALYSIS",NA,"-",NA,NA,NA,"-",NA,NA,NA,NA,NA,NA,NA,NA,NA,"URINE",NA,NA,NA,NA,NA,NA,NA,NA,NA,NA,NA,NA,NA,NA,NA,30,"2007-07-11T07:28:00",NA,30,NA,NA,NA,NA,NA,NA
"GLP003","LB","107001363",NA,470,NA,NA,NA,"EPIC","Epithelial Cells","URINALYSIS",NA,"-",NA,NA,NA,"-",NA,NA,NA,NA,NA,NA,NA,NA,NA,"URINE",NA,NA,NA,NA,NA,NA,NA,NA,NA,NA,NA,NA,NA,NA,NA,30,"2007-07-11T07:28:00",NA,30,NA,NA,NA,NA,NA,NA
"GLP003","LB","107001363",NA,471,NA,NA,NA,"CASTS","Casts","URINALYSIS",NA,"-",NA,NA,NA,"-",NA,NA,NA,NA,NA,NA,NA,NA,NA,"URINE",NA,NA,NA,NA,NA,NA,NA,NA,NA,NA,NA,NA,NA,NA,NA,30,"2007-07-11T07:28:00",NA,30,NA,NA,NA,NA,NA,NA
"GLP003","LB","107001363",NA,472,NA,NA,NA,"MISC","Miscellaneous Cell Types","URINALYSIS",NA,"-",NA,NA,NA,"-",NA,NA,NA,NA,NA,NA,NA,NA,NA,"URINE",NA,NA,NA,NA,NA,NA,NA,NA,NA,NA,NA,NA,NA,NA,NA,30,"2007-07-11T07:28:00",NA,30,NA,NA,NA,NA,NA,NA
"GLP003","LB","107001363",NA,473,NA,NA,NA,"CYTRPHOS","Triple Phosphate Crystals","URINALYSIS",NA,"-",NA,NA,NA,"-",NA,NA,NA,NA,NA,NA,NA,NA,NA,"URINE",NA,NA,NA,NA,NA,NA,NA,NA,NA,NA,NA,NA,NA,NA,NA,30,"2007-07-11T07:28:00",NA,30,NA,NA,NA,NA,NA,NA
"GLP003","LB","107001363",NA,474,NA,NA,NA,"SPERM","Spermatozoa","URINALYSIS",NA,"2+",NA,NA,NA,"2+",NA,NA,NA,NA,NA,NA,NA,NA,NA,"URINE",NA,NA,NA,NA,NA,NA,NA,NA,NA,NA,NA,NA,NA,NA,NA,30,"2007-07-11T07:28:00",NA,30,NA,NA,NA,NA,NA,NA
"GLP003","LB","107001363",NA,475,NA,NA,NA,"WBC","Leukocytes","URINALYSIS",NA,"-",NA,NA,NA,"-",NA,NA,NA,NA,NA,NA,NA,NA,NA,"URINE",NA,NA,NA,NA,NA,NA,NA,NA,NA,NA,NA,NA,NA,NA,NA,30,"2007-07-11T07:28:00",NA,30,NA,NA,NA,NA,NA,NA
"GLP003","LB","107001363",NA,476,NA,NA,NA,"RBC","Erythrocytes","URINALYSIS",NA,"-",NA,NA,NA,"-",NA,NA,NA,NA,NA,NA,NA,NA,NA,"URINE",NA,NA,NA,NA,NA,NA,NA,NA,NA,NA,NA,NA,NA,NA,NA,30,"2007-07-11T07:28:00",NA,30,NA,NA,NA,NA,NA,NA
"GLP003","LB","107001363",NA,477,NA,NA,NA,"CRYOTHER","Other Crystals","URINALYSIS",NA,"-",NA,NA,NA,"-",NA,NA,NA,NA,NA,NA,NA,NA,NA,"URINE",NA,NA,NA,NA,NA,NA,NA,NA,NA,NA,NA,NA,NA,NA,NA,30,"2007-07-11T07:28:00",NA,30,NA,NA,NA,NA,NA,NA
"GLP003","LB","107001363",NA,478,NA,NA,NA,"PROT","Protein","URINALYSIS",NA,"46","mg/dL",NA,NA,"46",46,"mg/dL",NA,NA,NA,NA,NA,NA,NA,"URINE",NA,NA,NA,NA,NA,NA,NA,NA,NA,NA,NA,NA,NA,NA,NA,30,"2007-07-10T14:20:00",NA,29,NA,NA,NA,NA,NA,NA
"GLP003","LB","107001363",NA,479,NA,NA,NA,"BICARB","Bicarbonate","SERUM CHEMISTRY",NA,"24","mmol/L",NA,NA,"24",24,"mmol/L",NA,NA,NA,NA,NA,NA,NA,"SERUM",NA,NA,NA,NA,NA,NA,NA,NA,NA,NA,NA,NA,NA,NA,NA,30,"2007-07-11T08:20:00",NA,30,NA,NA,NA,NA,NA,NA
"GLP003","LB","107001363",NA,481,NA,NA,NA,"RBCMORPH","Erythrocyte Cell Morphology","HEMATOLOGY",NA,"-",NA,NA,NA,"-",NA,NA,NA,NA,NA,NA,NA,NA,NA,"WHOLE BLOOD",NA,NA,NA,NA,NA,NA,NA,NA,NA,NA,NA,NA,NA,NA,NA,30,"2007-07-11T10:00:00",NA,30,NA,NA,NA,NA,NA,NA
"GLP003","LB","107001363",NA,482,NA,NA,NA,"WBC","Leukocytes","HEMATOLOGY",NA,"19.75","10^9/L",NA,NA,"19.75",19.75,"10^9/L",NA,NA,NA,NA,NA,NA,NA,"WHOLE BLOOD",NA,NA,NA,NA,NA,NA,NA,NA,NA,NA,NA,NA,NA,NA,NA,43,"2007-07-24T08:35:00",NA,43,NA,NA,NA,NA,NA,NA
"GLP003","LB","107001363",NA,483,NA,NA,NA,"RBC","Erythrocytes","HEMATOLOGY",NA,"8.88","10^12/L",NA,NA,"8.88",8.88,"10^12/L",NA,NA,NA,NA,NA,NA,NA,"WHOLE BLOOD",NA,NA,NA,NA,NA,NA,NA,NA,NA,NA,NA,NA,NA,NA,NA,43,"2007-07-24T08:35:00",NA,43,NA,NA,NA,NA,NA,NA
"GLP003","LB","107001363",NA,484,NA,NA,NA,"HGB","Hemoglobin","HEMATOLOGY",NA,"16.8","g/dL",NA,NA,"16.8",16.8,"g/dL",NA,NA,NA,NA,NA,NA,NA,"WHOLE BLOOD",NA,NA,NA,NA,NA,NA,NA,NA,NA,NA,NA,NA,NA,NA,NA,43,"2007-07-24T08:35:00",NA,43,NA,NA,NA,NA,NA,NA
"GLP003","LB","107001363",NA,485,NA,NA,NA,"HCT","Hematocrit","HEMATOLOGY",NA,"48.3","%",NA,NA,"48.3",48.3,"%",NA,NA,NA,NA,NA,NA,NA,"WHOLE BLOOD",NA,NA,NA,NA,NA,NA,NA,NA,NA,NA,NA,NA,NA,NA,NA,43,"2007-07-24T08:35:00",NA,43,NA,NA,NA,NA,NA,NA
"GLP003","LB","107001363",NA,486,NA,NA,NA,"MCV","Ery. Mean Corpuscular Volume","HEMATOLOGY",NA,"54.3","fL",NA,NA,"54.3",54.3,"fL",NA,NA,NA,NA,NA,NA,NA,"WHOLE BLOOD",NA,NA,NA,NA,NA,NA,NA,NA,NA,NA,NA,NA,NA,NA,NA,43,"2007-07-24T08:35:00",NA,43,NA,NA,NA,NA,NA,NA
"GLP003","LB","107001363",NA,487,NA,NA,NA,"MCH","Ery. Mean Corpuscular Hemoglobin","HEMATOLOGY",NA,"19.0","pg",NA,NA,"19.0",19,"pg",NA,NA,NA,NA,NA,NA,NA,"WHOLE BLOOD",NA,NA,NA,NA,NA,NA,NA,NA,NA,NA,NA,NA,NA,NA,NA,43,"2007-07-24T08:35:00",NA,43,NA,NA,NA,NA,NA,NA
"GLP003","LB","107001363",NA,488,NA,NA,NA,"MCHC","Ery. Mean Corpuscular HGB Concentration","HEMATOLOGY",NA,"34.9","g/dL",NA,NA,"34.9",34.9,"g/dL",NA,NA,NA,NA,NA,NA,NA,"WHOLE BLOOD",NA,NA,NA,NA,NA,NA,NA,NA,NA,NA,NA,NA,NA,NA,NA,43,"2007-07-24T08:35:00",NA,43,NA,NA,NA,NA,NA,NA
"GLP003","LB","107001363",NA,489,NA,NA,NA,"RDW","Erythrocytes Distribution Width","HEMATOLOGY",NA,"12.6","%",NA,NA,"12.6",12.6,"%",NA,NA,NA,NA,NA,NA,NA,"WHOLE BLOOD",NA,NA,NA,NA,NA,NA,NA,NA,NA,NA,NA,NA,NA,NA,NA,43,"2007-07-24T08:35:00",NA,43,NA,NA,NA,NA,NA,NA
"GLP003","LB","107001363",NA,490,NA,NA,NA,"PLAT","Platelets","HEMATOLOGY",NA,"965","10^9/L",NA,NA,"965",965,"10^9/L",NA,NA,NA,NA,NA,NA,NA,"WHOLE BLOOD",NA,NA,NA,NA,NA,NA,NA,NA,NA,NA,NA,NA,NA,NA,NA,43,"2007-07-24T08:35:00",NA,43,NA,NA,NA,NA,NA,NA
"GLP003","LB","107001363",NA,491,NA,NA,NA,"RETIRBC","Reticulocytes/Erythrocytes","HEMATOLOGY",NA,"2.3","%",NA,NA,"2.3",2.3,"%",NA,NA,NA,NA,NA,NA,NA,"WHOLE BLOOD",NA,NA,NA,NA,NA,NA,NA,NA,NA,NA,NA,NA,NA,NA,NA,43,"2007-07-24T08:35:00",NA,43,NA,NA,NA,NA,NA,NA
"GLP003","LB","107001363",NA,492,NA,NA,NA,"RETI","Reticulocytes","HEMATOLOGY",NA,"0.203","10^12/L",NA,NA,"0.203",0.203,"10^12/L",NA,NA,NA,NA,NA,NA,NA,"WHOLE BLOOD",NA,NA,NA,NA,NA,NA,NA,NA,NA,NA,NA,NA,NA,NA,NA,43,"2007-07-24T08:35:00",NA,43,NA,NA,NA,NA,NA,NA
"GLP003","LB","107001363",NA,493,NA,NA,NA,"NEUT","Neutrophils","HEMATOLOGY",NA,"1.90","10^9/L",NA,NA,"1.90",1.9,"10^9/L",NA,NA,NA,NA,NA,NA,NA,"WHOLE BLOOD",NA,NA,NA,NA,NA,NA,NA,NA,NA,NA,NA,NA,NA,NA,NA,43,"2007-07-24T08:35:00",NA,43,NA,NA,NA,NA,NA,NA
"GLP003","LB","107001363",NA,494,NA,NA,NA,"LYM","Lymphocytes","HEMATOLOGY",NA,"16.83","10^9/L",NA,NA,"16.83",16.83,"10^9/L",NA,NA,NA,NA,NA,NA,NA,"WHOLE BLOOD",NA,NA,NA,NA,NA,NA,NA,NA,NA,NA,NA,NA,NA,NA,NA,43,"2007-07-24T08:35:00",NA,43,NA,NA,NA,NA,NA,NA
"GLP003","LB","107001363",NA,495,NA,NA,NA,"MONO","Monocytes","HEMATOLOGY",NA,"0.44","10^9/L",NA,NA,"0.44",0.44,"10^9/L",NA,NA,NA,NA,NA,NA,NA,"WHOLE BLOOD",NA,NA,NA,NA,NA,NA,NA,NA,NA,NA,NA,NA,NA,NA,NA,43,"2007-07-24T08:35:00",NA,43,NA,NA,NA,NA,NA,NA
"GLP003","LB","107001363",NA,496,NA,NA,NA,"EOS","Eosinophils","HEMATOLOGY",NA,"0.10","10^9/L",NA,NA,"0.10",0.1,"10^9/L",NA,NA,NA,NA,NA,NA,NA,"WHOLE BLOOD",NA,NA,NA,NA,NA,NA,NA,NA,NA,NA,NA,NA,NA,NA,NA,43,"2007-07-24T08:35:00",NA,43,NA,NA,NA,NA,NA,NA
"GLP003","LB","107001363",NA,497,NA,NA,NA,"BASO","Basophils","HEMATOLOGY",NA,"0.24","10^9/L",NA,NA,"0.24",0.24,"10^9/L",NA,NA,NA,NA,NA,NA,NA,"WHOLE BLOOD",NA,NA,NA,NA,NA,NA,NA,NA,NA,NA,NA,NA,NA,NA,NA,43,"2007-07-24T08:35:00",NA,43,NA,NA,NA,NA,NA,NA
"GLP003","LB","107001363",NA,498,NA,NA,NA,"LGUNSCE","Large Unstained Cells","HEMATOLOGY",NA,"0.24","10^9/L",NA,NA,"0.24",0.24,"10^9/L",NA,NA,NA,NA,NA,NA,NA,"WHOLE BLOOD",NA,NA,NA,NA,NA,NA,NA,NA,NA,NA,NA,NA,NA,NA,NA,43,"2007-07-24T08:35:00",NA,43,NA,NA,NA,NA,NA,NA
"GLP003","LB","107001363",NA,499,NA,NA,NA,"ALT","Alanine Aminotransferase","SERUM CHEMISTRY",NA,"34","U/L",NA,NA,"34",34,"U/L",NA,NA,NA,NA,NA,NA,NA,"SERUM",NA,NA,NA,NA,NA,NA,NA,NA,NA,NA,NA,NA,NA,NA,NA,43,"2007-07-24T07:25:00",NA,43,NA,NA,NA,NA,NA,NA
"GLP003","LB","107001363",NA,500,NA,NA,NA,"ALB","Albumin","SERUM CHEMISTRY",NA,"3.8","g/dL",NA,NA,"3.8",3.8,"g/dL",NA,NA,NA,NA,NA,NA,NA,"SERUM",NA,NA,NA,NA,NA,NA,NA,NA,NA,NA,NA,NA,NA,NA,NA,43,"2007-07-24T07:25:00",NA,43,NA,NA,NA,NA,NA,NA
"GLP003","LB","107001363",NA,501,NA,NA,NA,"ALBGLOB","Albumin/Globulin","SERUM CHEMISTRY",NA,"1.1","RATIO",NA,NA,"1.1",1.1,"RATIO",NA,NA,NA,NA,NA,NA,NA,"SERUM",NA,NA,NA,NA,NA,NA,NA,NA,NA,NA,NA,NA,NA,NA,NA,43,"2007-07-24T07:25:00",NA,43,NA,NA,NA,NA,NA,NA
"GLP003","LB","107001363",NA,502,NA,NA,NA,"ALP","Alkaline Phosphatase","SERUM CHEMISTRY",NA,"134","U/L",NA,NA,"134",134,"U/L",NA,NA,NA,NA,NA,NA,NA,"SERUM",NA,NA,NA,NA,NA,NA,NA,NA,NA,NA,NA,NA,NA,NA,NA,43,"2007-07-24T07:25:00",NA,43,NA,NA,NA,NA,NA,NA
"GLP003","LB","107001363",NA,503,NA,NA,NA,"AST","Aspartate Aminotransferase","SERUM CHEMISTRY",NA,"95","U/L",NA,NA,"95",95,"U/L",NA,NA,NA,NA,NA,NA,NA,"SERUM",NA,NA,NA,NA,NA,NA,NA,NA,NA,NA,NA,NA,NA,NA,NA,43,"2007-07-24T07:25:00",NA,43,NA,NA,NA,NA,NA,NA
"GLP003","LB","107001363",NA,504,NA,NA,NA,"BUN","Blood Urea Nitrogen","SERUM CHEMISTRY",NA,"14","mg/dL",NA,NA,"14",14,"mg/dL",NA,NA,NA,NA,NA,NA,NA,"SERUM",NA,NA,NA,NA,NA,NA,NA,NA,NA,NA,NA,NA,NA,NA,NA,43,"2007-07-24T07:25:00",NA,43,NA,NA,NA,NA,NA,NA
"GLP003","LB","107001363",NA,505,NA,NA,NA,"CA","Calcium","SERUM CHEMISTRY",NA,"13.2","mg/dL",NA,NA,"13.2",13.2,"mg/dL",NA,NA,NA,NA,NA,NA,NA,"SERUM",NA,NA,NA,NA,NA,NA,NA,NA,NA,NA,NA,NA,NA,NA,NA,43,"2007-07-24T07:25:00",NA,43,NA,NA,NA,NA,NA,NA
"GLP003","LB","107001363",NA,506,NA,NA,NA,"CL","Chloride","SERUM CHEMISTRY",NA,"101","mEq/L",NA,NA,"101",101,"mEq/L",NA,NA,NA,NA,NA,NA,NA,"SERUM",NA,NA,NA,NA,NA,NA,NA,NA,NA,NA,NA,NA,NA,NA,NA,43,"2007-07-24T07:25:00",NA,43,NA,NA,NA,NA,NA,NA
"GLP003","LB","107001363",NA,507,NA,NA,NA,"CHOL","Cholesterol","SERUM CHEMISTRY",NA,"93","mg/dL",NA,NA,"93",93,"mg/dL",NA,NA,NA,NA,NA,NA,NA,"SERUM",NA,NA,NA,NA,NA,NA,NA,NA,NA,NA,NA,NA,NA,NA,NA,43,"2007-07-24T07:25:00",NA,43,NA,NA,NA,NA,NA,NA
"GLP003","LB","107001363",NA,508,NA,NA,NA,"CREAT","Creatinine","SERUM CHEMISTRY",NA,"0.49","mg/dL",NA,NA,"0.49",0.49,"mg/dL",NA,NA,NA,NA,NA,NA,NA,"SERUM",NA,NA,NA,NA,NA,NA,NA,NA,NA,NA,NA,NA,NA,NA,NA,43,"2007-07-24T07:25:00",NA,43,NA,NA,NA,NA,NA,NA
"GLP003","LB","107001363",NA,509,NA,NA,NA,"GLOBUL","Globulin","SERUM CHEMISTRY",NA,"3.4","g/dL",NA,NA,"3.4",3.4,"g/dL",NA,NA,NA,NA,NA,NA,NA,"SERUM",NA,NA,NA,NA,NA,NA,NA,NA,NA,NA,NA,NA,NA,NA,NA,43,"2007-07-24T07:25:00",NA,43,NA,NA,NA,NA,NA,NA
"GLP003","LB","107001363",NA,510,NA,NA,NA,"GLUC","Glucose","SERUM CHEMISTRY",NA,"97","mg/dL",NA,NA,"97",97,"mg/dL",NA,NA,NA,NA,NA,NA,NA,"SERUM",NA,NA,NA,NA,NA,NA,NA,NA,NA,NA,NA,NA,NA,NA,NA,43,"2007-07-24T07:25:00",NA,43,NA,NA,NA,NA,NA,NA
"GLP003","LB","107001363",NA,511,NA,NA,NA,"K","Potassium","SERUM CHEMISTRY",NA,"4.9","mEq/L",NA,NA,"4.9",4.9,"mEq/L",NA,NA,NA,NA,NA,NA,NA,"SERUM",NA,NA,NA,NA,NA,NA,NA,NA,NA,NA,NA,NA,NA,NA,NA,43,"2007-07-24T07:25:00",NA,43,NA,NA,NA,NA,NA,NA
"GLP003","LB","107001363",NA,512,NA,NA,NA,"PHOS","Phosphate","SERUM CHEMISTRY",NA,"8.6","mg/dL",NA,NA,"8.6",8.6,"mg/dL",NA,NA,NA,NA,NA,NA,NA,"SERUM",NA,NA,NA,NA,NA,NA,NA,NA,NA,NA,NA,NA,NA,NA,NA,43,"2007-07-24T07:25:00",NA,43,NA,NA,NA,NA,NA,NA
"GLP003","LB","107001363",NA,513,NA,NA,NA,"SODIUM","Sodium","SERUM CHEMISTRY",NA,"149","mEq/L",NA,NA,"149",149,"mEq/L",NA,NA,NA,NA,NA,NA,NA,"SERUM",NA,NA,NA,NA,NA,NA,NA,NA,NA,NA,NA,NA,NA,NA,NA,43,"2007-07-24T07:25:00",NA,43,NA,NA,NA,NA,NA,NA
"GLP003","LB","107001363",NA,514,NA,NA,NA,"BILI","Bilirubin","SERUM CHEMISTRY",NA,"0.19","mg/dL",NA,NA,"0.19",0.19,"mg/dL",NA,NA,NA,NA,NA,NA,NA,"SERUM",NA,NA,NA,NA,NA,NA,NA,NA,NA,NA,NA,NA,NA,NA,NA,43,"2007-07-24T07:25:00",NA,43,NA,NA,NA,NA,NA,NA
"GLP003","LB","107001363",NA,515,NA,NA,NA,"PROT","Protein","SERUM CHEMISTRY",NA,"7.2","g/dL",NA,NA,"7.2",7.2,"g/dL",NA,NA,NA,NA,NA,NA,NA,"SERUM",NA,NA,NA,NA,NA,NA,NA,NA,NA,NA,NA,NA,NA,NA,NA,43,"2007-07-24T07:25:00",NA,43,NA,NA,NA,NA,NA,NA
"GLP003","LB","107001363",NA,516,NA,NA,NA,"TRIG","Triglycerides","SERUM CHEMISTRY",NA,"37","mg/dL",NA,NA,"37",37,"mg/dL",NA,NA,NA,NA,NA,NA,NA,"SERUM",NA,NA,NA,NA,NA,NA,NA,NA,NA,NA,NA,NA,NA,NA,NA,43,"2007-07-24T07:25:00",NA,43,NA,NA,NA,NA,NA,NA
"GLP003","LB","107001363",NA,517,NA,NA,NA,"APTT","Activated Partial Thromboplastin Time","COAGULATION",NA,"16.4","sec",NA,NA,"16.4",16.4,"sec",NA,NA,NA,NA,NA,NA,NA,"PLASMA",NA,NA,NA,NA,NA,NA,NA,NA,NA,NA,NA,NA,NA,NA,NA,43,"2007-07-24T08:44:00",NA,43,NA,NA,NA,NA,NA,NA
"GLP003","LB","107001363",NA,518,NA,NA,NA,"PT","Prothrombin Time","COAGULATION",NA,"18.3","sec",NA,NA,"18.3",18.3,"sec",NA,NA,NA,NA,NA,NA,NA,"PLASMA",NA,NA,NA,NA,NA,NA,NA,NA,NA,NA,NA,NA,NA,NA,NA,43,"2007-07-24T08:44:00",NA,43,NA,NA,NA,NA,NA,NA
"GLP003","LB","107001363",NA,519,NA,NA,NA,"FIBRINO","Fibrinogen","COAGULATION",NA,"256","mg/dL",NA,NA,"256",256,"mg/dL",NA,NA,NA,NA,NA,NA,NA,"PLASMA",NA,NA,NA,NA,NA,NA,NA,NA,NA,NA,NA,NA,NA,NA,NA,43,"2007-07-24T08:44:00",NA,43,NA,NA,NA,NA,NA,NA
"GLP003","LB","107001363",NA,520,NA,NA,NA,"CLARITY","Clarity","URINALYSIS",NA,"CLOUDY",NA,NA,NA,"CLOUDY",NA,NA,NA,NA,NA,NA,NA,NA,NA,"URINE",NA,NA,NA,NA,NA,NA,NA,NA,NA,NA,NA,NA,NA,NA,NA,43,"2007-07-24T06:47:00",NA,43,NA,NA,NA,NA,NA,NA
"GLP003","LB","107001363",NA,521,NA,NA,NA,"COLOR","Color","URINALYSIS",NA,"YELLOW",NA,NA,NA,"YELLOW",NA,NA,NA,NA,NA,NA,NA,NA,NA,"URINE",NA,NA,NA,NA,NA,NA,NA,NA,NA,NA,NA,NA,NA,NA,NA,43,"2007-07-24T06:47:00",NA,43,NA,NA,NA,NA,NA,NA
"GLP003","LB","107001363",NA,522,NA,NA,NA,"BILI","Bilirubin","URINALYSIS",NA,"NEGATIVE",NA,NA,NA,"NEGATIVE",NA,NA,NA,NA,NA,NA,NA,NA,NA,"URINE",NA,NA,NA,NA,NA,NA,NA,"Atlas",NA,NA,NA,NA,NA,NA,NA,43,"2007-07-24T06:47:00",NA,43,NA,NA,NA,NA,NA,NA
"GLP003","LB","107001363",NA,523,NA,NA,NA,"GLUC","Glucose","URINALYSIS",NA,"NEGATIVE",NA,NA,NA,"NEGATIVE",NA,NA,NA,NA,NA,NA,NA,NA,NA,"URINE",NA,NA,NA,NA,NA,NA,NA,"Atlas, qualitative",NA,NA,NA,NA,NA,NA,NA,43,"2007-07-24T06:47:00",NA,43,NA,NA,NA,NA,NA,NA
"GLP003","LB","107001363",NA,524,NA,NA,NA,"OCCBLD","Occult Blood","URINALYSIS",NA,"NEGATIVE",NA,NA,NA,"NEGATIVE",NA,NA,NA,NA,NA,NA,NA,NA,NA,"URINE",NA,NA,NA,NA,NA,NA,NA,NA,NA,NA,NA,NA,NA,NA,NA,43,"2007-07-24T06:47:00",NA,43,NA,NA,NA,NA,NA,NA
"GLP003","LB","107001363",NA,525,NA,NA,NA,"KETONES","Ketones","URINALYSIS",NA,"NEGATIVE",NA,NA,NA,"NEGATIVE",NA,NA,NA,NA,NA,NA,NA,NA,NA,"URINE",NA,NA,NA,NA,NA,NA,NA,NA,NA,NA,NA,NA,NA,NA,NA,43,"2007-07-24T06:47:00",NA,43,NA,NA,NA,NA,NA,NA
"GLP003","LB","107001363",NA,526,NA,NA,NA,"PH","pH","URINALYSIS",NA,"6.5","pH",NA,NA,"6.5",6.5,"pH",NA,NA,NA,NA,NA,NA,NA,"URINE",NA,NA,NA,NA,NA,NA,NA,NA,NA,NA,NA,NA,NA,NA,NA,43,"2007-07-24T06:47:00",NA,43,NA,NA,NA,NA,NA,NA
"GLP003","LB","107001363",NA,527,NA,NA,NA,"SPGRAV","Specific Gravity","URINALYSIS",NA,"1.019",NA,NA,NA,"1.019",1.019,NA,NA,NA,NA,NA,NA,NA,NA,"URINE",NA,NA,NA,NA,NA,NA,NA,NA,NA,NA,NA,NA,NA,NA,NA,43,"2007-07-24T06:47:00",NA,43,NA,NA,NA,NA,NA,NA
"GLP003","LB","107001363",NA,528,NA,NA,NA,"UROBIL","Urobilinogen","URINALYSIS",NA,"0.2","mg/dL",NA,NA,"0.2",0.2,"mg/dL",NA,NA,NA,NA,NA,NA,NA,"URINE",NA,NA,NA,NA,NA,NA,NA,NA,NA,NA,NA,NA,NA,NA,NA,43,"2007-07-24T06:47:00",NA,43,NA,NA,NA,NA,NA,NA
"GLP003","LB","107001363",NA,529,NA,NA,NA,"VOLUME","Volume","URINALYSIS",NA,"19","mL",NA,NA,"19",19,"mL",NA,NA,NA,NA,NA,NA,NA,"URINE",NA,NA,NA,NA,NA,NA,NA,NA,NA,NA,NA,NA,NA,NA,NA,43,"2007-07-24T07:28:00",NA,43,NA,NA,NA,NA,NA,NA
"GLP003","LB","107001363",NA,530,NA,NA,NA,"ANISO","Anisocytes","HEMATOLOGY",NA,"-",NA,NA,NA,"-",NA,NA,NA,NA,NA,NA,NA,NA,NA,"WHOLE BLOOD",NA,NA,NA,NA,NA,NA,NA,NA,NA,NA,NA,NA,NA,NA,NA,43,"2007-07-24T11:01:00",NA,43,NA,NA,NA,NA,NA,NA
"GLP003","LB","107001363",NA,531,NA,NA,NA,"RBCINCL","RBC Inclusions","HEMATOLOGY",NA,"-",NA,NA,NA,"-",NA,NA,NA,NA,NA,NA,NA,NA,NA,"WHOLE BLOOD",NA,NA,NA,NA,NA,NA,NA,NA,NA,NA,NA,NA,NA,NA,NA,43,"2007-07-24T11:01:00",NA,43,NA,NA,NA,NA,NA,NA
"GLP003","LB","107001363",NA,532,NA,NA,NA,"PLATM","Platelet Morphology","HEMATOLOGY",NA,"-",NA,NA,NA,"-",NA,NA,NA,NA,NA,NA,NA,NA,NA,"WHOLE BLOOD",NA,NA,NA,NA,NA,NA,NA,NA,NA,NA,NA,NA,NA,NA,NA,43,"2007-07-24T11:01:00",NA,43,NA,NA,NA,NA,NA,NA
"GLP003","LB","107001363",NA,533,NA,NA,NA,"POIKILO","Poikilocytes","HEMATOLOGY",NA,"2+",NA,NA,NA,"2+",NA,NA,NA,NA,NA,NA,NA,NA,NA,"WHOLE BLOOD",NA,NA,NA,NA,NA,NA,NA,NA,NA,NA,NA,NA,NA,NA,NA,43,"2007-07-24T11:01:00",NA,43,NA,NA,NA,NA,NA,NA
"GLP003","LB","107001363",NA,534,NA,NA,NA,"POLYCHR","Polychromasia","HEMATOLOGY",NA,"-",NA,NA,NA,"-",NA,NA,NA,NA,NA,NA,NA,NA,NA,"WHOLE BLOOD",NA,NA,NA,NA,NA,NA,NA,NA,NA,NA,NA,NA,NA,NA,NA,43,"2007-07-24T11:01:00",NA,43,NA,NA,NA,NA,NA,NA
"GLP003","LB","107001363",NA,535,NA,NA,NA,"WBCMORPH","Leukocyte Cell Morphology","HEMATOLOGY",NA,"-",NA,NA,NA,"-",NA,NA,NA,NA,NA,NA,NA,NA,NA,"WHOLE BLOOD",NA,NA,NA,NA,NA,NA,NA,NA,NA,NA,NA,NA,NA,NA,NA,43,"2007-07-24T11:01:00",NA,43,NA,NA,NA,NA,NA,NA
"GLP003","LB","107001363",NA,536,NA,NA,NA,"CYAMORPH","Amorphous Crystals","URINALYSIS",NA,"-",NA,NA,NA,"-",NA,NA,NA,NA,NA,NA,NA,NA,NA,"URINE",NA,NA,NA,NA,NA,NA,NA,NA,NA,NA,NA,NA,NA,NA,NA,43,"2007-07-24T06:47:00",NA,43,NA,NA,NA,NA,NA,NA
"GLP003","LB","107001363",NA,537,NA,NA,NA,"BACT","Bacteria","URINALYSIS",NA,"-",NA,NA,NA,"-",NA,NA,NA,NA,NA,NA,NA,NA,NA,"URINE",NA,NA,NA,NA,NA,NA,NA,NA,NA,NA,NA,NA,NA,NA,NA,43,"2007-07-24T06:47:00",NA,43,NA,NA,NA,NA,NA,NA
"GLP003","LB","107001363",NA,538,NA,NA,NA,"CYCACAR","Calcium Carbonate Crystals","URINALYSIS",NA,"-",NA,NA,NA,"-",NA,NA,NA,NA,NA,NA,NA,NA,NA,"URINE",NA,NA,NA,NA,NA,NA,NA,NA,NA,NA,NA,NA,NA,NA,NA,43,"2007-07-24T06:47:00",NA,43,NA,NA,NA,NA,NA,NA
"GLP003","LB","107001363",NA,539,NA,NA,NA,"CYCAOXA","Calcium Oxalate Crystals","URINALYSIS",NA,"-",NA,NA,NA,"-",NA,NA,NA,NA,NA,NA,NA,NA,NA,"URINE",NA,NA,NA,NA,NA,NA,NA,NA,NA,NA,NA,NA,NA,NA,NA,43,"2007-07-24T06:47:00",NA,43,NA,NA,NA,NA,NA,NA
"GLP003","LB","107001363",NA,540,NA,NA,NA,"EPIC","Epithelial Cells","URINALYSIS",NA,"-",NA,NA,NA,"-",NA,NA,NA,NA,NA,NA,NA,NA,NA,"URINE",NA,NA,NA,NA,NA,NA,NA,NA,NA,NA,NA,NA,NA,NA,NA,43,"2007-07-24T06:47:00",NA,43,NA,NA,NA,NA,NA,NA
"GLP003","LB","107001363",NA,541,NA,NA,NA,"CASTS","Casts","URINALYSIS",NA,"-",NA,NA,NA,"-",NA,NA,NA,NA,NA,NA,NA,NA,NA,"URINE",NA,NA,NA,NA,NA,NA,NA,NA,NA,NA,NA,NA,NA,NA,NA,43,"2007-07-24T06:47:00",NA,43,NA,NA,NA,NA,NA,NA
"GLP003","LB","107001363",NA,542,NA,NA,NA,"MISC","Miscellaneous Cell Types","URINALYSIS",NA,"-",NA,NA,NA,"-",NA,NA,NA,NA,NA,NA,NA,NA,NA,"URINE",NA,NA,NA,NA,NA,NA,NA,NA,NA,NA,NA,NA,NA,NA,NA,43,"2007-07-24T06:47:00",NA,43,NA,NA,NA,NA,NA,NA
"GLP003","LB","107001363",NA,543,NA,NA,NA,"CYTRPHOS","Triple Phosphate Crystals","URINALYSIS",NA,"-",NA,NA,NA,"-",NA,NA,NA,NA,NA,NA,NA,NA,NA,"URINE",NA,NA,NA,NA,NA,NA,NA,NA,NA,NA,NA,NA,NA,NA,NA,43,"2007-07-24T06:47:00",NA,43,NA,NA,NA,NA,NA,NA
"GLP003","LB","107001363",NA,544,NA,NA,NA,"SPERM","Spermatozoa","URINALYSIS",NA,"1+",NA,NA,NA,"1+",NA,NA,NA,NA,NA,NA,NA,NA,NA,"URINE",NA,NA,NA,NA,NA,NA,NA,NA,NA,NA,NA,NA,NA,NA,NA,43,"2007-07-24T06:47:00",NA,43,NA,NA,NA,NA,NA,NA
"GLP003","LB","107001363",NA,545,NA,NA,NA,"WBC","Leukocytes","URINALYSIS",NA,"-",NA,NA,NA,"-",NA,NA,NA,NA,NA,NA,NA,NA,NA,"URINE",NA,NA,NA,NA,NA,NA,NA,NA,NA,NA,NA,NA,NA,NA,NA,43,"2007-07-24T06:47:00",NA,43,NA,NA,NA,NA,NA,NA
"GLP003","LB","107001363",NA,546,NA,NA,NA,"RBC","Erythrocytes","URINALYSIS",NA,"-",NA,NA,NA,"-",NA,NA,NA,NA,NA,NA,NA,NA,NA,"URINE",NA,NA,NA,NA,NA,NA,NA,NA,NA,NA,NA,NA,NA,NA,NA,43,"2007-07-24T06:47:00",NA,43,NA,NA,NA,NA,NA,NA
"GLP003","LB","107001363",NA,547,NA,NA,NA,"CRYOTHER","Other Crystals","URINALYSIS",NA,"-",NA,NA,NA,"-",NA,NA,NA,NA,NA,NA,NA,NA,NA,"URINE",NA,NA,NA,NA,NA,NA,NA,NA,NA,NA,NA,NA,NA,NA,NA,43,"2007-07-24T06:47:00",NA,43,NA,NA,NA,NA,NA,NA
"GLP003","LB","107001363",NA,548,NA,NA,NA,"PROT","Protein","URINALYSIS",NA,"49","mg/dL",NA,NA,"49",49,"mg/dL",NA,NA,NA,NA,NA,NA,NA,"URINE",NA,NA,NA,NA,NA,NA,NA,NA,NA,NA,NA,NA,NA,NA,NA,43,"2007-07-23T13:28:00",NA,42,NA,NA,NA,NA,NA,NA
"GLP003","LB","107001363",NA,549,NA,NA,NA,"BICARB","Bicarbonate","SERUM CHEMISTRY",NA,"22","mmol/L",NA,NA,"22",22,"mmol/L",NA,NA,NA,NA,NA,NA,NA,"SERUM",NA,NA,NA,NA,NA,NA,NA,NA,NA,NA,NA,NA,NA,NA,NA,43,"2007-07-24T07:25:00",NA,43,NA,NA,NA,NA,NA,NA
"GLP003","LB","107001363",NA,551,NA,NA,NA,"RBCMORPH","Erythrocyte Cell Morphology","HEMATOLOGY",NA,"-",NA,NA,NA,"-",NA,NA,NA,NA,NA,NA,NA,NA,NA,"WHOLE BLOOD",NA,NA,NA,NA,NA,NA,NA,NA,NA,NA,NA,NA,NA,NA,NA,43,"2007-07-24T11:01:00",NA,43,NA,NA,NA,NA,NA,NA
"GLP003","LB","107001369",NA,552,NA,NA,NA,"WBC","Leukocytes","HEMATOLOGY",NA,"13.83","10^9/L",NA,NA,"13.83",13.83,"10^9/L",NA,NA,NA,NA,NA,NA,NA,"WHOLE BLOOD",NA,NA,NA,NA,NA,NA,NA,NA,NA,NA,NA,NA,NA,NA,NA,30,"2007-07-11T09:00:00",NA,30,NA,NA,NA,NA,NA,NA
"GLP003","LB","107001369",NA,553,NA,NA,NA,"RBC","Erythrocytes","HEMATOLOGY",NA,"9.09","10^12/L",NA,NA,"9.09",9.09,"10^12/L",NA,NA,NA,NA,NA,NA,NA,"WHOLE BLOOD",NA,NA,NA,NA,NA,NA,NA,NA,NA,NA,NA,NA,NA,NA,NA,30,"2007-07-11T09:00:00",NA,30,NA,NA,NA,NA,NA,NA
"GLP003","LB","107001369",NA,554,NA,NA,NA,"HGB","Hemoglobin","HEMATOLOGY",NA,"16.8","g/dL",NA,NA,"16.8",16.8,"g/dL",NA,NA,NA,NA,NA,NA,NA,"WHOLE BLOOD",NA,NA,NA,NA,NA,NA,NA,NA,NA,NA,NA,NA,NA,NA,NA,30,"2007-07-11T09:00:00",NA,30,NA,NA,NA,NA,NA,NA
"GLP003","LB","107001369",NA,555,NA,NA,NA,"HCT","Hematocrit","HEMATOLOGY",NA,"48.6","%",NA,NA,"48.6",48.6,"%",NA,NA,NA,NA,NA,NA,NA,"WHOLE BLOOD",NA,NA,NA,NA,NA,NA,NA,NA,NA,NA,NA,NA,NA,NA,NA,30,"2007-07-11T09:00:00",NA,30,NA,NA,NA,NA,NA,NA
"GLP003","LB","107001369",NA,556,NA,NA,NA,"MCV","Ery. Mean Corpuscular Volume","HEMATOLOGY",NA,"53.5","fL",NA,NA,"53.5",53.5,"fL",NA,NA,NA,NA,NA,NA,NA,"WHOLE BLOOD",NA,NA,NA,NA,NA,NA,NA,NA,NA,NA,NA,NA,NA,NA,NA,30,"2007-07-11T09:00:00",NA,30,NA,NA,NA,NA,NA,NA
"GLP003","LB","107001369",NA,557,NA,NA,NA,"MCH","Ery. Mean Corpuscular Hemoglobin","HEMATOLOGY",NA,"18.5","pg",NA,NA,"18.5",18.5,"pg",NA,NA,NA,NA,NA,NA,NA,"WHOLE BLOOD",NA,NA,NA,NA,NA,NA,NA,NA,NA,NA,NA,NA,NA,NA,NA,30,"2007-07-11T09:00:00",NA,30,NA,NA,NA,NA,NA,NA
"GLP003","LB","107001369",NA,558,NA,NA,NA,"MCHC","Ery. Mean Corpuscular HGB Concentration","HEMATOLOGY",NA,"34.6","g/dL",NA,NA,"34.6",34.6,"g/dL",NA,NA,NA,NA,NA,NA,NA,"WHOLE BLOOD",NA,NA,NA,NA,NA,NA,NA,NA,NA,NA,NA,NA,NA,NA,NA,30,"2007-07-11T09:00:00",NA,30,NA,NA,NA,NA,NA,NA
"GLP003","LB","107001369",NA,559,NA,NA,NA,"RDW","Erythrocytes Distribution Width","HEMATOLOGY",NA,"12.2","%",NA,NA,"12.2",12.2,"%",NA,NA,NA,NA,NA,NA,NA,"WHOLE BLOOD",NA,NA,NA,NA,NA,NA,NA,NA,NA,NA,NA,NA,NA,NA,NA,30,"2007-07-11T09:00:00",NA,30,NA,NA,NA,NA,NA,NA
"GLP003","LB","107001369",NA,560,NA,NA,NA,"PLAT","Platelets","HEMATOLOGY",NA,"1240","10^9/L",NA,NA,"1240",1240,"10^9/L",NA,NA,NA,NA,NA,NA,NA,"WHOLE BLOOD",NA,NA,NA,NA,NA,NA,NA,NA,NA,NA,NA,NA,NA,NA,NA,30,"2007-07-11T09:00:00",NA,30,NA,NA,NA,NA,NA,NA
"GLP003","LB","107001369",NA,561,NA,NA,NA,"RETIRBC","Reticulocytes/Erythrocytes","HEMATOLOGY",NA,"2.4","%",NA,NA,"2.4",2.4,"%",NA,NA,NA,NA,NA,NA,NA,"WHOLE BLOOD",NA,NA,NA,NA,NA,NA,NA,NA,NA,NA,NA,NA,NA,NA,NA,30,"2007-07-11T09:00:00",NA,30,NA,NA,NA,NA,NA,NA
"GLP003","LB","107001369",NA,562,NA,NA,NA,"RETI","Reticulocytes","HEMATOLOGY",NA,"0.215","10^12/L",NA,NA,"0.215",0.215,"10^12/L",NA,NA,NA,NA,NA,NA,NA,"WHOLE BLOOD",NA,NA,NA,NA,NA,NA,NA,NA,NA,NA,NA,NA,NA,NA,NA,30,"2007-07-11T09:00:00",NA,30,NA,NA,NA,NA,NA,NA
"GLP003","LB","107001369",NA,563,NA,NA,NA,"NEUT","Neutrophils","HEMATOLOGY",NA,"1.52","10^9/L",NA,NA,"1.52",1.52,"10^9/L",NA,NA,NA,NA,NA,NA,NA,"WHOLE BLOOD",NA,NA,NA,NA,NA,NA,NA,NA,NA,NA,NA,NA,NA,NA,NA,30,"2007-07-11T09:00:00",NA,30,NA,NA,NA,NA,NA,NA
"GLP003","LB","107001369",NA,564,NA,NA,NA,"LYM","Lymphocytes","HEMATOLOGY",NA,"11.57","10^9/L",NA,NA,"11.57",11.57,"10^9/L",NA,NA,NA,NA,NA,NA,NA,"WHOLE BLOOD",NA,NA,NA,NA,NA,NA,NA,NA,NA,NA,NA,NA,NA,NA,NA,30,"2007-07-11T09:00:00",NA,30,NA,NA,NA,NA,NA,NA
"GLP003","LB","107001369",NA,565,NA,NA,NA,"MONO","Monocytes","HEMATOLOGY",NA,"0.44","10^9/L",NA,NA,"0.44",0.44,"10^9/L",NA,NA,NA,NA,NA,NA,NA,"WHOLE BLOOD",NA,NA,NA,NA,NA,NA,NA,NA,NA,NA,NA,NA,NA,NA,NA,30,"2007-07-11T09:00:00",NA,30,NA,NA,NA,NA,NA,NA
"GLP003","LB","107001369",NA,566,NA,NA,NA,"EOS","Eosinophils","HEMATOLOGY",NA,"0.01","10^9/L",NA,NA,"0.01",0.01,"10^9/L",NA,NA,NA,NA,NA,NA,NA,"WHOLE BLOOD",NA,NA,NA,NA,NA,NA,NA,NA,NA,NA,NA,NA,NA,NA,NA,30,"2007-07-11T09:00:00",NA,30,NA,NA,NA,NA,NA,NA
"GLP003","LB","107001369",NA,567,NA,NA,NA,"BASO","Basophils","HEMATOLOGY",NA,"0.17","10^9/L",NA,NA,"0.17",0.17,"10^9/L",NA,NA,NA,NA,NA,NA,NA,"WHOLE BLOOD",NA,NA,NA,NA,NA,NA,NA,NA,NA,NA,NA,NA,NA,NA,NA,30,"2007-07-11T09:00:00",NA,30,NA,NA,NA,NA,NA,NA
"GLP003","LB","107001369",NA,568,NA,NA,NA,"LGUNSCE","Large Unstained Cells","HEMATOLOGY",NA,"0.12","10^9/L",NA,NA,"0.12",0.12,"10^9/L",NA,NA,NA,NA,NA,NA,NA,"WHOLE BLOOD",NA,NA,NA,NA,NA,NA,NA,NA,NA,NA,NA,NA,NA,NA,NA,30,"2007-07-11T09:00:00",NA,30,NA,NA,NA,NA,NA,NA
"GLP003","LB","107001369",NA,569,NA,NA,NA,"ALT","Alanine Aminotransferase","SERUM CHEMISTRY",NA,"35","U/L",NA,NA,"35",35,"U/L",NA,NA,NA,NA,NA,NA,NA,"SERUM",NA,NA,NA,NA,NA,NA,NA,NA,NA,NA,NA,NA,NA,NA,NA,30,"2007-07-11T08:20:00",NA,30,NA,NA,NA,NA,NA,NA
"GLP003","LB","107001369",NA,570,NA,NA,NA,"ALB","Albumin","SERUM CHEMISTRY",NA,"3.7","g/dL",NA,NA,"3.7",3.7,"g/dL",NA,NA,NA,NA,NA,NA,NA,"SERUM",NA,NA,NA,NA,NA,NA,NA,NA,NA,NA,NA,NA,NA,NA,NA,30,"2007-07-11T08:20:00",NA,30,NA,NA,NA,NA,NA,NA
"GLP003","LB","107001369",NA,571,NA,NA,NA,"ALBGLOB","Albumin/Globulin","SERUM CHEMISTRY",NA,"1.2","RATIO",NA,NA,"1.2",1.2,"RATIO",NA,NA,NA,NA,NA,NA,NA,"SERUM",NA,NA,NA,NA,NA,NA,NA,NA,NA,NA,NA,NA,NA,NA,NA,30,"2007-07-11T08:20:00",NA,30,NA,NA,NA,NA,NA,NA
"GLP003","LB","107001369",NA,572,NA,NA,NA,"ALP","Alkaline Phosphatase","SERUM CHEMISTRY",NA,"126","U/L",NA,NA,"126",126,"U/L",NA,NA,NA,NA,NA,NA,NA,"SERUM",NA,NA,NA,NA,NA,NA,NA,NA,NA,NA,NA,NA,NA,NA,NA,30,"2007-07-11T08:20:00",NA,30,NA,NA,NA,NA,NA,NA
"GLP003","LB","107001369",NA,573,NA,NA,NA,"AST","Aspartate Aminotransferase","SERUM CHEMISTRY",NA,"69","U/L",NA,NA,"69",69,"U/L",NA,NA,NA,NA,NA,NA,NA,"SERUM",NA,NA,NA,NA,NA,NA,NA,NA,NA,NA,NA,NA,NA,NA,NA,30,"2007-07-11T08:20:00",NA,30,NA,NA,NA,NA,NA,NA
"GLP003","LB","107001369",NA,574,NA,NA,NA,"BUN","Blood Urea Nitrogen","SERUM CHEMISTRY",NA,"15","mg/dL",NA,NA,"15",15,"mg/dL",NA,NA,NA,NA,NA,NA,NA,"SERUM",NA,NA,NA,NA,NA,NA,NA,NA,NA,NA,NA,NA,NA,NA,NA,30,"2007-07-11T08:20:00",NA,30,NA,NA,NA,NA,NA,NA
"GLP003","LB","107001369",NA,575,NA,NA,NA,"CA","Calcium","SERUM CHEMISTRY",NA,"12.8","mg/dL",NA,NA,"12.8",12.8,"mg/dL",NA,NA,NA,NA,NA,NA,NA,"SERUM",NA,NA,NA,NA,NA,NA,NA,NA,NA,NA,NA,NA,NA,NA,NA,30,"2007-07-11T08:20:00",NA,30,NA,NA,NA,NA,NA,NA
"GLP003","LB","107001369",NA,576,NA,NA,NA,"CL","Chloride","SERUM CHEMISTRY",NA,"101","mEq/L",NA,NA,"101",101,"mEq/L",NA,NA,NA,NA,NA,NA,NA,"SERUM",NA,NA,NA,NA,NA,NA,NA,NA,NA,NA,NA,NA,NA,NA,NA,30,"2007-07-11T08:20:00",NA,30,NA,NA,NA,NA,NA,NA
"GLP003","LB","107001369",NA,577,NA,NA,NA,"CHOL","Cholesterol","SERUM CHEMISTRY",NA,"79","mg/dL",NA,NA,"79",79,"mg/dL",NA,NA,NA,NA,NA,NA,NA,"SERUM",NA,NA,NA,NA,NA,NA,NA,NA,NA,NA,NA,NA,NA,NA,NA,30,"2007-07-11T08:20:00",NA,30,NA,NA,NA,NA,NA,NA
"GLP003","LB","107001369",NA,578,NA,NA,NA,"CREAT","Creatinine","SERUM CHEMISTRY",NA,"0.41","mg/dL",NA,NA,"0.41",0.41,"mg/dL",NA,NA,NA,NA,NA,NA,NA,"SERUM",NA,NA,NA,NA,NA,NA,NA,NA,NA,NA,NA,NA,NA,NA,NA,30,"2007-07-11T08:20:00",NA,30,NA,NA,NA,NA,NA,NA
"GLP003","LB","107001369",NA,579,NA,NA,NA,"GLOBUL","Globulin","SERUM CHEMISTRY",NA,"3.1","g/dL",NA,NA,"3.1",3.1,"g/dL",NA,NA,NA,NA,NA,NA,NA,"SERUM",NA,NA,NA,NA,NA,NA,NA,NA,NA,NA,NA,NA,NA,NA,NA,30,"2007-07-11T08:20:00",NA,30,NA,NA,NA,NA,NA,NA
"GLP003","LB","107001369",NA,580,NA,NA,NA,"GLUC","Glucose","SERUM CHEMISTRY",NA,"114","mg/dL",NA,NA,"114",114,"mg/dL",NA,NA,NA,NA,NA,NA,NA,"SERUM",NA,NA,NA,NA,NA,NA,NA,NA,NA,NA,NA,NA,NA,NA,NA,30,"2007-07-11T08:20:00",NA,30,NA,NA,NA,NA,NA,NA
"GLP003","LB","107001369",NA,581,NA,NA,NA,"K","Potassium","SERUM CHEMISTRY",NA,"4.4","mEq/L",NA,NA,"4.4",4.4,"mEq/L",NA,NA,NA,NA,NA,NA,NA,"SERUM",NA,NA,NA,NA,NA,NA,NA,NA,NA,NA,NA,NA,NA,NA,NA,30,"2007-07-11T08:20:00",NA,30,NA,NA,NA,NA,NA,NA
"GLP003","LB","107001369",NA,582,NA,NA,NA,"PHOS","Phosphate","SERUM CHEMISTRY",NA,"7.0","mg/dL",NA,NA,"7.0",7,"mg/dL",NA,NA,NA,NA,NA,NA,NA,"SERUM",NA,NA,NA,NA,NA,NA,NA,NA,NA,NA,NA,NA,NA,NA,NA,30,"2007-07-11T08:20:00",NA,30,NA,NA,NA,NA,NA,NA
"GLP003","LB","107001369",NA,583,NA,NA,NA,"SODIUM","Sodium","SERUM CHEMISTRY",NA,"145","mEq/L",NA,NA,"145",145,"mEq/L",NA,NA,NA,NA,NA,NA,NA,"SERUM",NA,NA,NA,NA,NA,NA,NA,NA,NA,NA,NA,NA,NA,NA,NA,30,"2007-07-11T08:20:00",NA,30,NA,NA,NA,NA,NA,NA
"GLP003","LB","107001369",NA,584,NA,NA,NA,"BILI","Bilirubin","SERUM CHEMISTRY",NA,"0.11","mg/dL",NA,NA,"0.11",0.11,"mg/dL",NA,NA,NA,NA,NA,NA,NA,"SERUM",NA,NA,NA,NA,NA,NA,NA,NA,NA,NA,NA,NA,NA,NA,NA,30,"2007-07-11T08:20:00",NA,30,NA,NA,NA,NA,NA,NA
"GLP003","LB","107001369",NA,585,NA,NA,NA,"PROT","Protein","SERUM CHEMISTRY",NA,"6.8","g/dL",NA,NA,"6.8",6.8,"g/dL",NA,NA,NA,NA,NA,NA,NA,"SERUM",NA,NA,NA,NA,NA,NA,NA,NA,NA,NA,NA,NA,NA,NA,NA,30,"2007-07-11T08:20:00",NA,30,NA,NA,NA,NA,NA,NA
"GLP003","LB","107001369",NA,586,NA,NA,NA,"TRIG","Triglycerides","SERUM CHEMISTRY",NA,"31","mg/dL",NA,NA,"31",31,"mg/dL",NA,NA,NA,NA,NA,NA,NA,"SERUM",NA,NA,NA,NA,NA,NA,NA,NA,NA,NA,NA,NA,NA,NA,NA,30,"2007-07-11T08:20:00",NA,30,NA,NA,NA,NA,NA,NA
"GLP003","LB","107001369",NA,587,NA,NA,NA,"APTT","Activated Partial Thromboplastin Time","COAGULATION",NA,"13.2","sec",NA,NA,"13.2",13.2,"sec",NA,NA,NA,NA,NA,NA,NA,"PLASMA",NA,NA,NA,NA,NA,NA,NA,NA,NA,NA,NA,NA,NA,NA,NA,30,"2007-07-11T09:00:00",NA,30,NA,NA,NA,NA,NA,NA
"GLP003","LB","107001369",NA,588,NA,NA,NA,"PT","Prothrombin Time","COAGULATION",NA,"16.6","sec",NA,NA,"16.6",16.6,"sec",NA,NA,NA,NA,NA,NA,NA,"PLASMA",NA,NA,NA,NA,NA,NA,NA,NA,NA,NA,NA,NA,NA,NA,NA,30,"2007-07-11T09:00:00",NA,30,NA,NA,NA,NA,NA,NA
"GLP003","LB","107001369",NA,589,NA,NA,NA,"FIBRINO","Fibrinogen","COAGULATION",NA,"273","mg/dL",NA,NA,"273",273,"mg/dL",NA,NA,NA,NA,NA,NA,NA,"PLASMA",NA,NA,NA,NA,NA,NA,NA,NA,NA,NA,NA,NA,NA,NA,NA,30,"2007-07-11T09:00:00",NA,30,NA,NA,NA,NA,NA,NA
"GLP003","LB","107001369",NA,590,NA,NA,NA,"CLARITY","Clarity","URINALYSIS",NA,"CLOUDY",NA,NA,NA,"CLOUDY",NA,NA,NA,NA,NA,NA,NA,NA,NA,"URINE",NA,NA,NA,NA,NA,NA,NA,NA,NA,NA,NA,NA,NA,NA,NA,30,"2007-07-11T07:28:00",NA,30,NA,NA,NA,NA,NA,NA
"GLP003","LB","107001369",NA,591,NA,NA,NA,"COLOR","Color","URINALYSIS",NA,"YELLOW",NA,NA,NA,"YELLOW",NA,NA,NA,NA,NA,NA,NA,NA,NA,"URINE",NA,NA,NA,NA,NA,NA,NA,NA,NA,NA,NA,NA,NA,NA,NA,30,"2007-07-11T07:28:00",NA,30,NA,NA,NA,NA,NA,NA
"GLP003","LB","107001369",NA,592,NA,NA,NA,"BILI","Bilirubin","URINALYSIS",NA,"NEGATIVE",NA,NA,NA,"NEGATIVE",NA,NA,NA,NA,NA,NA,NA,NA,NA,"URINE",NA,NA,NA,NA,NA,NA,NA,"Atlas",NA,NA,NA,NA,NA,NA,NA,30,"2007-07-11T07:28:00",NA,30,NA,NA,NA,NA,NA,NA
"GLP003","LB","107001369",NA,593,NA,NA,NA,"GLUC","Glucose","URINALYSIS",NA,"NEGATIVE",NA,NA,NA,"NEGATIVE",NA,NA,NA,NA,NA,NA,NA,NA,NA,"URINE",NA,NA,NA,NA,NA,NA,NA,"Atlas, qualitative",NA,NA,NA,NA,NA,NA,NA,30,"2007-07-11T07:28:00",NA,30,NA,NA,NA,NA,NA,NA
"GLP003","LB","107001369",NA,594,NA,NA,NA,"OCCBLD","Occult Blood","URINALYSIS",NA,"NEGATIVE",NA,NA,NA,"NEGATIVE",NA,NA,NA,NA,NA,NA,NA,NA,NA,"URINE",NA,NA,NA,NA,NA,NA,NA,NA,NA,NA,NA,NA,NA,NA,NA,30,"2007-07-11T07:28:00",NA,30,NA,NA,NA,NA,NA,NA
"GLP003","LB","107001369",NA,595,NA,NA,NA,"KETONES","Ketones","URINALYSIS",NA,"TRACE",NA,NA,NA,"TRACE",NA,NA,NA,NA,NA,NA,NA,NA,NA,"URINE",NA,NA,NA,NA,NA,NA,NA,NA,NA,NA,NA,NA,NA,NA,NA,30,"2007-07-11T07:28:00",NA,30,NA,NA,NA,NA,NA,NA
"GLP003","LB","107001369",NA,596,NA,NA,NA,"PH","pH","URINALYSIS",NA,"6.5","pH",NA,NA,"6.5",6.5,"pH",NA,NA,NA,NA,NA,NA,NA,"URINE",NA,NA,NA,NA,NA,NA,NA,NA,NA,NA,NA,NA,NA,NA,NA,30,"2007-07-11T07:28:00",NA,30,NA,NA,NA,NA,NA,NA
"GLP003","LB","107001369",NA,597,NA,NA,NA,"SPGRAV","Specific Gravity","URINALYSIS",NA,"1.047",NA,NA,NA,"1.047",1.047,NA,NA,NA,NA,NA,NA,NA,NA,"URINE",NA,NA,NA,NA,NA,NA,NA,NA,NA,NA,NA,NA,NA,NA,NA,30,"2007-07-11T07:28:00",NA,30,NA,NA,NA,NA,NA,NA
"GLP003","LB","107001369",NA,598,NA,NA,NA,"UROBIL","Urobilinogen","URINALYSIS",NA,"0.2","mg/dL",NA,NA,"0.2",0.2,"mg/dL",NA,NA,NA,NA,NA,NA,NA,"URINE",NA,NA,NA,NA,NA,NA,NA,NA,NA,NA,NA,NA,NA,NA,NA,30,"2007-07-11T07:28:00",NA,30,NA,NA,NA,NA,NA,NA
"GLP003","LB","107001369",NA,599,NA,NA,NA,"VOLUME","Volume","URINALYSIS",NA,"8","mL",NA,NA,"8",8,"mL",NA,NA,NA,NA,NA,NA,NA,"URINE",NA,NA,NA,NA,NA,NA,NA,NA,NA,NA,NA,NA,NA,NA,NA,30,"2007-07-11T08:20:00",NA,30,NA,NA,NA,NA,NA,NA
"GLP003","LB","107001369",NA,600,NA,NA,NA,"ANISO","Anisocytes","HEMATOLOGY",NA,"-",NA,NA,NA,"-",NA,NA,NA,NA,NA,NA,NA,NA,NA,"WHOLE BLOOD",NA,NA,NA,NA,NA,NA,NA,NA,NA,NA,NA,NA,NA,NA,NA,30,"2007-07-11T10:00:00",NA,30,NA,NA,NA,NA,NA,NA
"GLP003","LB","107001369",NA,601,NA,NA,NA,"RBCINCL","RBC Inclusions","HEMATOLOGY",NA,"-",NA,NA,NA,"-",NA,NA,NA,NA,NA,NA,NA,NA,NA,"WHOLE BLOOD",NA,NA,NA,NA,NA,NA,NA,NA,NA,NA,NA,NA,NA,NA,NA,30,"2007-07-11T10:00:00",NA,30,NA,NA,NA,NA,NA,NA
"GLP003","LB","107001369",NA,602,NA,NA,NA,"PLATM","Platelet Morphology","HEMATOLOGY",NA,"-",NA,NA,NA,"-",NA,NA,NA,NA,NA,NA,NA,NA,NA,"WHOLE BLOOD",NA,NA,NA,NA,NA,NA,NA,NA,NA,NA,NA,NA,NA,NA,NA,30,"2007-07-11T10:00:00",NA,30,NA,NA,NA,NA,NA,NA
"GLP003","LB","107001369",NA,603,NA,NA,NA,"POIKILO","Poikilocytes","HEMATOLOGY",NA,"3+",NA,NA,NA,"3+",NA,NA,NA,NA,NA,NA,NA,NA,NA,"WHOLE BLOOD",NA,NA,NA,NA,NA,NA,NA,NA,NA,NA,NA,NA,NA,NA,NA,30,"2007-07-11T10:00:00",NA,30,NA,NA,NA,NA,NA,NA
"GLP003","LB","107001369",NA,604,NA,NA,NA,"POLYCHR","Polychromasia","HEMATOLOGY",NA,"-",NA,NA,NA,"-",NA,NA,NA,NA,NA,NA,NA,NA,NA,"WHOLE BLOOD",NA,NA,NA,NA,NA,NA,NA,NA,NA,NA,NA,NA,NA,NA,NA,30,"2007-07-11T10:00:00",NA,30,NA,NA,NA,NA,NA,NA
"GLP003","LB","107001369",NA,605,NA,NA,NA,"WBCMORPH","Leukocyte Cell Morphology","HEMATOLOGY",NA,"-",NA,NA,NA,"-",NA,NA,NA,NA,NA,NA,NA,NA,NA,"WHOLE BLOOD",NA,NA,NA,NA,NA,NA,NA,NA,NA,NA,NA,NA,NA,NA,NA,30,"2007-07-11T10:00:00",NA,30,NA,NA,NA,NA,NA,NA
"GLP003","LB","107001369",NA,606,NA,NA,NA,"CYAMORPH","Amorphous Crystals","URINALYSIS",NA,"1+",NA,NA,NA,"1+",NA,NA,NA,NA,NA,NA,NA,NA,NA,"URINE",NA,NA,NA,NA,NA,NA,NA,NA,NA,NA,NA,NA,NA,NA,NA,30,"2007-07-11T07:28:00",NA,30,NA,NA,NA,NA,NA,NA
"GLP003","LB","107001369",NA,607,NA,NA,NA,"BACT","Bacteria","URINALYSIS",NA,"2+",NA,NA,NA,"2+",NA,NA,NA,NA,NA,NA,NA,NA,NA,"URINE",NA,NA,NA,NA,NA,NA,NA,NA,NA,NA,NA,NA,NA,NA,NA,30,"2007-07-11T07:28:00",NA,30,NA,NA,NA,NA,NA,NA
"GLP003","LB","107001369",NA,608,NA,NA,NA,"CYCACAR","Calcium Carbonate Crystals","URINALYSIS",NA,"-",NA,NA,NA,"-",NA,NA,NA,NA,NA,NA,NA,NA,NA,"URINE",NA,NA,NA,NA,NA,NA,NA,NA,NA,NA,NA,NA,NA,NA,NA,30,"2007-07-11T07:28:00",NA,30,NA,NA,NA,NA,NA,NA
"GLP003","LB","107001369",NA,609,NA,NA,NA,"CYCAOXA","Calcium Oxalate Crystals","URINALYSIS",NA,"-",NA,NA,NA,"-",NA,NA,NA,NA,NA,NA,NA,NA,NA,"URINE",NA,NA,NA,NA,NA,NA,NA,NA,NA,NA,NA,NA,NA,NA,NA,30,"2007-07-11T07:28:00",NA,30,NA,NA,NA,NA,NA,NA
"GLP003","LB","107001369",NA,610,NA,NA,NA,"EPIC","Epithelial Cells","URINALYSIS",NA,"-",NA,NA,NA,"-",NA,NA,NA,NA,NA,NA,NA,NA,NA,"URINE",NA,NA,NA,NA,NA,NA,NA,NA,NA,NA,NA,NA,NA,NA,NA,30,"2007-07-11T07:28:00",NA,30,NA,NA,NA,NA,NA,NA
"GLP003","LB","107001369",NA,611,NA,NA,NA,"CASTS","Casts","URINALYSIS",NA,"-",NA,NA,NA,"-",NA,NA,NA,NA,NA,NA,NA,NA,NA,"URINE",NA,NA,NA,NA,NA,NA,NA,NA,NA,NA,NA,NA,NA,NA,NA,30,"2007-07-11T07:28:00",NA,30,NA,NA,NA,NA,NA,NA
"GLP003","LB","107001369",NA,612,NA,NA,NA,"MISC","Miscellaneous Cell Types","URINALYSIS",NA,"-",NA,NA,NA,"-",NA,NA,NA,NA,NA,NA,NA,NA,NA,"URINE",NA,NA,NA,NA,NA,NA,NA,NA,NA,NA,NA,NA,NA,NA,NA,30,"2007-07-11T07:28:00",NA,30,NA,NA,NA,NA,NA,NA
"GLP003","LB","107001369",NA,613,NA,NA,NA,"CYTRPHOS","Triple Phosphate Crystals","URINALYSIS",NA,"-",NA,NA,NA,"-",NA,NA,NA,NA,NA,NA,NA,NA,NA,"URINE",NA,NA,NA,NA,NA,NA,NA,NA,NA,NA,NA,NA,NA,NA,NA,30,"2007-07-11T07:28:00",NA,30,NA,NA,NA,NA,NA,NA
"GLP003","LB","107001369",NA,614,NA,NA,NA,"SPERM","Spermatozoa","URINALYSIS",NA,"1+",NA,NA,NA,"1+",NA,NA,NA,NA,NA,NA,NA,NA,NA,"URINE",NA,NA,NA,NA,NA,NA,NA,NA,NA,NA,NA,NA,NA,NA,NA,30,"2007-07-11T07:28:00",NA,30,NA,NA,NA,NA,NA,NA
"GLP003","LB","107001369",NA,615,NA,NA,NA,"WBC","Leukocytes","URINALYSIS",NA,"-",NA,NA,NA,"-",NA,NA,NA,NA,NA,NA,NA,NA,NA,"URINE",NA,NA,NA,NA,NA,NA,NA,NA,NA,NA,NA,NA,NA,NA,NA,30,"2007-07-11T07:28:00",NA,30,NA,NA,NA,NA,NA,NA
"GLP003","LB","107001369",NA,616,NA,NA,NA,"RBC","Erythrocytes","URINALYSIS",NA,"-",NA,NA,NA,"-",NA,NA,NA,NA,NA,NA,NA,NA,NA,"URINE",NA,NA,NA,NA,NA,NA,NA,NA,NA,NA,NA,NA,NA,NA,NA,30,"2007-07-11T07:28:00",NA,30,NA,NA,NA,NA,NA,NA
"GLP003","LB","107001369",NA,617,NA,NA,NA,"CRYOTHER","Other Crystals","URINALYSIS",NA,"-",NA,NA,NA,"-",NA,NA,NA,NA,NA,NA,NA,NA,NA,"URINE",NA,NA,NA,NA,NA,NA,NA,NA,NA,NA,NA,NA,NA,NA,NA,30,"2007-07-11T07:28:00",NA,30,NA,NA,NA,NA,NA,NA
"GLP003","LB","107001369",NA,618,NA,NA,NA,"PROT","Protein","URINALYSIS",NA,"134","mg/dL",NA,NA,"134",134,"mg/dL",NA,NA,NA,NA,NA,NA,NA,"URINE",NA,NA,NA,NA,NA,NA,NA,NA,NA,NA,NA,NA,NA,NA,NA,30,"2007-07-10T14:20:00",NA,29,NA,NA,NA,NA,NA,NA
"GLP003","LB","107001369",NA,619,NA,NA,NA,"BICARB","Bicarbonate","SERUM CHEMISTRY",NA,"23","mmol/L",NA,NA,"23",23,"mmol/L",NA,NA,NA,NA,NA,NA,NA,"SERUM",NA,NA,NA,NA,NA,NA,NA,NA,NA,NA,NA,NA,NA,NA,NA,30,"2007-07-11T08:20:00",NA,30,NA,NA,NA,NA,NA,NA
"GLP003","LB","107001369",NA,621,NA,NA,NA,"RBCMORPH","Erythrocyte Cell Morphology","HEMATOLOGY",NA,"-",NA,NA,NA,"-",NA,NA,NA,NA,NA,NA,NA,NA,NA,"WHOLE BLOOD",NA,NA,NA,NA,NA,NA,NA,NA,NA,NA,NA,NA,NA,NA,NA,30,"2007-07-11T10:00:00",NA,30,NA,NA,NA,NA,NA,NA
"GLP003","LB","107001375",NA,622,NA,NA,NA,"WBC","Leukocytes","HEMATOLOGY",NA,"12.16","10^9/L",NA,NA,"12.16",12.16,"10^9/L",NA,NA,NA,NA,NA,NA,NA,"WHOLE BLOOD",NA,NA,NA,NA,NA,NA,NA,NA,NA,NA,NA,NA,NA,NA,NA,30,"2007-07-11T09:00:00",NA,30,NA,NA,NA,NA,NA,NA
"GLP003","LB","107001375",NA,623,NA,NA,NA,"RBC","Erythrocytes","HEMATOLOGY",NA,"9.43","10^12/L",NA,NA,"9.43",9.43,"10^12/L",NA,NA,NA,NA,NA,NA,NA,"WHOLE BLOOD",NA,NA,NA,NA,NA,NA,NA,NA,NA,NA,NA,NA,NA,NA,NA,30,"2007-07-11T09:00:00",NA,30,NA,NA,NA,NA,NA,NA
"GLP003","LB","107001375",NA,624,NA,NA,NA,"HGB","Hemoglobin","HEMATOLOGY",NA,"17.4","g/dL",NA,NA,"17.4",17.4,"g/dL",NA,NA,NA,NA,NA,NA,NA,"WHOLE BLOOD",NA,NA,NA,NA,NA,NA,NA,NA,NA,NA,NA,NA,NA,NA,NA,30,"2007-07-11T09:00:00",NA,30,NA,NA,NA,NA,NA,NA
"GLP003","LB","107001375",NA,625,NA,NA,NA,"HCT","Hematocrit","HEMATOLOGY",NA,"50.6","%",NA,NA,"50.6",50.6,"%",NA,NA,NA,NA,NA,NA,NA,"WHOLE BLOOD",NA,NA,NA,NA,NA,NA,NA,NA,NA,NA,NA,NA,NA,NA,NA,30,"2007-07-11T09:00:00",NA,30,NA,NA,NA,NA,NA,NA
"GLP003","LB","107001375",NA,626,NA,NA,NA,"MCV","Ery. Mean Corpuscular Volume","HEMATOLOGY",NA,"53.7","fL",NA,NA,"53.7",53.7,"fL",NA,NA,NA,NA,NA,NA,NA,"WHOLE BLOOD",NA,NA,NA,NA,NA,NA,NA,NA,NA,NA,NA,NA,NA,NA,NA,30,"2007-07-11T09:00:00",NA,30,NA,NA,NA,NA,NA,NA
"GLP003","LB","107001375",NA,627,NA,NA,NA,"MCH","Ery. Mean Corpuscular Hemoglobin","HEMATOLOGY",NA,"18.4","pg",NA,NA,"18.4",18.4,"pg",NA,NA,NA,NA,NA,NA,NA,"WHOLE BLOOD",NA,NA,NA,NA,NA,NA,NA,NA,NA,NA,NA,NA,NA,NA,NA,30,"2007-07-11T09:00:00",NA,30,NA,NA,NA,NA,NA,NA
"GLP003","LB","107001375",NA,628,NA,NA,NA,"MCHC","Ery. Mean Corpuscular HGB Concentration","HEMATOLOGY",NA,"34.3","g/dL",NA,NA,"34.3",34.3,"g/dL",NA,NA,NA,NA,NA,NA,NA,"WHOLE BLOOD",NA,NA,NA,NA,NA,NA,NA,NA,NA,NA,NA,NA,NA,NA,NA,30,"2007-07-11T09:00:00",NA,30,NA,NA,NA,NA,NA,NA
"GLP003","LB","107001375",NA,629,NA,NA,NA,"RDW","Erythrocytes Distribution Width","HEMATOLOGY",NA,"12.3","%",NA,NA,"12.3",12.3,"%",NA,NA,NA,NA,NA,NA,NA,"WHOLE BLOOD",NA,NA,NA,NA,NA,NA,NA,NA,NA,NA,NA,NA,NA,NA,NA,30,"2007-07-11T09:00:00",NA,30,NA,NA,NA,NA,NA,NA
"GLP003","LB","107001375",NA,630,NA,NA,NA,"PLAT","Platelets","HEMATOLOGY",NA,"969","10^9/L",NA,NA,"969",969,"10^9/L",NA,NA,NA,NA,NA,NA,NA,"WHOLE BLOOD",NA,NA,NA,NA,NA,NA,NA,NA,NA,NA,NA,NA,NA,NA,NA,30,"2007-07-11T09:00:00",NA,30,NA,NA,NA,NA,NA,NA
"GLP003","LB","107001375",NA,631,NA,NA,NA,"RETIRBC","Reticulocytes/Erythrocytes","HEMATOLOGY",NA,"2.2","%",NA,NA,"2.2",2.2,"%",NA,NA,NA,NA,NA,NA,NA,"WHOLE BLOOD",NA,NA,NA,NA,NA,NA,NA,NA,NA,NA,NA,NA,NA,NA,NA,30,"2007-07-11T09:00:00",NA,30,NA,NA,NA,NA,NA,NA
"GLP003","LB","107001375",NA,632,NA,NA,NA,"RETI","Reticulocytes","HEMATOLOGY",NA,"0.209","10^12/L",NA,NA,"0.209",0.209,"10^12/L",NA,NA,NA,NA,NA,NA,NA,"WHOLE BLOOD",NA,NA,NA,NA,NA,NA,NA,NA,NA,NA,NA,NA,NA,NA,NA,30,"2007-07-11T09:00:00",NA,30,NA,NA,NA,NA,NA,NA
"GLP003","LB","107001375",NA,633,NA,NA,NA,"NEUT","Neutrophils","HEMATOLOGY",NA,"2.91","10^9/L",NA,NA,"2.91",2.91,"10^9/L",NA,NA,NA,NA,NA,NA,NA,"WHOLE BLOOD",NA,NA,NA,NA,NA,NA,NA,NA,NA,NA,NA,NA,NA,NA,NA,30,"2007-07-11T09:00:00",NA,30,NA,NA,NA,NA,NA,NA
"GLP003","LB","107001375",NA,634,NA,NA,NA,"LYM","Lymphocytes","HEMATOLOGY",NA,"8.72","10^9/L",NA,NA,"8.72",8.72,"10^9/L",NA,NA,NA,NA,NA,NA,NA,"WHOLE BLOOD",NA,NA,NA,NA,NA,NA,NA,NA,NA,NA,NA,NA,NA,NA,NA,30,"2007-07-11T09:00:00",NA,30,NA,NA,NA,NA,NA,NA
"GLP003","LB","107001375",NA,635,NA,NA,NA,"MONO","Monocytes","HEMATOLOGY",NA,"0.36","10^9/L",NA,NA,"0.36",0.36,"10^9/L",NA,NA,NA,NA,NA,NA,NA,"WHOLE BLOOD",NA,NA,NA,NA,NA,NA,NA,NA,NA,NA,NA,NA,NA,NA,NA,30,"2007-07-11T09:00:00",NA,30,NA,NA,NA,NA,NA,NA
"GLP003","LB","107001375",NA,636,NA,NA,NA,"EOS","Eosinophils","HEMATOLOGY",NA,"0.05","10^9/L",NA,NA,"0.05",0.05,"10^9/L",NA,NA,NA,NA,NA,NA,NA,"WHOLE BLOOD",NA,NA,NA,NA,NA,NA,NA,NA,NA,NA,NA,NA,NA,NA,NA,30,"2007-07-11T09:00:00",NA,30,NA,NA,NA,NA,NA,NA
"GLP003","LB","107001375",NA,637,NA,NA,NA,"BASO","Basophils","HEMATOLOGY",NA,"0.10","10^9/L",NA,NA,"0.10",0.1,"10^9/L",NA,NA,NA,NA,NA,NA,NA,"WHOLE BLOOD",NA,NA,NA,NA,NA,NA,NA,NA,NA,NA,NA,NA,NA,NA,NA,30,"2007-07-11T09:00:00",NA,30,NA,NA,NA,NA,NA,NA
"GLP003","LB","107001375",NA,638,NA,NA,NA,"LGUNSCE","Large Unstained Cells","HEMATOLOGY",NA,"0.02","10^9/L",NA,NA,"0.02",0.02,"10^9/L",NA,NA,NA,NA,NA,NA,NA,"WHOLE BLOOD",NA,NA,NA,NA,NA,NA,NA,NA,NA,NA,NA,NA,NA,NA,NA,30,"2007-07-11T09:00:00",NA,30,NA,NA,NA,NA,NA,NA
"GLP003","LB","107001375",NA,639,NA,NA,NA,"ALT","Alanine Aminotransferase","SERUM CHEMISTRY",NA,"88","U/L",NA,NA,"88",88,"U/L",NA,NA,NA,NA,NA,NA,NA,"SERUM",NA,NA,NA,NA,NA,NA,NA,NA,NA,NA,NA,NA,NA,NA,NA,30,"2007-07-11T08:20:00",NA,30,NA,NA,NA,NA,NA,NA
"GLP003","LB","107001375",NA,640,NA,NA,NA,"ALB","Albumin","SERUM CHEMISTRY",NA,"3.6","g/dL",NA,NA,"3.6",3.6,"g/dL",NA,NA,NA,NA,NA,NA,NA,"SERUM",NA,NA,NA,NA,NA,NA,NA,NA,NA,NA,NA,NA,NA,NA,NA,30,"2007-07-11T08:20:00",NA,30,NA,NA,NA,NA,NA,NA
"GLP003","LB","107001375",NA,641,NA,NA,NA,"ALBGLOB","Albumin/Globulin","SERUM CHEMISTRY",NA,"1.1","RATIO",NA,NA,"1.1",1.1,"RATIO",NA,NA,NA,NA,NA,NA,NA,"SERUM",NA,NA,NA,NA,NA,NA,NA,NA,NA,NA,NA,NA,NA,NA,NA,30,"2007-07-11T08:20:00",NA,30,NA,NA,NA,NA,NA,NA
"GLP003","LB","107001375",NA,642,NA,NA,NA,"ALP","Alkaline Phosphatase","SERUM CHEMISTRY",NA,"118","U/L",NA,NA,"118",118,"U/L",NA,NA,NA,NA,NA,NA,NA,"SERUM",NA,NA,NA,NA,NA,NA,NA,NA,NA,NA,NA,NA,NA,NA,NA,30,"2007-07-11T08:20:00",NA,30,NA,NA,NA,NA,NA,NA
"GLP003","LB","107001375",NA,643,NA,NA,NA,"AST","Aspartate Aminotransferase","SERUM CHEMISTRY",NA,"150","U/L",NA,NA,"150",150,"U/L",NA,NA,NA,NA,NA,NA,NA,"SERUM",NA,NA,NA,NA,NA,NA,NA,NA,NA,NA,NA,NA,NA,NA,NA,30,"2007-07-11T08:20:00",NA,30,NA,NA,NA,NA,NA,NA
"GLP003","LB","107001375",NA,644,NA,NA,NA,"BUN","Blood Urea Nitrogen","SERUM CHEMISTRY",NA,"15","mg/dL",NA,NA,"15",15,"mg/dL",NA,NA,NA,NA,NA,NA,NA,"SERUM",NA,NA,NA,NA,NA,NA,NA,NA,NA,NA,NA,NA,NA,NA,NA,30,"2007-07-11T08:20:00",NA,30,NA,NA,NA,NA,NA,NA
"GLP003","LB","107001375",NA,645,NA,NA,NA,"CA","Calcium","SERUM CHEMISTRY",NA,"12.7","mg/dL",NA,NA,"12.7",12.7,"mg/dL",NA,NA,NA,NA,NA,NA,NA,"SERUM",NA,NA,NA,NA,NA,NA,NA,NA,NA,NA,NA,NA,NA,NA,NA,30,"2007-07-11T08:20:00",NA,30,NA,NA,NA,NA,NA,NA
"GLP003","LB","107001375",NA,646,NA,NA,NA,"CL","Chloride","SERUM CHEMISTRY",NA,"102","mEq/L",NA,NA,"102",102,"mEq/L",NA,NA,NA,NA,NA,NA,NA,"SERUM",NA,NA,NA,NA,NA,NA,NA,NA,NA,NA,NA,NA,NA,NA,NA,30,"2007-07-11T08:20:00",NA,30,NA,NA,NA,NA,NA,NA
"GLP003","LB","107001375",NA,647,NA,NA,NA,"CHOL","Cholesterol","SERUM CHEMISTRY",NA,"61","mg/dL",NA,NA,"61",61,"mg/dL",NA,NA,NA,NA,NA,NA,NA,"SERUM",NA,NA,NA,NA,NA,NA,NA,NA,NA,NA,NA,NA,NA,NA,NA,30,"2007-07-11T08:20:00",NA,30,NA,NA,NA,NA,NA,NA
"GLP003","LB","107001375",NA,648,NA,NA,NA,"CREAT","Creatinine","SERUM CHEMISTRY",NA,"0.43","mg/dL",NA,NA,"0.43",0.43,"mg/dL",NA,NA,NA,NA,NA,NA,NA,"SERUM",NA,NA,NA,NA,NA,NA,NA,NA,NA,NA,NA,NA,NA,NA,NA,30,"2007-07-11T08:20:00",NA,30,NA,NA,NA,NA,NA,NA
"GLP003","LB","107001375",NA,649,NA,NA,NA,"GLOBUL","Globulin","SERUM CHEMISTRY",NA,"3.2","g/dL",NA,NA,"3.2",3.2,"g/dL",NA,NA,NA,NA,NA,NA,NA,"SERUM",NA,NA,NA,NA,NA,NA,NA,NA,NA,NA,NA,NA,NA,NA,NA,30,"2007-07-11T08:20:00",NA,30,NA,NA,NA,NA,NA,NA
"GLP003","LB","107001375",NA,650,NA,NA,NA,"GLUC","Glucose","SERUM CHEMISTRY",NA,"105","mg/dL",NA,NA,"105",105,"mg/dL",NA,NA,NA,NA,NA,NA,NA,"SERUM",NA,NA,NA,NA,NA,NA,NA,NA,NA,NA,NA,NA,NA,NA,NA,30,"2007-07-11T08:20:00",NA,30,NA,NA,NA,NA,NA,NA
"GLP003","LB","107001375",NA,651,NA,NA,NA,"K","Potassium","SERUM CHEMISTRY",NA,"5.2","mEq/L",NA,NA,"5.2",5.2,"mEq/L",NA,NA,NA,NA,NA,NA,NA,"SERUM",NA,NA,NA,NA,NA,NA,NA,NA,NA,NA,NA,NA,NA,NA,NA,30,"2007-07-11T08:20:00",NA,30,NA,NA,NA,NA,NA,NA
"GLP003","LB","107001375",NA,652,NA,NA,NA,"PHOS","Phosphate","SERUM CHEMISTRY",NA,"7.8","mg/dL",NA,NA,"7.8",7.8,"mg/dL",NA,NA,NA,NA,NA,NA,NA,"SERUM",NA,NA,NA,NA,NA,NA,NA,NA,NA,NA,NA,NA,NA,NA,NA,30,"2007-07-11T08:20:00",NA,30,NA,NA,NA,NA,NA,NA
"GLP003","LB","107001375",NA,653,NA,NA,NA,"SODIUM","Sodium","SERUM CHEMISTRY",NA,"144","mEq/L",NA,NA,"144",144,"mEq/L",NA,NA,NA,NA,NA,NA,NA,"SERUM",NA,NA,NA,NA,NA,NA,NA,NA,NA,NA,NA,NA,NA,NA,NA,30,"2007-07-11T08:20:00",NA,30,NA,NA,NA,NA,NA,NA
"GLP003","LB","107001375",NA,654,NA,NA,NA,"BILI","Bilirubin","SERUM CHEMISTRY",NA,"0.12","mg/dL",NA,NA,"0.12",0.12,"mg/dL",NA,NA,NA,NA,NA,NA,NA,"SERUM",NA,NA,NA,NA,NA,NA,NA,NA,NA,NA,NA,NA,NA,NA,NA,30,"2007-07-11T08:20:00",NA,30,NA,NA,NA,NA,NA,NA
"GLP003","LB","107001375",NA,655,NA,NA,NA,"PROT","Protein","SERUM CHEMISTRY",NA,"6.8","g/dL",NA,NA,"6.8",6.8,"g/dL",NA,NA,NA,NA,NA,NA,NA,"SERUM",NA,NA,NA,NA,NA,NA,NA,NA,NA,NA,NA,NA,NA,NA,NA,30,"2007-07-11T08:20:00",NA,30,NA,NA,NA,NA,NA,NA
"GLP003","LB","107001375",NA,656,NA,NA,NA,"TRIG","Triglycerides","SERUM CHEMISTRY",NA,"41","mg/dL",NA,NA,"41",41,"mg/dL",NA,NA,NA,NA,NA,NA,NA,"SERUM",NA,NA,NA,NA,NA,NA,NA,NA,NA,NA,NA,NA,NA,NA,NA,30,"2007-07-11T08:20:00",NA,30,NA,NA,NA,NA,NA,NA
"GLP003","LB","107001375",NA,657,NA,NA,NA,"APTT","Activated Partial Thromboplastin Time","COAGULATION",NA,"16.4","sec",NA,NA,"16.4",16.4,"sec",NA,NA,NA,NA,NA,NA,NA,"PLASMA",NA,NA,NA,NA,NA,NA,NA,NA,NA,NA,NA,NA,NA,NA,NA,30,"2007-07-11T09:00:00",NA,30,NA,NA,NA,NA,NA,NA
"GLP003","LB","107001375",NA,658,NA,NA,NA,"PT","Prothrombin Time","COAGULATION",NA,"17.4","sec",NA,NA,"17.4",17.4,"sec",NA,NA,NA,NA,NA,NA,NA,"PLASMA",NA,NA,NA,NA,NA,NA,NA,NA,NA,NA,NA,NA,NA,NA,NA,30,"2007-07-11T09:00:00",NA,30,NA,NA,NA,NA,NA,NA
"GLP003","LB","107001375",NA,659,NA,NA,NA,"FIBRINO","Fibrinogen","COAGULATION",NA,"321","mg/dL",NA,NA,"321",321,"mg/dL",NA,NA,NA,NA,NA,NA,NA,"PLASMA",NA,NA,NA,NA,NA,NA,NA,NA,NA,NA,NA,NA,NA,NA,NA,30,"2007-07-11T09:00:00",NA,30,NA,NA,NA,NA,NA,NA
"GLP003","LB","107001375",NA,660,NA,NA,NA,"CLARITY","Clarity","URINALYSIS",NA,"CLOUDY",NA,NA,NA,"CLOUDY",NA,NA,NA,NA,NA,NA,NA,NA,NA,"URINE",NA,NA,NA,NA,NA,NA,NA,NA,NA,NA,NA,NA,NA,NA,NA,30,"2007-07-11T07:28:00",NA,30,NA,NA,NA,NA,NA,NA
"GLP003","LB","107001375",NA,661,NA,NA,NA,"COLOR","Color","URINALYSIS",NA,"YELLOW",NA,NA,NA,"YELLOW",NA,NA,NA,NA,NA,NA,NA,NA,NA,"URINE",NA,NA,NA,NA,NA,NA,NA,NA,NA,NA,NA,NA,NA,NA,NA,30,"2007-07-11T07:28:00",NA,30,NA,NA,NA,NA,NA,NA
"GLP003","LB","107001375",NA,662,NA,NA,NA,"BILI","Bilirubin","URINALYSIS",NA,"NEGATIVE",NA,NA,NA,"NEGATIVE",NA,NA,NA,NA,NA,NA,NA,NA,NA,"URINE",NA,NA,NA,NA,NA,NA,NA,"Atlas",NA,NA,NA,NA,NA,NA,NA,30,"2007-07-11T07:28:00",NA,30,NA,NA,NA,NA,NA,NA
"GLP003","LB","107001375",NA,663,NA,NA,NA,"GLUC","Glucose","URINALYSIS",NA,"NEGATIVE",NA,NA,NA,"NEGATIVE",NA,NA,NA,NA,NA,NA,NA,NA,NA,"URINE",NA,NA,NA,NA,NA,NA,NA,"Atlas, qualitative",NA,NA,NA,NA,NA,NA,NA,30,"2007-07-11T07:28:00",NA,30,NA,NA,NA,NA,NA,NA
"GLP003","LB","107001375",NA,664,NA,NA,NA,"OCCBLD","Occult Blood","URINALYSIS",NA,"NEGATIVE",NA,NA,NA,"NEGATIVE",NA,NA,NA,NA,NA,NA,NA,NA,NA,"URINE",NA,NA,NA,NA,NA,NA,NA,NA,NA,NA,NA,NA,NA,NA,NA,30,"2007-07-11T07:28:00",NA,30,NA,NA,NA,NA,NA,NA
"GLP003","LB","107001375",NA,665,NA,NA,NA,"KETONES","Ketones","URINALYSIS",NA,"TRACE",NA,NA,NA,"TRACE",NA,NA,NA,NA,NA,NA,NA,NA,NA,"URINE",NA,NA,NA,NA,NA,NA,NA,NA,NA,NA,NA,NA,NA,NA,NA,30,"2007-07-11T07:28:00",NA,30,NA,NA,NA,NA,NA,NA
"GLP003","LB","107001375",NA,666,NA,NA,NA,"PH","pH","URINALYSIS",NA,"6.5","pH",NA,NA,"6.5",6.5,"pH",NA,NA,NA,NA,NA,NA,NA,"URINE",NA,NA,NA,NA,NA,NA,NA,NA,NA,NA,NA,NA,NA,NA,NA,30,"2007-07-11T07:28:00",NA,30,NA,NA,NA,NA,NA,NA
"GLP003","LB","107001375",NA,667,NA,NA,NA,"SPGRAV","Specific Gravity","URINALYSIS",NA,"1.014",NA,NA,NA,"1.014",1.014,NA,NA,NA,NA,NA,NA,NA,NA,"URINE",NA,NA,NA,NA,NA,NA,NA,NA,NA,NA,NA,NA,NA,NA,NA,30,"2007-07-11T07:28:00",NA,30,NA,NA,NA,NA,NA,NA
"GLP003","LB","107001375",NA,668,NA,NA,NA,"UROBIL","Urobilinogen","URINALYSIS",NA,"0.2","mg/dL",NA,NA,"0.2",0.2,"mg/dL",NA,NA,NA,NA,NA,NA,NA,"URINE",NA,NA,NA,NA,NA,NA,NA,NA,NA,NA,NA,NA,NA,NA,NA,30,"2007-07-11T07:28:00",NA,30,NA,NA,NA,NA,NA,NA
"GLP003","LB","107001375",NA,669,NA,NA,NA,"VOLUME","Volume","URINALYSIS",NA,"31","mL",NA,NA,"31",31,"mL",NA,NA,NA,NA,NA,NA,NA,"URINE",NA,NA,NA,NA,NA,NA,NA,NA,NA,NA,NA,NA,NA,NA,NA,30,"2007-07-11T08:20:00",NA,30,NA,NA,NA,NA,NA,NA
"GLP003","LB","107001375",NA,670,NA,NA,NA,"ANISO","Anisocytes","HEMATOLOGY",NA,"-",NA,NA,NA,"-",NA,NA,NA,NA,NA,NA,NA,NA,NA,"WHOLE BLOOD",NA,NA,NA,NA,NA,NA,NA,NA,NA,NA,NA,NA,NA,NA,NA,30,"2007-07-11T10:00:00",NA,30,NA,NA,NA,NA,NA,NA
"GLP003","LB","107001375",NA,671,NA,NA,NA,"RBCINCL","RBC Inclusions","HEMATOLOGY",NA,"-",NA,NA,NA,"-",NA,NA,NA,NA,NA,NA,NA,NA,NA,"WHOLE BLOOD",NA,NA,NA,NA,NA,NA,NA,NA,NA,NA,NA,NA,NA,NA,NA,30,"2007-07-11T10:00:00",NA,30,NA,NA,NA,NA,NA,NA
"GLP003","LB","107001375",NA,672,NA,NA,NA,"PLATM","Platelet Morphology","HEMATOLOGY",NA,"-",NA,NA,NA,"-",NA,NA,NA,NA,NA,NA,NA,NA,NA,"WHOLE BLOOD",NA,NA,NA,NA,NA,NA,NA,NA,NA,NA,NA,NA,NA,NA,NA,30,"2007-07-11T10:00:00",NA,30,NA,NA,NA,NA,NA,NA
"GLP003","LB","107001375",NA,673,NA,NA,NA,"POIKILO","Poikilocytes","HEMATOLOGY",NA,"2+",NA,NA,NA,"2+",NA,NA,NA,NA,NA,NA,NA,NA,NA,"WHOLE BLOOD",NA,NA,NA,NA,NA,NA,NA,NA,NA,NA,NA,NA,NA,NA,NA,30,"2007-07-11T10:00:00",NA,30,NA,NA,NA,NA,NA,NA
"GLP003","LB","107001375",NA,674,NA,NA,NA,"POLYCHR","Polychromasia","HEMATOLOGY",NA,"-",NA,NA,NA,"-",NA,NA,NA,NA,NA,NA,NA,NA,NA,"WHOLE BLOOD",NA,NA,NA,NA,NA,NA,NA,NA,NA,NA,NA,NA,NA,NA,NA,30,"2007-07-11T10:00:00",NA,30,NA,NA,NA,NA,NA,NA
"GLP003","LB","107001375",NA,675,NA,NA,NA,"WBCMORPH","Leukocyte Cell Morphology","HEMATOLOGY",NA,"-",NA,NA,NA,"-",NA,NA,NA,NA,NA,NA,NA,NA,NA,"WHOLE BLOOD",NA,NA,NA,NA,NA,NA,NA,NA,NA,NA,NA,NA,NA,NA,NA,30,"2007-07-11T10:00:00",NA,30,NA,NA,NA,NA,NA,NA
"GLP003","LB","107001375",NA,676,NA,NA,NA,"CYAMORPH","Amorphous Crystals","URINALYSIS",NA,"-",NA,NA,NA,"-",NA,NA,NA,NA,NA,NA,NA,NA,NA,"URINE",NA,NA,NA,NA,NA,NA,NA,NA,NA,NA,NA,NA,NA,NA,NA,30,"2007-07-11T07:28:00",NA,30,NA,NA,NA,NA,NA,NA
"GLP003","LB","107001375",NA,677,NA,NA,NA,"BACT","Bacteria","URINALYSIS",NA,"3+",NA,NA,NA,"3+",NA,NA,NA,NA,NA,NA,NA,NA,NA,"URINE",NA,NA,NA,NA,NA,NA,NA,NA,NA,NA,NA,NA,NA,NA,NA,30,"2007-07-11T07:28:00",NA,30,NA,NA,NA,NA,NA,NA
"GLP003","LB","107001375",NA,678,NA,NA,NA,"CYCACAR","Calcium Carbonate Crystals","URINALYSIS",NA,"-",NA,NA,NA,"-",NA,NA,NA,NA,NA,NA,NA,NA,NA,"URINE",NA,NA,NA,NA,NA,NA,NA,NA,NA,NA,NA,NA,NA,NA,NA,30,"2007-07-11T07:28:00",NA,30,NA,NA,NA,NA,NA,NA
"GLP003","LB","107001375",NA,679,NA,NA,NA,"CYCAOXA","Calcium Oxalate Crystals","URINALYSIS",NA,"-",NA,NA,NA,"-",NA,NA,NA,NA,NA,NA,NA,NA,NA,"URINE",NA,NA,NA,NA,NA,NA,NA,NA,NA,NA,NA,NA,NA,NA,NA,30,"2007-07-11T07:28:00",NA,30,NA,NA,NA,NA,NA,NA
"GLP003","LB","107001375",NA,680,NA,NA,NA,"EPIC","Epithelial Cells","URINALYSIS",NA,"-",NA,NA,NA,"-",NA,NA,NA,NA,NA,NA,NA,NA,NA,"URINE",NA,NA,NA,NA,NA,NA,NA,NA,NA,NA,NA,NA,NA,NA,NA,30,"2007-07-11T07:28:00",NA,30,NA,NA,NA,NA,NA,NA
"GLP003","LB","107001375",NA,681,NA,NA,NA,"CASTS","Casts","URINALYSIS",NA,"-",NA,NA,NA,"-",NA,NA,NA,NA,NA,NA,NA,NA,NA,"URINE",NA,NA,NA,NA,NA,NA,NA,NA,NA,NA,NA,NA,NA,NA,NA,30,"2007-07-11T07:28:00",NA,30,NA,NA,NA,NA,NA,NA
"GLP003","LB","107001375",NA,682,NA,NA,NA,"MISC","Miscellaneous Cell Types","URINALYSIS",NA,"-",NA,NA,NA,"-",NA,NA,NA,NA,NA,NA,NA,NA,NA,"URINE",NA,NA,NA,NA,NA,NA,NA,NA,NA,NA,NA,NA,NA,NA,NA,30,"2007-07-11T07:28:00",NA,30,NA,NA,NA,NA,NA,NA
"GLP003","LB","107001375",NA,683,NA,NA,NA,"CYTRPHOS","Triple Phosphate Crystals","URINALYSIS",NA,"-",NA,NA,NA,"-",NA,NA,NA,NA,NA,NA,NA,NA,NA,"URINE",NA,NA,NA,NA,NA,NA,NA,NA,NA,NA,NA,NA,NA,NA,NA,30,"2007-07-11T07:28:00",NA,30,NA,NA,NA,NA,NA,NA
"GLP003","LB","107001375",NA,684,NA,NA,NA,"SPERM","Spermatozoa","URINALYSIS",NA,"3+",NA,NA,NA,"3+",NA,NA,NA,NA,NA,NA,NA,NA,NA,"URINE",NA,NA,NA,NA,NA,NA,NA,NA,NA,NA,NA,NA,NA,NA,NA,30,"2007-07-11T07:28:00",NA,30,NA,NA,NA,NA,NA,NA
"GLP003","LB","107001375",NA,685,NA,NA,NA,"WBC","Leukocytes","URINALYSIS",NA,"1+",NA,NA,NA,"1+",NA,NA,NA,NA,NA,NA,NA,NA,NA,"URINE",NA,NA,NA,NA,NA,NA,NA,NA,NA,NA,NA,NA,NA,NA,NA,30,"2007-07-11T07:28:00",NA,30,NA,NA,NA,NA,NA,NA
"GLP003","LB","107001375",NA,686,NA,NA,NA,"RBC","Erythrocytes","URINALYSIS",NA,"-",NA,NA,NA,"-",NA,NA,NA,NA,NA,NA,NA,NA,NA,"URINE",NA,NA,NA,NA,NA,NA,NA,NA,NA,NA,NA,NA,NA,NA,NA,30,"2007-07-11T07:28:00",NA,30,NA,NA,NA,NA,NA,NA
"GLP003","LB","107001375",NA,687,NA,NA,NA,"CRYOTHER","Other Crystals","URINALYSIS",NA,"-",NA,NA,NA,"-",NA,NA,NA,NA,NA,NA,NA,NA,NA,"URINE",NA,NA,NA,NA,NA,NA,NA,NA,NA,NA,NA,NA,NA,NA,NA,30,"2007-07-11T07:28:00",NA,30,NA,NA,NA,NA,NA,NA
"GLP003","LB","107001375",NA,688,NA,NA,NA,"PROT","Protein","URINALYSIS",NA,"50","mg/dL",NA,NA,"50",50,"mg/dL",NA,NA,NA,NA,NA,NA,NA,"URINE",NA,NA,NA,NA,NA,NA,NA,NA,NA,NA,NA,NA,NA,NA,NA,30,"2007-07-10T14:20:00",NA,29,NA,NA,NA,NA,NA,NA
"GLP003","LB","107001375",NA,689,NA,NA,NA,"BICARB","Bicarbonate","SERUM CHEMISTRY",NA,"22","mmol/L",NA,NA,"22",22,"mmol/L",NA,NA,NA,NA,NA,NA,NA,"SERUM",NA,NA,NA,NA,NA,NA,NA,NA,NA,NA,NA,NA,NA,NA,NA,30,"2007-07-11T08:20:00",NA,30,NA,NA,NA,NA,NA,NA
"GLP003","LB","107001375",NA,691,NA,NA,NA,"RBCMORPH","Erythrocyte Cell Morphology","HEMATOLOGY",NA,"-",NA,NA,NA,"-",NA,NA,NA,NA,NA,NA,NA,NA,NA,"WHOLE BLOOD",NA,NA,NA,NA,NA,NA,NA,NA,NA,NA,NA,NA,NA,NA,NA,30,"2007-07-11T10:00:00",NA,30,NA,NA,NA,NA,NA,NA
"GLP003","LB","107001376",NA,692,NA,NA,NA,"WBC","Leukocytes","HEMATOLOGY",NA,"31.12","10^9/L",NA,NA,"31.12",31.12,"10^9/L",NA,NA,NA,NA,NA,NA,NA,"WHOLE BLOOD",NA,NA,NA,NA,NA,NA,NA,NA,NA,NA,NA,NA,NA,NA,NA,30,"2007-07-11T09:00:00",NA,30,NA,NA,NA,NA,NA,NA
"GLP003","LB","107001376",NA,693,NA,NA,NA,"RBC","Erythrocytes","HEMATOLOGY",NA,"8.58","10^12/L",NA,NA,"8.58",8.58,"10^12/L",NA,NA,NA,NA,NA,NA,NA,"WHOLE BLOOD",NA,NA,NA,NA,NA,NA,NA,NA,NA,NA,NA,NA,NA,NA,NA,30,"2007-07-11T09:00:00",NA,30,NA,NA,NA,NA,NA,NA
"GLP003","LB","107001376",NA,694,NA,NA,NA,"HGB","Hemoglobin","HEMATOLOGY",NA,"15.8","g/dL",NA,NA,"15.8",15.8,"g/dL",NA,NA,NA,NA,NA,NA,NA,"WHOLE BLOOD",NA,NA,NA,NA,NA,NA,NA,NA,NA,NA,NA,NA,NA,NA,NA,30,"2007-07-11T09:00:00",NA,30,NA,NA,NA,NA,NA,NA
"GLP003","LB","107001376",NA,695,NA,NA,NA,"HCT","Hematocrit","HEMATOLOGY",NA,"45.2","%",NA,NA,"45.2",45.2,"%",NA,NA,NA,NA,NA,NA,NA,"WHOLE BLOOD",NA,NA,NA,NA,NA,NA,NA,NA,NA,NA,NA,NA,NA,NA,NA,30,"2007-07-11T09:00:00",NA,30,NA,NA,NA,NA,NA,NA
"GLP003","LB","107001376",NA,696,NA,NA,NA,"MCV","Ery. Mean Corpuscular Volume","HEMATOLOGY",NA,"52.6","fL",NA,NA,"52.6",52.6,"fL",NA,NA,NA,NA,NA,NA,NA,"WHOLE BLOOD",NA,NA,NA,NA,NA,NA,NA,NA,NA,NA,NA,NA,NA,NA,NA,30,"2007-07-11T09:00:00",NA,30,NA,NA,NA,NA,NA,NA
"GLP003","LB","107001376",NA,697,NA,NA,NA,"MCH","Ery. Mean Corpuscular Hemoglobin","HEMATOLOGY",NA,"18.4","pg",NA,NA,"18.4",18.4,"pg",NA,NA,NA,NA,NA,NA,NA,"WHOLE BLOOD",NA,NA,NA,NA,NA,NA,NA,NA,NA,NA,NA,NA,NA,NA,NA,30,"2007-07-11T09:00:00",NA,30,NA,NA,NA,NA,NA,NA
"GLP003","LB","107001376",NA,698,NA,NA,NA,"MCHC","Ery. Mean Corpuscular HGB Concentration","HEMATOLOGY",NA,"34.9","g/dL",NA,NA,"34.9",34.9,"g/dL",NA,NA,NA,NA,NA,NA,NA,"WHOLE BLOOD",NA,NA,NA,NA,NA,NA,NA,NA,NA,NA,NA,NA,NA,NA,NA,30,"2007-07-11T09:00:00",NA,30,NA,NA,NA,NA,NA,NA
"GLP003","LB","107001376",NA,699,NA,NA,NA,"RDW","Erythrocytes Distribution Width","HEMATOLOGY",NA,"11.8","%",NA,NA,"11.8",11.8,"%",NA,NA,NA,NA,NA,NA,NA,"WHOLE BLOOD",NA,NA,NA,NA,NA,NA,NA,NA,NA,NA,NA,NA,NA,NA,NA,30,"2007-07-11T09:00:00",NA,30,NA,NA,NA,NA,NA,NA
"GLP003","LB","107001376",NA,700,NA,NA,NA,"PLAT","Platelets","HEMATOLOGY",NA,"1338","10^9/L",NA,NA,"1338",1338,"10^9/L",NA,NA,NA,NA,NA,NA,NA,"WHOLE BLOOD",NA,NA,NA,NA,NA,NA,NA,NA,NA,NA,NA,NA,NA,NA,NA,30,"2007-07-11T09:00:00",NA,30,NA,NA,NA,NA,NA,NA
"GLP003","LB","107001376",NA,701,NA,NA,NA,"RETIRBC","Reticulocytes/Erythrocytes","HEMATOLOGY",NA,"1.8","%",NA,NA,"1.8",1.8,"%",NA,NA,NA,NA,NA,NA,NA,"WHOLE BLOOD",NA,NA,NA,NA,NA,NA,NA,NA,NA,NA,NA,NA,NA,NA,NA,30,"2007-07-11T09:00:00",NA,30,NA,NA,NA,NA,NA,NA
"GLP003","LB","107001376",NA,702,NA,NA,NA,"RETI","Reticulocytes","HEMATOLOGY",NA,"0.154","10^12/L",NA,NA,"0.154",0.154,"10^12/L",NA,NA,NA,NA,NA,NA,NA,"WHOLE BLOOD",NA,NA,NA,NA,NA,NA,NA,NA,NA,NA,NA,NA,NA,NA,NA,30,"2007-07-11T09:00:00",NA,30,NA,NA,NA,NA,NA,NA
"GLP003","LB","107001376",NA,703,NA,NA,NA,"NEUT","Neutrophils","HEMATOLOGY",NA,"17.27","10^9/L",NA,NA,"17.27",17.27,"10^9/L",NA,NA,NA,NA,NA,NA,NA,"WHOLE BLOOD",NA,NA,NA,NA,NA,NA,NA,NA,NA,NA,NA,NA,NA,NA,NA,30,"2007-07-11T09:00:00",NA,30,NA,NA,NA,NA,NA,NA
"GLP003","LB","107001376",NA,704,NA,NA,NA,"LYM","Lymphocytes","HEMATOLOGY",NA,"11.95","10^9/L",NA,NA,"11.95",11.95,"10^9/L",NA,NA,NA,NA,NA,NA,NA,"WHOLE BLOOD",NA,NA,NA,NA,NA,NA,NA,NA,NA,NA,NA,NA,NA,NA,NA,30,"2007-07-11T09:00:00",NA,30,NA,NA,NA,NA,NA,NA
"GLP003","LB","107001376",NA,705,NA,NA,NA,"MONO","Monocytes","HEMATOLOGY",NA,"1.26","10^9/L",NA,NA,"1.26",1.26,"10^9/L",NA,NA,NA,NA,NA,NA,NA,"WHOLE BLOOD",NA,NA,NA,NA,NA,NA,NA,NA,NA,NA,NA,NA,NA,NA,NA,30,"2007-07-11T09:00:00",NA,30,NA,NA,NA,NA,NA,NA
"GLP003","LB","107001376",NA,706,NA,NA,NA,"EOS","Eosinophils","HEMATOLOGY",NA,"0.08","10^9/L",NA,NA,"0.08",0.08,"10^9/L",NA,NA,NA,NA,NA,NA,NA,"WHOLE BLOOD",NA,NA,NA,NA,NA,NA,NA,NA,NA,NA,NA,NA,NA,NA,NA,30,"2007-07-11T09:00:00",NA,30,NA,NA,NA,NA,NA,NA
"GLP003","LB","107001376",NA,707,NA,NA,NA,"BASO","Basophils","HEMATOLOGY",NA,"0.21","10^9/L",NA,NA,"0.21",0.21,"10^9/L",NA,NA,NA,NA,NA,NA,NA,"WHOLE BLOOD",NA,NA,NA,NA,NA,NA,NA,NA,NA,NA,NA,NA,NA,NA,NA,30,"2007-07-11T09:00:00",NA,30,NA,NA,NA,NA,NA,NA
"GLP003","LB","107001376",NA,708,NA,NA,NA,"LGUNSCE","Large Unstained Cells","HEMATOLOGY",NA,"0.35","10^9/L",NA,NA,"0.35",0.35,"10^9/L",NA,NA,NA,NA,NA,NA,NA,"WHOLE BLOOD",NA,NA,NA,NA,NA,NA,NA,NA,NA,NA,NA,NA,NA,NA,NA,30,"2007-07-11T09:00:00",NA,30,NA,NA,NA,NA,NA,NA
"GLP003","LB","107001376",NA,709,NA,NA,NA,"ALT","Alanine Aminotransferase","SERUM CHEMISTRY",NA,"50","U/L",NA,NA,"50",50,"U/L",NA,NA,NA,NA,NA,NA,NA,"SERUM",NA,NA,NA,NA,NA,NA,NA,NA,NA,NA,NA,NA,NA,NA,NA,30,"2007-07-11T08:20:00",NA,30,NA,NA,NA,NA,NA,NA
"GLP003","LB","107001376",NA,710,NA,NA,NA,"ALB","Albumin","SERUM CHEMISTRY",NA,"2.8","g/dL",NA,NA,"2.8",2.8,"g/dL",NA,NA,NA,NA,NA,NA,NA,"SERUM",NA,NA,NA,NA,NA,NA,NA,NA,NA,NA,NA,NA,NA,NA,NA,30,"2007-07-11T08:20:00",NA,30,NA,NA,NA,NA,NA,NA
"GLP003","LB","107001376",NA,711,NA,NA,NA,"ALBGLOB","Albumin/Globulin","SERUM CHEMISTRY",NA,"0.8","RATIO",NA,NA,"0.8",0.8,"RATIO",NA,NA,NA,NA,NA,NA,NA,"SERUM",NA,NA,NA,NA,NA,NA,NA,NA,NA,NA,NA,NA,NA,NA,NA,30,"2007-07-11T08:20:00",NA,30,NA,NA,NA,NA,NA,NA
"GLP003","LB","107001376",NA,712,NA,NA,NA,"ALP","Alkaline Phosphatase","SERUM CHEMISTRY",NA,"199","U/L",NA,NA,"199",199,"U/L",NA,NA,NA,NA,NA,NA,NA,"SERUM",NA,NA,NA,NA,NA,NA,NA,NA,NA,NA,NA,NA,NA,NA,NA,30,"2007-07-11T08:20:00",NA,30,NA,NA,NA,NA,NA,NA
"GLP003","LB","107001376",NA,713,NA,NA,NA,"AST","Aspartate Aminotransferase","SERUM CHEMISTRY",NA,"101","U/L",NA,NA,"101",101,"U/L",NA,NA,NA,NA,NA,NA,NA,"SERUM",NA,NA,NA,NA,NA,NA,NA,NA,NA,NA,NA,NA,NA,NA,NA,30,"2007-07-11T08:20:00",NA,30,NA,NA,NA,NA,NA,NA
"GLP003","LB","107001376",NA,714,NA,NA,NA,"BUN","Blood Urea Nitrogen","SERUM CHEMISTRY",NA,"12","mg/dL",NA,NA,"12",12,"mg/dL",NA,NA,NA,NA,NA,NA,NA,"SERUM",NA,NA,NA,NA,NA,NA,NA,NA,NA,NA,NA,NA,NA,NA,NA,30,"2007-07-11T08:20:00",NA,30,NA,NA,NA,NA,NA,NA
"GLP003","LB","107001376",NA,715,NA,NA,NA,"CA","Calcium","SERUM CHEMISTRY",NA,"12.1","mg/dL",NA,NA,"12.1",12.1,"mg/dL",NA,NA,NA,NA,NA,NA,NA,"SERUM",NA,NA,NA,NA,NA,NA,NA,NA,NA,NA,NA,NA,NA,NA,NA,30,"2007-07-11T08:20:00",NA,30,NA,NA,NA,NA,NA,NA
"GLP003","LB","107001376",NA,716,NA,NA,NA,"CL","Chloride","SERUM CHEMISTRY",NA,"104","mEq/L",NA,NA,"104",104,"mEq/L",NA,NA,NA,NA,NA,NA,NA,"SERUM",NA,NA,NA,NA,NA,NA,NA,NA,NA,NA,NA,NA,NA,NA,NA,30,"2007-07-11T08:20:00",NA,30,NA,NA,NA,NA,NA,NA
"GLP003","LB","107001376",NA,717,NA,NA,NA,"CHOL","Cholesterol","SERUM CHEMISTRY",NA,"78","mg/dL",NA,NA,"78",78,"mg/dL",NA,NA,NA,NA,NA,NA,NA,"SERUM",NA,NA,NA,NA,NA,NA,NA,NA,NA,NA,NA,NA,NA,NA,NA,30,"2007-07-11T08:20:00",NA,30,NA,NA,NA,NA,NA,NA
"GLP003","LB","107001376",NA,718,NA,NA,NA,"CREAT","Creatinine","SERUM CHEMISTRY",NA,"0.44","mg/dL",NA,NA,"0.44",0.44,"mg/dL",NA,NA,NA,NA,NA,NA,NA,"SERUM",NA,NA,NA,NA,NA,NA,NA,NA,NA,NA,NA,NA,NA,NA,NA,30,"2007-07-11T08:20:00",NA,30,NA,NA,NA,NA,NA,NA
"GLP003","LB","107001376",NA,719,NA,NA,NA,"GLOBUL","Globulin","SERUM CHEMISTRY",NA,"3.5","g/dL",NA,NA,"3.5",3.5,"g/dL",NA,NA,NA,NA,NA,NA,NA,"SERUM",NA,NA,NA,NA,NA,NA,NA,NA,NA,NA,NA,NA,NA,NA,NA,30,"2007-07-11T08:20:00",NA,30,NA,NA,NA,NA,NA,NA
"GLP003","LB","107001376",NA,720,NA,NA,NA,"GLUC","Glucose","SERUM CHEMISTRY",NA,"108","mg/dL",NA,NA,"108",108,"mg/dL",NA,NA,NA,NA,NA,NA,NA,"SERUM",NA,NA,NA,NA,NA,NA,NA,NA,NA,NA,NA,NA,NA,NA,NA,30,"2007-07-11T08:20:00",NA,30,NA,NA,NA,NA,NA,NA
"GLP003","LB","107001376",NA,721,NA,NA,NA,"K","Potassium","SERUM CHEMISTRY",NA,"4.6","mEq/L",NA,NA,"4.6",4.6,"mEq/L",NA,NA,NA,NA,NA,NA,NA,"SERUM",NA,NA,NA,NA,NA,NA,NA,NA,NA,NA,NA,NA,NA,NA,NA,30,"2007-07-11T08:20:00",NA,30,NA,NA,NA,NA,NA,NA
"GLP003","LB","107001376",NA,722,NA,NA,NA,"PHOS","Phosphate","SERUM CHEMISTRY",NA,"7.2","mg/dL",NA,NA,"7.2",7.2,"mg/dL",NA,NA,NA,NA,NA,NA,NA,"SERUM",NA,NA,NA,NA,NA,NA,NA,NA,NA,NA,NA,NA,NA,NA,NA,30,"2007-07-11T08:20:00",NA,30,NA,NA,NA,NA,NA,NA
"GLP003","LB","107001376",NA,723,NA,NA,NA,"SODIUM","Sodium","SERUM CHEMISTRY",NA,"145","mEq/L",NA,NA,"145",145,"mEq/L",NA,NA,NA,NA,NA,NA,NA,"SERUM",NA,NA,NA,NA,NA,NA,NA,NA,NA,NA,NA,NA,NA,NA,NA,30,"2007-07-11T08:20:00",NA,30,NA,NA,NA,NA,NA,NA
"GLP003","LB","107001376",NA,724,NA,NA,NA,"BILI","Bilirubin","SERUM CHEMISTRY",NA,"0.10","mg/dL",NA,NA,"0.10",0.1,"mg/dL",NA,NA,NA,NA,NA,NA,NA,"SERUM",NA,NA,NA,NA,NA,NA,NA,NA,NA,NA,NA,NA,NA,NA,NA,30,"2007-07-11T08:20:00",NA,30,NA,NA,NA,NA,NA,NA
"GLP003","LB","107001376",NA,725,NA,NA,NA,"PROT","Protein","SERUM CHEMISTRY",NA,"6.3","g/dL",NA,NA,"6.3",6.3,"g/dL",NA,NA,NA,NA,NA,NA,NA,"SERUM",NA,NA,NA,NA,NA,NA,NA,NA,NA,NA,NA,NA,NA,NA,NA,30,"2007-07-11T08:20:00",NA,30,NA,NA,NA,NA,NA,NA
"GLP003","LB","107001376",NA,726,NA,NA,NA,"TRIG","Triglycerides","SERUM CHEMISTRY",NA,"18","mg/dL",NA,NA,"18",18,"mg/dL",NA,NA,NA,NA,NA,NA,NA,"SERUM",NA,NA,NA,NA,NA,NA,NA,NA,NA,NA,NA,NA,NA,NA,NA,30,"2007-07-11T08:20:00",NA,30,NA,NA,NA,NA,NA,NA
"GLP003","LB","107001376",NA,727,NA,NA,NA,"APTT","Activated Partial Thromboplastin Time","COAGULATION",NA,"14.0","sec",NA,NA,"14.0",14,"sec",NA,NA,NA,NA,NA,NA,NA,"PLASMA",NA,NA,NA,NA,NA,NA,NA,NA,NA,NA,NA,NA,NA,NA,NA,30,"2007-07-11T09:00:00",NA,30,NA,NA,NA,NA,NA,NA
"GLP003","LB","107001376",NA,728,NA,NA,NA,"PT","Prothrombin Time","COAGULATION",NA,"18.5","sec",NA,NA,"18.5",18.5,"sec",NA,NA,NA,NA,NA,NA,NA,"PLASMA",NA,NA,NA,NA,NA,NA,NA,NA,NA,NA,NA,NA,NA,NA,NA,30,"2007-07-11T09:00:00",NA,30,NA,NA,NA,NA,NA,NA
"GLP003","LB","107001376",NA,729,NA,NA,NA,"FIBRINO","Fibrinogen","COAGULATION",NA,"609","mg/dL",NA,NA,"609",609,"mg/dL",NA,NA,NA,NA,NA,NA,NA,"PLASMA",NA,NA,NA,NA,NA,NA,NA,NA,NA,NA,NA,NA,NA,NA,NA,30,"2007-07-11T09:00:00",NA,30,NA,NA,NA,NA,NA,NA
"GLP003","LB","107001376",NA,730,NA,NA,NA,"CLARITY","Clarity","URINALYSIS",NA,"CLOUDY",NA,NA,NA,"CLOUDY",NA,NA,NA,NA,NA,NA,NA,NA,NA,"URINE",NA,NA,NA,NA,NA,NA,NA,NA,NA,NA,NA,NA,NA,NA,NA,30,"2007-07-11T07:28:00",NA,30,NA,NA,NA,NA,NA,NA
"GLP003","LB","107001376",NA,731,NA,NA,NA,"COLOR","Color","URINALYSIS",NA,"YELLOW",NA,NA,NA,"YELLOW",NA,NA,NA,NA,NA,NA,NA,NA,NA,"URINE",NA,NA,NA,NA,NA,NA,NA,NA,NA,NA,NA,NA,NA,NA,NA,30,"2007-07-11T07:28:00",NA,30,NA,NA,NA,NA,NA,NA
"GLP003","LB","107001376",NA,732,NA,NA,NA,"BILI","Bilirubin","URINALYSIS",NA,"NEGATIVE",NA,NA,NA,"NEGATIVE",NA,NA,NA,NA,NA,NA,NA,NA,NA,"URINE",NA,NA,NA,NA,NA,NA,NA,"Atlas",NA,NA,NA,NA,NA,NA,NA,30,"2007-07-11T07:28:00",NA,30,NA,NA,NA,NA,NA,NA
"GLP003","LB","107001376",NA,733,NA,NA,NA,"GLUC","Glucose","URINALYSIS",NA,"NEGATIVE",NA,NA,NA,"NEGATIVE",NA,NA,NA,NA,NA,NA,NA,NA,NA,"URINE",NA,NA,NA,NA,NA,NA,NA,"Atlas, qualitative",NA,NA,NA,NA,NA,NA,NA,30,"2007-07-11T07:28:00",NA,30,NA,NA,NA,NA,NA,NA
"GLP003","LB","107001376",NA,734,NA,NA,NA,"OCCBLD","Occult Blood","URINALYSIS",NA,"NEGATIVE",NA,NA,NA,"NEGATIVE",NA,NA,NA,NA,NA,NA,NA,NA,NA,"URINE",NA,NA,NA,NA,NA,NA,NA,NA,NA,NA,NA,NA,NA,NA,NA,30,"2007-07-11T07:28:00",NA,30,NA,NA,NA,NA,NA,NA
"GLP003","LB","107001376",NA,735,NA,NA,NA,"KETONES","Ketones","URINALYSIS",NA,"TRACE",NA,NA,NA,"TRACE",NA,NA,NA,NA,NA,NA,NA,NA,NA,"URINE",NA,NA,NA,NA,NA,NA,NA,NA,NA,NA,NA,NA,NA,NA,NA,30,"2007-07-11T07:28:00",NA,30,NA,NA,NA,NA,NA,NA
"GLP003","LB","107001376",NA,736,NA,NA,NA,"PH","pH","URINALYSIS",NA,"6.0","pH",NA,NA,"6.0",6,"pH",NA,NA,NA,NA,NA,NA,NA,"URINE",NA,NA,NA,NA,NA,NA,NA,NA,NA,NA,NA,NA,NA,NA,NA,30,"2007-07-11T07:28:00",NA,30,NA,NA,NA,NA,NA,NA
"GLP003","LB","107001376",NA,737,NA,NA,NA,"SPGRAV","Specific Gravity","URINALYSIS",NA,"1.035",NA,NA,NA,"1.035",1.035,NA,NA,NA,NA,NA,NA,NA,NA,"URINE",NA,NA,NA,NA,NA,NA,NA,NA,NA,NA,NA,NA,NA,NA,NA,30,"2007-07-11T07:28:00",NA,30,NA,NA,NA,NA,NA,NA
"GLP003","LB","107001376",NA,738,NA,NA,NA,"UROBIL","Urobilinogen","URINALYSIS",NA,"0.2","mg/dL",NA,NA,"0.2",0.2,"mg/dL",NA,NA,NA,NA,NA,NA,NA,"URINE",NA,NA,NA,NA,NA,NA,NA,NA,NA,NA,NA,NA,NA,NA,NA,30,"2007-07-11T07:28:00",NA,30,NA,NA,NA,NA,NA,NA
"GLP003","LB","107001376",NA,739,NA,NA,NA,"VOLUME","Volume","URINALYSIS",NA,"10","mL",NA,NA,"10",10,"mL",NA,NA,NA,NA,NA,NA,NA,"URINE",NA,NA,NA,NA,NA,NA,NA,NA,NA,NA,NA,NA,NA,NA,NA,30,"2007-07-11T08:20:00",NA,30,NA,NA,NA,NA,NA,NA
"GLP003","LB","107001376",NA,740,NA,NA,NA,"ANISO","Anisocytes","HEMATOLOGY",NA,"-",NA,NA,NA,"-",NA,NA,NA,NA,NA,NA,NA,NA,NA,"WHOLE BLOOD",NA,NA,NA,NA,NA,NA,NA,NA,NA,NA,NA,NA,NA,NA,NA,30,"2007-07-11T10:00:00",NA,30,NA,NA,NA,NA,NA,NA
"GLP003","LB","107001376",NA,741,NA,NA,NA,"RBCINCL","RBC Inclusions","HEMATOLOGY",NA,"-",NA,NA,NA,"-",NA,NA,NA,NA,NA,NA,NA,NA,NA,"WHOLE BLOOD",NA,NA,NA,NA,NA,NA,NA,NA,NA,NA,NA,NA,NA,NA,NA,30,"2007-07-11T10:00:00",NA,30,NA,NA,NA,NA,NA,NA
"GLP003","LB","107001376",NA,742,NA,NA,NA,"PLATM","Platelet Morphology","HEMATOLOGY",NA,"-",NA,NA,NA,"-",NA,NA,NA,NA,NA,NA,NA,NA,NA,"WHOLE BLOOD",NA,NA,NA,NA,NA,NA,NA,NA,NA,NA,NA,NA,NA,NA,NA,30,"2007-07-11T10:00:00",NA,30,NA,NA,NA,NA,NA,NA
"GLP003","LB","107001376",NA,743,NA,NA,NA,"POIKILO","Poikilocytes","HEMATOLOGY",NA,"4+",NA,NA,NA,"4+",NA,NA,NA,NA,NA,NA,NA,NA,NA,"WHOLE BLOOD",NA,NA,NA,NA,NA,NA,NA,NA,NA,NA,NA,NA,NA,NA,NA,30,"2007-07-11T10:00:00",NA,30,NA,NA,NA,NA,NA,NA
"GLP003","LB","107001376",NA,744,NA,NA,NA,"POLYCHR","Polychromasia","HEMATOLOGY",NA,"-",NA,NA,NA,"-",NA,NA,NA,NA,NA,NA,NA,NA,NA,"WHOLE BLOOD",NA,NA,NA,NA,NA,NA,NA,NA,NA,NA,NA,NA,NA,NA,NA,30,"2007-07-11T10:00:00",NA,30,NA,NA,NA,NA,NA,NA
"GLP003","LB","107001376",NA,745,NA,NA,NA,"WBCMORPH","Leukocyte Cell Morphology","HEMATOLOGY",NA,"-",NA,NA,NA,"-",NA,NA,NA,NA,NA,NA,NA,NA,NA,"WHOLE BLOOD",NA,NA,NA,NA,NA,NA,NA,NA,NA,NA,NA,NA,NA,NA,NA,30,"2007-07-11T10:00:00",NA,30,NA,NA,NA,NA,NA,NA
"GLP003","LB","107001376",NA,746,NA,NA,NA,"CYAMORPH","Amorphous Crystals","URINALYSIS",NA,"2+",NA,NA,NA,"2+",NA,NA,NA,NA,NA,NA,NA,NA,NA,"URINE",NA,NA,NA,NA,NA,NA,NA,NA,NA,NA,NA,NA,NA,NA,NA,30,"2007-07-11T07:28:00",NA,30,NA,NA,NA,NA,NA,NA
"GLP003","LB","107001376",NA,747,NA,NA,NA,"BACT","Bacteria","URINALYSIS",NA,"2+",NA,NA,NA,"2+",NA,NA,NA,NA,NA,NA,NA,NA,NA,"URINE",NA,NA,NA,NA,NA,NA,NA,NA,NA,NA,NA,NA,NA,NA,NA,30,"2007-07-11T07:28:00",NA,30,NA,NA,NA,NA,NA,NA
"GLP003","LB","107001376",NA,748,NA,NA,NA,"CYCACAR","Calcium Carbonate Crystals","URINALYSIS",NA,"-",NA,NA,NA,"-",NA,NA,NA,NA,NA,NA,NA,NA,NA,"URINE",NA,NA,NA,NA,NA,NA,NA,NA,NA,NA,NA,NA,NA,NA,NA,30,"2007-07-11T07:28:00",NA,30,NA,NA,NA,NA,NA,NA
"GLP003","LB","107001376",NA,749,NA,NA,NA,"CYCAOXA","Calcium Oxalate Crystals","URINALYSIS",NA,"-",NA,NA,NA,"-",NA,NA,NA,NA,NA,NA,NA,NA,NA,"URINE",NA,NA,NA,NA,NA,NA,NA,NA,NA,NA,NA,NA,NA,NA,NA,30,"2007-07-11T07:28:00",NA,30,NA,NA,NA,NA,NA,NA
"GLP003","LB","107001376",NA,750,NA,NA,NA,"EPIC","Epithelial Cells","URINALYSIS",NA,"-",NA,NA,NA,"-",NA,NA,NA,NA,NA,NA,NA,NA,NA,"URINE",NA,NA,NA,NA,NA,NA,NA,NA,NA,NA,NA,NA,NA,NA,NA,30,"2007-07-11T07:28:00",NA,30,NA,NA,NA,NA,NA,NA
"GLP003","LB","107001376",NA,751,NA,NA,NA,"CASTS","Casts","URINALYSIS",NA,"-",NA,NA,NA,"-",NA,NA,NA,NA,NA,NA,NA,NA,NA,"URINE",NA,NA,NA,NA,NA,NA,NA,NA,NA,NA,NA,NA,NA,NA,NA,30,"2007-07-11T07:28:00",NA,30,NA,NA,NA,NA,NA,NA
"GLP003","LB","107001376",NA,752,NA,NA,NA,"MISC","Miscellaneous Cell Types","URINALYSIS",NA,"-",NA,NA,NA,"-",NA,NA,NA,NA,NA,NA,NA,NA,NA,"URINE",NA,NA,NA,NA,NA,NA,NA,NA,NA,NA,NA,NA,NA,NA,NA,30,"2007-07-11T07:28:00",NA,30,NA,NA,NA,NA,NA,NA
"GLP003","LB","107001376",NA,753,NA,NA,NA,"CYTRPHOS","Triple Phosphate Crystals","URINALYSIS",NA,"-",NA,NA,NA,"-",NA,NA,NA,NA,NA,NA,NA,NA,NA,"URINE",NA,NA,NA,NA,NA,NA,NA,NA,NA,NA,NA,NA,NA,NA,NA,30,"2007-07-11T07:28:00",NA,30,NA,NA,NA,NA,NA,NA
"GLP003","LB","107001376",NA,754,NA,NA,NA,"SPERM","Spermatozoa","URINALYSIS",NA,"1+",NA,NA,NA,"1+",NA,NA,NA,NA,NA,NA,NA,NA,NA,"URINE",NA,NA,NA,NA,NA,NA,NA,NA,NA,NA,NA,NA,NA,NA,NA,30,"2007-07-11T07:28:00",NA,30,NA,NA,NA,NA,NA,NA
"GLP003","LB","107001376",NA,755,NA,NA,NA,"WBC","Leukocytes","URINALYSIS",NA,"-",NA,NA,NA,"-",NA,NA,NA,NA,NA,NA,NA,NA,NA,"URINE",NA,NA,NA,NA,NA,NA,NA,NA,NA,NA,NA,NA,NA,NA,NA,30,"2007-07-11T07:28:00",NA,30,NA,NA,NA,NA,NA,NA
"GLP003","LB","107001376",NA,756,NA,NA,NA,"RBC","Erythrocytes","URINALYSIS",NA,"-",NA,NA,NA,"-",NA,NA,NA,NA,NA,NA,NA,NA,NA,"URINE",NA,NA,NA,NA,NA,NA,NA,NA,NA,NA,NA,NA,NA,NA,NA,30,"2007-07-11T07:28:00",NA,30,NA,NA,NA,NA,NA,NA
"GLP003","LB","107001376",NA,757,NA,NA,NA,"CRYOTHER","Other Crystals","URINALYSIS",NA,"-",NA,NA,NA,"-",NA,NA,NA,NA,NA,NA,NA,NA,NA,"URINE",NA,NA,NA,NA,NA,NA,NA,NA,NA,NA,NA,NA,NA,NA,NA,30,"2007-07-11T07:28:00",NA,30,NA,NA,NA,NA,NA,NA
"GLP003","LB","107001376",NA,758,NA,NA,NA,"PROT","Protein","URINALYSIS",NA,"98","mg/dL",NA,NA,"98",98,"mg/dL",NA,NA,NA,NA,NA,NA,NA,"URINE",NA,NA,NA,NA,NA,NA,NA,NA,NA,NA,NA,NA,NA,NA,NA,30,"2007-07-10T14:20:00",NA,29,NA,NA,NA,NA,NA,NA
"GLP003","LB","107001376",NA,759,NA,NA,NA,"BICARB","Bicarbonate","SERUM CHEMISTRY",NA,"22","mmol/L",NA,NA,"22",22,"mmol/L",NA,NA,NA,NA,NA,NA,NA,"SERUM",NA,NA,NA,NA,NA,NA,NA,NA,NA,NA,NA,NA,NA,NA,NA,30,"2007-07-11T08:20:00",NA,30,NA,NA,NA,NA,NA,NA
"GLP003","LB","107001376",NA,761,NA,NA,NA,"RBCMORPH","Erythrocyte Cell Morphology","HEMATOLOGY",NA,"-",NA,NA,NA,"-",NA,NA,NA,NA,NA,NA,NA,NA,NA,"WHOLE BLOOD",NA,NA,NA,NA,NA,NA,NA,NA,NA,NA,NA,NA,NA,NA,NA,30,"2007-07-11T10:00:00",NA,30,NA,NA,NA,NA,NA,NA
"GLP003","LB","107001377",NA,762,NA,NA,NA,"WBC","Leukocytes","HEMATOLOGY",NA,"19.07","10^9/L",NA,NA,"19.07",19.07,"10^9/L",NA,NA,NA,NA,NA,NA,NA,"WHOLE BLOOD",NA,NA,NA,NA,NA,NA,NA,NA,NA,NA,NA,NA,NA,NA,NA,29,"2007-07-10T08:00:00",NA,29,NA,NA,NA,NA,NA,NA
"GLP003","LB","107001377",NA,763,NA,NA,NA,"RBC","Erythrocytes","HEMATOLOGY",NA,"8.82","10^12/L",NA,NA,"8.82",8.82,"10^12/L",NA,NA,NA,NA,NA,NA,NA,"WHOLE BLOOD",NA,NA,NA,NA,NA,NA,NA,NA,NA,NA,NA,NA,NA,NA,NA,29,"2007-07-10T08:00:00",NA,29,NA,NA,NA,NA,NA,NA
"GLP003","LB","107001377",NA,764,NA,NA,NA,"HGB","Hemoglobin","HEMATOLOGY",NA,"16.7","g/dL",NA,NA,"16.7",16.7,"g/dL",NA,NA,NA,NA,NA,NA,NA,"WHOLE BLOOD",NA,NA,NA,NA,NA,NA,NA,NA,NA,NA,NA,NA,NA,NA,NA,29,"2007-07-10T08:00:00",NA,29,NA,NA,NA,NA,NA,NA
"GLP003","LB","107001377",NA,765,NA,NA,NA,"HCT","Hematocrit","HEMATOLOGY",NA,"46.8","%",NA,NA,"46.8",46.8,"%",NA,NA,NA,NA,NA,NA,NA,"WHOLE BLOOD",NA,NA,NA,NA,NA,NA,NA,NA,NA,NA,NA,NA,NA,NA,NA,29,"2007-07-10T08:00:00",NA,29,NA,NA,NA,NA,NA,NA
"GLP003","LB","107001377",NA,766,NA,NA,NA,"MCV","Ery. Mean Corpuscular Volume","HEMATOLOGY",NA,"53.1","fL",NA,NA,"53.1",53.1,"fL",NA,NA,NA,NA,NA,NA,NA,"WHOLE BLOOD",NA,NA,NA,NA,NA,NA,NA,NA,NA,NA,NA,NA,NA,NA,NA,29,"2007-07-10T08:00:00",NA,29,NA,NA,NA,NA,NA,NA
"GLP003","LB","107001377",NA,767,NA,NA,NA,"MCH","Ery. Mean Corpuscular Hemoglobin","HEMATOLOGY",NA,"18.9","pg",NA,NA,"18.9",18.9,"pg",NA,NA,NA,NA,NA,NA,NA,"WHOLE BLOOD",NA,NA,NA,NA,NA,NA,NA,NA,NA,NA,NA,NA,NA,NA,NA,29,"2007-07-10T08:00:00",NA,29,NA,NA,NA,NA,NA,NA
"GLP003","LB","107001377",NA,768,NA,NA,NA,"MCHC","Ery. Mean Corpuscular HGB Concentration","HEMATOLOGY",NA,"35.7","g/dL",NA,NA,"35.7",35.7,"g/dL",NA,NA,NA,NA,NA,NA,NA,"WHOLE BLOOD",NA,NA,NA,NA,NA,NA,NA,NA,NA,NA,NA,NA,NA,NA,NA,29,"2007-07-10T08:00:00",NA,29,NA,NA,NA,NA,NA,NA
"GLP003","LB","107001377",NA,769,NA,NA,NA,"RDW","Erythrocytes Distribution Width","HEMATOLOGY",NA,"11.9","%",NA,NA,"11.9",11.9,"%",NA,NA,NA,NA,NA,NA,NA,"WHOLE BLOOD",NA,NA,NA,NA,NA,NA,NA,NA,NA,NA,NA,NA,NA,NA,NA,29,"2007-07-10T08:00:00",NA,29,NA,NA,NA,NA,NA,NA
"GLP003","LB","107001377",NA,770,NA,NA,NA,"PLAT","Platelets","HEMATOLOGY",NA,"1223","10^9/L",NA,NA,"1223",1223,"10^9/L",NA,NA,NA,NA,NA,NA,NA,"WHOLE BLOOD",NA,NA,NA,NA,NA,NA,NA,NA,NA,NA,NA,NA,NA,NA,NA,29,"2007-07-10T08:00:00",NA,29,NA,NA,NA,NA,NA,NA
"GLP003","LB","107001377",NA,771,NA,NA,NA,"RETIRBC","Reticulocytes/Erythrocytes","HEMATOLOGY",NA,"1.9","%",NA,NA,"1.9",1.9,"%",NA,NA,NA,NA,NA,NA,NA,"WHOLE BLOOD",NA,NA,NA,NA,NA,NA,NA,NA,NA,NA,NA,NA,NA,NA,NA,29,"2007-07-10T08:00:00",NA,29,NA,NA,NA,NA,NA,NA
"GLP003","LB","107001377",NA,772,NA,NA,NA,"RETI","Reticulocytes","HEMATOLOGY",NA,"0.166","10^12/L",NA,NA,"0.166",0.166,"10^12/L",NA,NA,NA,NA,NA,NA,NA,"WHOLE BLOOD",NA,NA,NA,NA,NA,NA,NA,NA,NA,NA,NA,NA,NA,NA,NA,29,"2007-07-10T08:00:00",NA,29,NA,NA,NA,NA,NA,NA
"GLP003","LB","107001377",NA,773,NA,NA,NA,"NEUT","Neutrophils","HEMATOLOGY",NA,"1.89","10^9/L",NA,NA,"1.89",1.89,"10^9/L",NA,NA,NA,NA,NA,NA,NA,"WHOLE BLOOD",NA,NA,NA,NA,NA,NA,NA,NA,NA,NA,NA,NA,NA,NA,NA,29,"2007-07-10T08:00:00",NA,29,NA,NA,NA,NA,NA,NA
"GLP003","LB","107001377",NA,774,NA,NA,NA,"LYM","Lymphocytes","HEMATOLOGY",NA,"16.10","10^9/L",NA,NA,"16.10",16.1,"10^9/L",NA,NA,NA,NA,NA,NA,NA,"WHOLE BLOOD",NA,NA,NA,NA,NA,NA,NA,NA,NA,NA,NA,NA,NA,NA,NA,29,"2007-07-10T08:00:00",NA,29,NA,NA,NA,NA,NA,NA
"GLP003","LB","107001377",NA,775,NA,NA,NA,"MONO","Monocytes","HEMATOLOGY",NA,"0.43","10^9/L",NA,NA,"0.43",0.43,"10^9/L",NA,NA,NA,NA,NA,NA,NA,"WHOLE BLOOD",NA,NA,NA,NA,NA,NA,NA,NA,NA,NA,NA,NA,NA,NA,NA,29,"2007-07-10T08:00:00",NA,29,NA,NA,NA,NA,NA,NA
"GLP003","LB","107001377",NA,776,NA,NA,NA,"EOS","Eosinophils","HEMATOLOGY",NA,"0.20","10^9/L",NA,NA,"0.20",0.2,"10^9/L",NA,NA,NA,NA,NA,NA,NA,"WHOLE BLOOD",NA,NA,NA,NA,NA,NA,NA,NA,NA,NA,NA,NA,NA,NA,NA,29,"2007-07-10T08:00:00",NA,29,NA,NA,NA,NA,NA,NA
"GLP003","LB","107001377",NA,777,NA,NA,NA,"BASO","Basophils","HEMATOLOGY",NA,"0.19","10^9/L",NA,NA,"0.19",0.19,"10^9/L",NA,NA,NA,NA,NA,NA,NA,"WHOLE BLOOD",NA,NA,NA,NA,NA,NA,NA,NA,NA,NA,NA,NA,NA,NA,NA,29,"2007-07-10T08:00:00",NA,29,NA,NA,NA,NA,NA,NA
"GLP003","LB","107001377",NA,778,NA,NA,NA,"LGUNSCE","Large Unstained Cells","HEMATOLOGY",NA,"0.25","10^9/L",NA,NA,"0.25",0.25,"10^9/L",NA,NA,NA,NA,NA,NA,NA,"WHOLE BLOOD",NA,NA,NA,NA,NA,NA,NA,NA,NA,NA,NA,NA,NA,NA,NA,29,"2007-07-10T08:00:00",NA,29,NA,NA,NA,NA,NA,NA
"GLP003","LB","107001377",NA,779,NA,NA,NA,"ALT","Alanine Aminotransferase","SERUM CHEMISTRY",NA,"46","U/L",NA,NA,"46",46,"U/L",NA,NA,NA,NA,NA,NA,NA,"SERUM",NA,NA,NA,NA,NA,NA,NA,NA,NA,NA,NA,NA,NA,NA,NA,29,"2007-07-10T09:53:00",NA,29,NA,NA,NA,NA,NA,NA
"GLP003","LB","107001377",NA,780,NA,NA,NA,"ALB","Albumin","SERUM CHEMISTRY",NA,"3.8","g/dL",NA,NA,"3.8",3.8,"g/dL",NA,NA,NA,NA,NA,NA,NA,"SERUM",NA,NA,NA,NA,NA,NA,NA,NA,NA,NA,NA,NA,NA,NA,NA,29,"2007-07-10T09:53:00",NA,29,NA,NA,NA,NA,NA,NA
"GLP003","LB","107001377",NA,781,NA,NA,NA,"ALBGLOB","Albumin/Globulin","SERUM CHEMISTRY",NA,"1.2","RATIO",NA,NA,"1.2",1.2,"RATIO",NA,NA,NA,NA,NA,NA,NA,"SERUM",NA,NA,NA,NA,NA,NA,NA,NA,NA,NA,NA,NA,NA,NA,NA,29,"2007-07-10T09:53:00",NA,29,NA,NA,NA,NA,NA,NA
"GLP003","LB","107001377",NA,782,NA,NA,NA,"ALP","Alkaline Phosphatase","SERUM CHEMISTRY",NA,"117","U/L",NA,NA,"117",117,"U/L",NA,NA,NA,NA,NA,NA,NA,"SERUM",NA,NA,NA,NA,NA,NA,NA,NA,NA,NA,NA,NA,NA,NA,NA,29,"2007-07-10T09:53:00",NA,29,NA,NA,NA,NA,NA,NA
"GLP003","LB","107001377",NA,783,NA,NA,NA,"AST","Aspartate Aminotransferase","SERUM CHEMISTRY",NA,"93","U/L",NA,NA,"93",93,"U/L",NA,NA,NA,NA,NA,NA,NA,"SERUM",NA,NA,NA,NA,NA,NA,NA,NA,NA,NA,NA,NA,NA,NA,NA,29,"2007-07-10T09:53:00",NA,29,NA,NA,NA,NA,NA,NA
"GLP003","LB","107001377",NA,784,NA,NA,NA,"BUN","Blood Urea Nitrogen","SERUM CHEMISTRY",NA,"15","mg/dL",NA,NA,"15",15,"mg/dL",NA,NA,NA,NA,NA,NA,NA,"SERUM",NA,NA,NA,NA,NA,NA,NA,NA,NA,NA,NA,NA,NA,NA,NA,29,"2007-07-10T09:53:00",NA,29,NA,NA,NA,NA,NA,NA
"GLP003","LB","107001377",NA,785,NA,NA,NA,"CA","Calcium","SERUM CHEMISTRY",NA,"13.7","mg/dL",NA,NA,"13.7",13.7,"mg/dL",NA,NA,NA,NA,NA,NA,NA,"SERUM",NA,NA,NA,NA,NA,NA,NA,NA,NA,NA,NA,NA,NA,NA,NA,29,"2007-07-10T09:53:00",NA,29,NA,NA,NA,NA,NA,NA
"GLP003","LB","107001377",NA,786,NA,NA,NA,"CL","Chloride","SERUM CHEMISTRY",NA,"101","mEq/L",NA,NA,"101",101,"mEq/L",NA,NA,NA,NA,NA,NA,NA,"SERUM",NA,NA,NA,NA,NA,NA,NA,NA,NA,NA,NA,NA,NA,NA,NA,29,"2007-07-10T09:53:00",NA,29,NA,NA,NA,NA,NA,NA
"GLP003","LB","107001377",NA,787,NA,NA,NA,"CHOL","Cholesterol","SERUM CHEMISTRY",NA,"117","mg/dL",NA,NA,"117",117,"mg/dL",NA,NA,NA,NA,NA,NA,NA,"SERUM",NA,NA,NA,NA,NA,NA,NA,NA,NA,NA,NA,NA,NA,NA,NA,29,"2007-07-10T09:53:00",NA,29,NA,NA,NA,NA,NA,NA
"GLP003","LB","107001377",NA,788,NA,NA,NA,"CREAT","Creatinine","SERUM CHEMISTRY",NA,"0.35","mg/dL",NA,NA,"0.35",0.35,"mg/dL",NA,NA,NA,NA,NA,NA,NA,"SERUM",NA,NA,NA,NA,NA,NA,NA,NA,NA,NA,NA,NA,NA,NA,NA,29,"2007-07-10T09:53:00",NA,29,NA,NA,NA,NA,NA,NA
"GLP003","LB","107001377",NA,789,NA,NA,NA,"GLOBUL","Globulin","SERUM CHEMISTRY",NA,"3.2","g/dL",NA,NA,"3.2",3.2,"g/dL",NA,NA,NA,NA,NA,NA,NA,"SERUM",NA,NA,NA,NA,NA,NA,NA,NA,NA,NA,NA,NA,NA,NA,NA,29,"2007-07-10T09:53:00",NA,29,NA,NA,NA,NA,NA,NA
"GLP003","LB","107001377",NA,790,NA,NA,NA,"GLUC","Glucose","SERUM CHEMISTRY",NA,"126","mg/dL",NA,NA,"126",126,"mg/dL",NA,NA,NA,NA,NA,NA,NA,"SERUM",NA,NA,NA,NA,NA,NA,NA,NA,NA,NA,NA,NA,NA,NA,NA,29,"2007-07-10T09:53:00",NA,29,NA,NA,NA,NA,NA,NA
"GLP003","LB","107001377",NA,791,NA,NA,NA,"K","Potassium","SERUM CHEMISTRY",NA,"5.8","mEq/L",NA,NA,"5.8",5.8,"mEq/L",NA,NA,NA,NA,NA,NA,NA,"SERUM",NA,NA,NA,NA,NA,NA,NA,NA,NA,NA,NA,NA,NA,NA,NA,29,"2007-07-10T09:53:00",NA,29,NA,NA,NA,NA,NA,NA
"GLP003","LB","107001377",NA,792,NA,NA,NA,"PHOS","Phosphate","SERUM CHEMISTRY",NA,"8.0","mg/dL",NA,NA,"8.0",8,"mg/dL",NA,NA,NA,NA,NA,NA,NA,"SERUM",NA,NA,NA,NA,NA,NA,NA,NA,NA,NA,NA,NA,NA,NA,NA,29,"2007-07-10T09:53:00",NA,29,NA,NA,NA,NA,NA,NA
"GLP003","LB","107001377",NA,793,NA,NA,NA,"SODIUM","Sodium","SERUM CHEMISTRY",NA,"141","mEq/L",NA,NA,"141",141,"mEq/L",NA,NA,NA,NA,NA,NA,NA,"SERUM",NA,NA,NA,NA,NA,NA,NA,NA,NA,NA,NA,NA,NA,NA,NA,29,"2007-07-10T09:53:00",NA,29,NA,NA,NA,NA,NA,NA
"GLP003","LB","107001377",NA,794,NA,NA,NA,"BILI","Bilirubin","SERUM CHEMISTRY",NA,"0.10","mg/dL",NA,NA,"0.10",0.1,"mg/dL",NA,NA,NA,NA,NA,NA,NA,"SERUM",NA,NA,NA,NA,NA,NA,NA,NA,NA,NA,NA,NA,NA,NA,NA,29,"2007-07-10T09:53:00",NA,29,NA,NA,NA,NA,NA,NA
"GLP003","LB","107001377",NA,795,NA,NA,NA,"PROT","Protein","SERUM CHEMISTRY",NA,"7.0","g/dL",NA,NA,"7.0",7,"g/dL",NA,NA,NA,NA,NA,NA,NA,"SERUM",NA,NA,NA,NA,NA,NA,NA,NA,NA,NA,NA,NA,NA,NA,NA,29,"2007-07-10T09:53:00",NA,29,NA,NA,NA,NA,NA,NA
"GLP003","LB","107001377",NA,796,NA,NA,NA,"TRIG","Triglycerides","SERUM CHEMISTRY",NA,"97","mg/dL",NA,NA,"97",97,"mg/dL",NA,NA,NA,NA,NA,NA,NA,"SERUM",NA,NA,NA,NA,NA,NA,NA,NA,NA,NA,NA,NA,NA,NA,NA,29,"2007-07-10T09:53:00",NA,29,NA,NA,NA,NA,NA,NA
"GLP003","LB","107001377",NA,797,NA,NA,NA,"APTT","Activated Partial Thromboplastin Time","COAGULATION",NA,"13.1","sec",NA,NA,"13.1",13.1,"sec",NA,NA,NA,NA,NA,NA,NA,"PLASMA",NA,NA,NA,NA,NA,NA,NA,NA,NA,NA,NA,NA,NA,NA,NA,29,"2007-07-10T08:00:00",NA,29,NA,NA,NA,NA,NA,NA
"GLP003","LB","107001377",NA,798,NA,NA,NA,"PT","Prothrombin Time","COAGULATION",NA,"16.3","sec",NA,NA,"16.3",16.3,"sec",NA,NA,NA,NA,NA,NA,NA,"PLASMA",NA,NA,NA,NA,NA,NA,NA,NA,NA,NA,NA,NA,NA,NA,NA,29,"2007-07-10T08:00:00",NA,29,NA,NA,NA,NA,NA,NA
"GLP003","LB","107001377",NA,799,NA,NA,NA,"FIBRINO","Fibrinogen","COAGULATION",NA,"276","mg/dL",NA,NA,"276",276,"mg/dL",NA,NA,NA,NA,NA,NA,NA,"PLASMA",NA,NA,NA,NA,NA,NA,NA,NA,NA,NA,NA,NA,NA,NA,NA,29,"2007-07-10T08:00:00",NA,29,NA,NA,NA,NA,NA,NA
"GLP003","LB","107001377",NA,800,NA,NA,NA,"CLARITY","Clarity","URINALYSIS",NA,"CLEAR",NA,NA,NA,"CLEAR",NA,NA,NA,NA,NA,NA,NA,NA,NA,"URINE",NA,NA,NA,NA,NA,NA,NA,NA,NA,NA,NA,NA,NA,NA,NA,29,"2007-07-10T07:34:00",NA,29,NA,NA,NA,NA,NA,NA
"GLP003","LB","107001377",NA,801,NA,NA,NA,"COLOR","Color","URINALYSIS",NA,"YELLOW",NA,NA,NA,"YELLOW",NA,NA,NA,NA,NA,NA,NA,NA,NA,"URINE",NA,NA,NA,NA,NA,NA,NA,NA,NA,NA,NA,NA,NA,NA,NA,29,"2007-07-10T07:34:00",NA,29,NA,NA,NA,NA,NA,NA
"GLP003","LB","107001377",NA,802,NA,NA,NA,"BILI","Bilirubin","URINALYSIS",NA,"NEGATIVE",NA,NA,NA,"NEGATIVE",NA,NA,NA,NA,NA,NA,NA,NA,NA,"URINE",NA,NA,NA,NA,NA,NA,NA,"Atlas",NA,NA,NA,NA,NA,NA,NA,29,"2007-07-10T07:34:00",NA,29,NA,NA,NA,NA,NA,NA
"GLP003","LB","107001377",NA,803,NA,NA,NA,"GLUC","Glucose","URINALYSIS",NA,"NEGATIVE",NA,NA,NA,"NEGATIVE",NA,NA,NA,NA,NA,NA,NA,NA,NA,"URINE",NA,NA,NA,NA,NA,NA,NA,"Atlas, qualitative",NA,NA,NA,NA,NA,NA,NA,29,"2007-07-10T07:34:00",NA,29,NA,NA,NA,NA,NA,NA
"GLP003","LB","107001377",NA,804,NA,NA,NA,"OCCBLD","Occult Blood","URINALYSIS",NA,"NEGATIVE",NA,NA,NA,"NEGATIVE",NA,NA,NA,NA,NA,NA,NA,NA,NA,"URINE",NA,NA,NA,NA,NA,NA,NA,NA,NA,NA,NA,NA,NA,NA,NA,29,"2007-07-10T07:34:00",NA,29,NA,NA,NA,NA,NA,NA
"GLP003","LB","107001377",NA,805,NA,NA,NA,"KETONES","Ketones","URINALYSIS",NA,"TRACE",NA,NA,NA,"TRACE",NA,NA,NA,NA,NA,NA,NA,NA,NA,"URINE",NA,NA,NA,NA,NA,NA,NA,NA,NA,NA,NA,NA,NA,NA,NA,29,"2007-07-10T07:34:00",NA,29,NA,NA,NA,NA,NA,NA
"GLP003","LB","107001377",NA,806,NA,NA,NA,"PH","pH","URINALYSIS",NA,"6.5","pH",NA,NA,"6.5",6.5,"pH",NA,NA,NA,NA,NA,NA,NA,"URINE",NA,NA,NA,NA,NA,NA,NA,NA,NA,NA,NA,NA,NA,NA,NA,29,"2007-07-10T07:34:00",NA,29,NA,NA,NA,NA,NA,NA
"GLP003","LB","107001377",NA,807,NA,NA,NA,"SPGRAV","Specific Gravity","URINALYSIS",NA,"1.016",NA,NA,NA,"1.016",1.016,NA,NA,NA,NA,NA,NA,NA,NA,"URINE",NA,NA,NA,NA,NA,NA,NA,NA,NA,NA,NA,NA,NA,NA,NA,29,"2007-07-10T07:34:00",NA,29,NA,NA,NA,NA,NA,NA
"GLP003","LB","107001377",NA,808,NA,NA,NA,"UROBIL","Urobilinogen","URINALYSIS",NA,"0.2","mg/dL",NA,NA,"0.2",0.2,"mg/dL",NA,NA,NA,NA,NA,NA,NA,"URINE",NA,NA,NA,NA,NA,NA,NA,NA,NA,NA,NA,NA,NA,NA,NA,29,"2007-07-10T07:34:00",NA,29,NA,NA,NA,NA,NA,NA
"GLP003","LB","107001377",NA,809,NA,NA,NA,"VOLUME","Volume","URINALYSIS",NA,"21","mL",NA,NA,"21",21,"mL",NA,NA,NA,NA,NA,NA,NA,"URINE",NA,NA,NA,NA,NA,NA,NA,NA,NA,NA,NA,NA,NA,NA,NA,29,"2007-07-10T10:53:00",NA,29,NA,NA,NA,NA,NA,NA
"GLP003","LB","107001377",NA,810,NA,NA,NA,"ANISO","Anisocytes","HEMATOLOGY",NA,"-",NA,NA,NA,"-",NA,NA,NA,NA,NA,NA,NA,NA,NA,"WHOLE BLOOD",NA,NA,NA,NA,NA,NA,NA,NA,NA,NA,NA,NA,NA,NA,NA,29,"2007-07-10T09:00:00",NA,29,NA,NA,NA,NA,NA,NA
"GLP003","LB","107001377",NA,811,NA,NA,NA,"RBCINCL","RBC Inclusions","HEMATOLOGY",NA,"-",NA,NA,NA,"-",NA,NA,NA,NA,NA,NA,NA,NA,NA,"WHOLE BLOOD",NA,NA,NA,NA,NA,NA,NA,NA,NA,NA,NA,NA,NA,NA,NA,29,"2007-07-10T09:00:00",NA,29,NA,NA,NA,NA,NA,NA
"GLP003","LB","107001377",NA,812,NA,NA,NA,"PLATM","Platelet Morphology","HEMATOLOGY",NA,"-",NA,NA,NA,"-",NA,NA,NA,NA,NA,NA,NA,NA,NA,"WHOLE BLOOD",NA,NA,NA,NA,NA,NA,NA,NA,NA,NA,NA,NA,NA,NA,NA,29,"2007-07-10T09:00:00",NA,29,NA,NA,NA,NA,NA,NA
"GLP003","LB","107001377",NA,813,NA,NA,NA,"POIKILO","Poikilocytes","HEMATOLOGY",NA,"2+",NA,NA,NA,"2+",NA,NA,NA,NA,NA,NA,NA,NA,NA,"WHOLE BLOOD",NA,NA,NA,NA,NA,NA,NA,NA,NA,NA,NA,NA,NA,NA,NA,29,"2007-07-10T09:00:00",NA,29,NA,NA,NA,NA,NA,NA
"GLP003","LB","107001377",NA,814,NA,NA,NA,"POLYCHR","Polychromasia","HEMATOLOGY",NA,"-",NA,NA,NA,"-",NA,NA,NA,NA,NA,NA,NA,NA,NA,"WHOLE BLOOD",NA,NA,NA,NA,NA,NA,NA,NA,NA,NA,NA,NA,NA,NA,NA,29,"2007-07-10T09:00:00",NA,29,NA,NA,NA,NA,NA,NA
"GLP003","LB","107001377",NA,815,NA,NA,NA,"WBCMORPH","Leukocyte Cell Morphology","HEMATOLOGY",NA,"-",NA,NA,NA,"-",NA,NA,NA,NA,NA,NA,NA,NA,NA,"WHOLE BLOOD",NA,NA,NA,NA,NA,NA,NA,NA,NA,NA,NA,NA,NA,NA,NA,29,"2007-07-10T09:00:00",NA,29,NA,NA,NA,NA,NA,NA
"GLP003","LB","107001377",NA,816,NA,NA,NA,"CYAMORPH","Amorphous Crystals","URINALYSIS",NA,"-",NA,NA,NA,"-",NA,NA,NA,NA,NA,NA,NA,NA,NA,"URINE",NA,NA,NA,NA,NA,NA,NA,NA,NA,NA,NA,NA,NA,NA,NA,29,"2007-07-10T07:34:00",NA,29,NA,NA,NA,NA,NA,NA
"GLP003","LB","107001377",NA,817,NA,NA,NA,"BACT","Bacteria","URINALYSIS",NA,"2+",NA,NA,NA,"2+",NA,NA,NA,NA,NA,NA,NA,NA,NA,"URINE",NA,NA,NA,NA,NA,NA,NA,NA,NA,NA,NA,NA,NA,NA,NA,29,"2007-07-10T07:34:00",NA,29,NA,NA,NA,NA,NA,NA
"GLP003","LB","107001377",NA,818,NA,NA,NA,"CYCACAR","Calcium Carbonate Crystals","URINALYSIS",NA,"-",NA,NA,NA,"-",NA,NA,NA,NA,NA,NA,NA,NA,NA,"URINE",NA,NA,NA,NA,NA,NA,NA,NA,NA,NA,NA,NA,NA,NA,NA,29,"2007-07-10T07:34:00",NA,29,NA,NA,NA,NA,NA,NA
"GLP003","LB","107001377",NA,819,NA,NA,NA,"CYCAOXA","Calcium Oxalate Crystals","URINALYSIS",NA,"-",NA,NA,NA,"-",NA,NA,NA,NA,NA,NA,NA,NA,NA,"URINE",NA,NA,NA,NA,NA,NA,NA,NA,NA,NA,NA,NA,NA,NA,NA,29,"2007-07-10T07:34:00",NA,29,NA,NA,NA,NA,NA,NA
"GLP003","LB","107001377",NA,820,NA,NA,NA,"EPIC","Epithelial Cells","URINALYSIS",NA,"-",NA,NA,NA,"-",NA,NA,NA,NA,NA,NA,NA,NA,NA,"URINE",NA,NA,NA,NA,NA,NA,NA,NA,NA,NA,NA,NA,NA,NA,NA,29,"2007-07-10T07:34:00",NA,29,NA,NA,NA,NA,NA,NA
"GLP003","LB","107001377",NA,821,NA,NA,NA,"CASTS","Casts","URINALYSIS",NA,"-",NA,NA,NA,"-",NA,NA,NA,NA,NA,NA,NA,NA,NA,"URINE",NA,NA,NA,NA,NA,NA,NA,NA,NA,NA,NA,NA,NA,NA,NA,29,"2007-07-10T07:34:00",NA,29,NA,NA,NA,NA,NA,NA
"GLP003","LB","107001377",NA,822,NA,NA,NA,"MISC","Miscellaneous Cell Types","URINALYSIS",NA,"-",NA,NA,NA,"-",NA,NA,NA,NA,NA,NA,NA,NA,NA,"URINE",NA,NA,NA,NA,NA,NA,NA,NA,NA,NA,NA,NA,NA,NA,NA,29,"2007-07-10T07:34:00",NA,29,NA,NA,NA,NA,NA,NA
"GLP003","LB","107001377",NA,823,NA,NA,NA,"CYTRPHOS","Triple Phosphate Crystals","URINALYSIS",NA,"-",NA,NA,NA,"-",NA,NA,NA,NA,NA,NA,NA,NA,NA,"URINE",NA,NA,NA,NA,NA,NA,NA,NA,NA,NA,NA,NA,NA,NA,NA,29,"2007-07-10T07:34:00",NA,29,NA,NA,NA,NA,NA,NA
"GLP003","LB","107001377",NA,824,NA,NA,NA,"SPERM","Spermatozoa","URINALYSIS",NA,"4+",NA,NA,NA,"4+",NA,NA,NA,NA,NA,NA,NA,NA,NA,"URINE",NA,NA,NA,NA,NA,NA,NA,NA,NA,NA,NA,NA,NA,NA,NA,29,"2007-07-10T07:34:00",NA,29,NA,NA,NA,NA,NA,NA
"GLP003","LB","107001377",NA,825,NA,NA,NA,"WBC","Leukocytes","URINALYSIS",NA,"-",NA,NA,NA,"-",NA,NA,NA,NA,NA,NA,NA,NA,NA,"URINE",NA,NA,NA,NA,NA,NA,NA,NA,NA,NA,NA,NA,NA,NA,NA,29,"2007-07-10T07:34:00",NA,29,NA,NA,NA,NA,NA,NA
"GLP003","LB","107001377",NA,826,NA,NA,NA,"RBC","Erythrocytes","URINALYSIS",NA,"-",NA,NA,NA,"-",NA,NA,NA,NA,NA,NA,NA,NA,NA,"URINE",NA,NA,NA,NA,NA,NA,NA,NA,NA,NA,NA,NA,NA,NA,NA,29,"2007-07-10T07:34:00",NA,29,NA,NA,NA,NA,NA,NA
"GLP003","LB","107001377",NA,827,NA,NA,NA,"CRYOTHER","Other Crystals","URINALYSIS",NA,"-",NA,NA,NA,"-",NA,NA,NA,NA,NA,NA,NA,NA,NA,"URINE",NA,NA,NA,NA,NA,NA,NA,NA,NA,NA,NA,NA,NA,NA,NA,29,"2007-07-10T07:34:00",NA,29,NA,NA,NA,NA,NA,NA
"GLP003","LB","107001377",NA,828,NA,NA,NA,"PROT","Protein","URINALYSIS",NA,"29","mg/dL",NA,NA,"29",29,"mg/dL",NA,NA,NA,NA,NA,NA,NA,"URINE",NA,NA,NA,NA,NA,NA,NA,NA,NA,NA,NA,NA,NA,NA,NA,29,"2007-07-09T16:53:00",NA,28,NA,NA,NA,NA,NA,NA
