"STUDYID","DOMAIN","USUBJID","MISEQ","MIGRPID","MIREFID","MISPID","MITESTCD","MITEST","MIBODSYS","MIORRES","MISTRESC","MIRESCAT","MISTAT","MIREASND","MINAM","MISPEC","MIANTREG","MISPCCND","MISPCUFL","MIMETHOD","MILAT","MIDIR","MIEVAL","MISEV","MIDTHREL","MIDTC","MIDY"
"GLP003","MI","107001493",1,NA,NA,NA,"MIEXAM","Microscopic Examination",NA,"NORMAL","NORMAL",NA,NA,NA,NA,"ADIPOSE TISSUE",NA,NA,NA,NA,NA,NA,NA,NA,NA,"2007-07-10",29
"GLP003","MI","107001493",2,NA,NA,NA,"MIEXAM","Microscopic Examination",NA,"ADRENAL GLANDS:Hyperplasia: cortical cell, focal, unilateral, grade 1","Hyperplasia",NA,NA,NA,NA,"GLAND, ADRENAL",NA,NA,NA,NA,"BILATERAL",NA,NA,"MINIMAL",NA,"2007-07-10",29
"GLP003","MI","107001493",3,NA,NA,NA,"MIEXAM","Microscopic Examination",NA,"NORMAL","NORMAL",NA,NA,NA,NA,"ARTERY, AORTA",NA,NA,NA,NA,NA,NA,NA,NA,NA,"2007-07-10",29
"GLP003","MI","107001493",4,NA,NA,NA,"MIEXAM","Microscopic Examination",NA,"NORMAL","NORMAL",NA,NA,NA,NA,"BONE MARROW, FEMUR",NA,NA,NA,NA,NA,NA,NA,NA,NA,"2007-07-10",29
"GLP003","MI","107001493",5,NA,NA,NA,"MIEXAM","Microscopic Examination",NA,"NORMAL","NORMAL",NA,NA,NA,NA,"BONE MARROW, STERNUM",NA,NA,NA,NA,NA,NA,NA,NA,NA,"2007-07-10",29
"GLP003","MI","107001493",6,NA,NA,NA,"MIEXAM","Microscopic Examination",NA,"NORMAL","NORMAL",NA,NA,NA,NA,"BONE, FEMUR",NA,NA,NA,NA,NA,NA,NA,NA,NA,"2007-07-10",29
"GLP003","MI","107001493",7,NA,NA,NA,"MIEXAM","Microscopic Examination",NA,"NORMAL","NORMAL",NA,NA,NA,NA,"BONE, STERNUM",NA,NA,NA,NA,NA,NA,NA,NA,NA,"2007-07-10",29
"GLP003","MI","107001493",8,NA,NA,NA,"MIEXAM","Microscopic Examination",NA,"NORMAL","NORMAL",NA,NA,NA,NA,"BRAIN",NA,NA,NA,NA,NA,NA,NA,NA,NA,"2007-07-10",29
"GLP003","MI","107001493",9,NA,NA,NA,"MIEXAM","Microscopic Examination",NA,"NORMAL","NORMAL",NA,NA,NA,NA,"ADIPOSE TISSUE, BROWN",NA,NA,NA,NA,NA,NA,NA,NA,NA,"2007-07-10",29
"GLP003","MI","107001493",10,NA,NA,NA,"MIEXAM","Microscopic Examination",NA,"NORMAL","NORMAL",NA,NA,NA,NA,"LARGE INTESTINE, CECUM",NA,NA,NA,NA,NA,NA,NA,NA,NA,"2007-07-10",29
"GLP003","MI","107001493",11,NA,NA,NA,"MIEXAM","Microscopic Examination",NA,"NORMAL","NORMAL",NA,NA,NA,NA,"LARGE INTESTINE, COLON",NA,NA,NA,NA,NA,NA,NA,NA,NA,"2007-07-10",29
"GLP003","MI","107001493",12,NA,NA,NA,"MIEXAM","Microscopic Examination",NA,"NORMAL","NORMAL",NA,NA,NA,NA,"MUSCLE, DIAPHRAGM",NA,NA,NA,NA,NA,NA,NA,NA,NA,"2007-07-10",29
"GLP003","MI","107001493",13,NA,NA,NA,"MIEXAM","Microscopic Examination",NA,"NORMAL","NORMAL",NA,NA,NA,NA,"SMALL INTESTINE, DUODENUM",NA,NA,NA,NA,NA,NA,NA,NA,NA,"2007-07-10",29
"GLP003","MI","107001493",14,NA,NA,NA,"MIEXAM","Microscopic Examination",NA,"NORMAL","NORMAL",NA,NA,NA,NA,"EPIDIDYMIS",NA,NA,NA,NA,"BILATERAL",NA,NA,NA,NA,"2007-07-10",29
"GLP003","MI","107001493",15,NA,NA,NA,"MIEXAM","Microscopic Examination",NA,"NORMAL","NORMAL",NA,NA,NA,NA,"ESOPHAGUS",NA,NA,NA,NA,NA,NA,NA,NA,NA,"2007-07-10",29
"GLP003","MI","107001493",16,NA,NA,NA,"MIEXAM","Microscopic Examination",NA,"NORMAL","NORMAL",NA,NA,NA,NA,"EYE",NA,NA,NA,NA,"BILATERAL",NA,NA,NA,NA,"2007-07-10",29
"GLP003","MI","107001493",17,NA,NA,NA,"MIEXAM","Microscopic Examination",NA,"NORMAL","NORMAL",NA,NA,NA,NA,"GLAND, HARDERIAN",NA,NA,NA,NA,"BILATERAL",NA,NA,NA,NA,"2007-07-10",29
"GLP003","MI","107001493",18,NA,NA,NA,"MIEXAM","Microscopic Examination",NA,"HEART:Cyst: valvular, focal, grade 1","Cyst",NA,NA,NA,NA,"HEART",NA,NA,NA,NA,NA,NA,NA,"MINIMAL",NA,"2007-07-10",29
"GLP003","MI","107001493",19,NA,NA,NA,"MIEXAM","Microscopic Examination",NA,"HEART:Degeneration: myocardial cell, focal, grade 1","Degeneration",NA,NA,NA,NA,"HEART",NA,NA,NA,NA,NA,NA,NA,"MINIMAL",NA,"2007-07-10",29
"GLP003","MI","107001493",20,NA,NA,NA,"MIEXAM","Microscopic Examination",NA,"NORMAL","NORMAL",NA,NA,NA,NA,"SMALL INTESTINE, ILEUM",NA,NA,NA,NA,NA,NA,NA,NA,NA,"2007-07-10",29
"GLP003","MI","107001493",21,NA,NA,NA,"MIEXAM","Microscopic Examination",NA,"NORMAL","NORMAL",NA,NA,NA,NA,"SMALL INTESTINE, JEJUNUM",NA,NA,NA,NA,NA,NA,NA,NA,NA,"2007-07-10",29
"GLP003","MI","107001493",22,NA,NA,NA,"MIEXAM","Microscopic Examination",NA,"KIDNEYS:Vacuolation: tubular epithelium, multifocal, bilateral, grade 1","Vacuolation",NA,NA,NA,NA,"KIDNEY",NA,NA,NA,NA,"BILATERAL",NA,NA,"MINIMAL",NA,"2007-07-10",29
"GLP003","MI","107001493",23,NA,NA,NA,"MIEXAM","Microscopic Examination",NA,"NORMAL","NORMAL",NA,NA,NA,NA,"LIVER",NA,NA,NA,NA,NA,NA,NA,NA,NA,"2007-07-10",29
"GLP003","MI","107001493",24,NA,NA,NA,"MIEXAM","Microscopic Examination",NA,"LUNG:Histiocytosis: alveolar space, focal, grade 1","Histiocytosis",NA,NA,NA,NA,"LUNG",NA,NA,NA,NA,NA,NA,NA,"MINIMAL",NA,"2007-07-10",29
"GLP003","MI","107001493",25,NA,NA,NA,"MIEXAM","Microscopic Examination",NA,"SKELETAL MUSCLE, QUADRICEPS FEMORIS:Degeneration: skeletal muscle cell, multifocal, grade 1","Degeneration",NA,NA,NA,NA,"MUSCLE, QUADRICEPS FEMORIS",NA,NA,NA,NA,NA,NA,NA,"MINIMAL",NA,"2007-07-10",29
"GLP003","MI","107001493",26,NA,NA,NA,"MIEXAM","Microscopic Examination",NA,"NORMAL","NORMAL",NA,NA,NA,NA,"GLAND, MAMMARY",NA,NA,NA,NA,NA,NA,NA,NA,NA,"2007-07-10",29
"GLP003","MI","107001493",27,NA,NA,NA,"MIEXAM","Microscopic Examination",NA,"NORMAL","NORMAL",NA,NA,NA,NA,"LYMPH NODE, SUBMANDIBULAR",NA,NA,NA,NA,NA,NA,NA,NA,NA,"2007-07-10",29
"GLP003","MI","107001493",28,NA,NA,NA,"MIEXAM","Microscopic Examination",NA,"NORMAL","NORMAL",NA,NA,NA,NA,"GLAND, SALIVARY, SUBMANDIBULAR",NA,NA,NA,NA,NA,NA,NA,NA,NA,"2007-07-10",29
"GLP003","MI","107001493",29,NA,NA,NA,"MIEXAM","Microscopic Examination",NA,"NORMAL","NORMAL",NA,NA,NA,NA,"LYMPH NODE, MESENTERIC",NA,NA,NA,NA,NA,NA,NA,NA,NA,"2007-07-10",29
"GLP003","MI","107001493",30,NA,NA,NA,"MIEXAM","Microscopic Examination",NA,"NORMAL","NORMAL",NA,NA,NA,NA,"NERVE, OPTIC",NA,NA,NA,NA,"BILATERAL",NA,NA,NA,NA,"2007-07-10",29
"GLP003","MI","107001493",31,NA,NA,NA,"MIEXAM","Microscopic Examination",NA,"NORMAL","NORMAL",NA,NA,NA,NA,"PANCREAS",NA,NA,NA,NA,NA,NA,NA,NA,NA,"2007-07-10",29
"GLP003","MI","107001493",32,NA,NA,NA,"MIEXAM","Microscopic Examination",NA,"NORMAL","NORMAL",NA,NA,NA,NA,"GLAND, PARATHYROID",NA,NA,NA,NA,NA,NA,NA,NA,NA,"2007-07-10",29
"GLP003","MI","107001493",33,NA,NA,NA,"MIEXAM","Microscopic Examination",NA,"NORMAL","NORMAL",NA,NA,NA,NA,"GLAND, PITUITARY",NA,NA,NA,NA,NA,NA,NA,NA,NA,"2007-07-10",29
"GLP003","MI","107001493",34,NA,NA,NA,"MIEXAM","Microscopic Examination",NA,"PROSTATE GLAND:Inflammation: chronic, multifocal, grade 2","Inflammation",NA,NA,NA,NA,"GLAND, PROSTATE",NA,NA,NA,NA,NA,NA,NA,"MILD",NA,"2007-07-10",29
"GLP003","MI","107001493",35,NA,NA,NA,"MIEXAM","Microscopic Examination",NA,"NORMAL","NORMAL",NA,NA,NA,NA,"NERVE, SCIATIC",NA,NA,NA,NA,NA,NA,NA,NA,NA,"2007-07-10",29
"GLP003","MI","107001493",36,NA,NA,NA,"MIEXAM","Microscopic Examination",NA,"NORMAL","NORMAL",NA,NA,NA,NA,"GLAND, SEMINAL VESICLE",NA,NA,NA,NA,"BILATERAL",NA,NA,NA,NA,"2007-07-10",29
"GLP003","MI","107001493",37,NA,NA,NA,"MIEXAM","Microscopic Examination",NA,"NORMAL","NORMAL",NA,NA,NA,NA,"SKIN/SUBCUTIS",NA,NA,NA,NA,NA,NA,NA,NA,NA,"2007-07-10",29
"GLP003","MI","107001493",38,NA,NA,NA,"MIEXAM","Microscopic Examination",NA,"NORMAL","NORMAL",NA,NA,NA,NA,"SPINAL CORD",NA,NA,NA,NA,NA,NA,NA,NA,NA,"2007-07-10",29
"GLP003","MI","107001493",39,NA,NA,NA,"MIEXAM","Microscopic Examination",NA,"NORMAL","NORMAL",NA,NA,NA,NA,"SPLEEN",NA,NA,NA,NA,NA,NA,NA,NA,NA,"2007-07-10",29
"GLP003","MI","107001493",40,NA,NA,NA,"MIEXAM","Microscopic Examination",NA,"NORMAL","NORMAL",NA,NA,NA,NA,"STOMACH",NA,NA,NA,NA,NA,NA,NA,NA,NA,"2007-07-10",29
"GLP003","MI","107001493",41,NA,NA,NA,"MIEXAM","Microscopic Examination",NA,NA,NA,NA,"NOT DONE","Organ/tissue was not examined",NA,"SYSTEMIC NEOPLASMS",NA,NA,NA,NA,NA,NA,NA,NA,NA,"2007-07-10",29
"GLP003","MI","107001493",42,NA,NA,NA,"MIEXAM","Microscopic Examination",NA,"NORMAL","NORMAL",NA,NA,NA,NA,"TESTIS",NA,NA,NA,NA,"BILATERAL",NA,NA,NA,NA,"2007-07-10",29
"GLP003","MI","107001493",43,NA,NA,NA,"MIEXAM","Microscopic Examination",NA,"NORMAL","NORMAL",NA,NA,NA,NA,"THYMUS",NA,NA,NA,NA,NA,NA,NA,NA,NA,"2007-07-10",29
"GLP003","MI","107001493",44,NA,NA,NA,"MIEXAM","Microscopic Examination",NA,"NORMAL","NORMAL",NA,NA,NA,NA,"GLAND, THYROID",NA,NA,NA,NA,NA,NA,NA,NA,NA,"2007-07-10",29
"GLP003","MI","107001493",45,NA,NA,NA,"MIEXAM","Microscopic Examination",NA,"NORMAL","NORMAL",NA,NA,NA,NA,"TONGUE",NA,NA,NA,NA,NA,NA,NA,NA,NA,"2007-07-10",29
"GLP003","MI","107001493",46,NA,NA,NA,"MIEXAM","Microscopic Examination",NA,"NORMAL","NORMAL",NA,NA,NA,NA,"TRACHEA",NA,NA,NA,NA,NA,NA,NA,NA,NA,"2007-07-10",29
"GLP003","MI","107001493",47,NA,NA,NA,"MIEXAM","Microscopic Examination",NA,"NORMAL","NORMAL",NA,NA,NA,NA,"URINARY BLADDER",NA,NA,NA,NA,NA,NA,NA,NA,NA,"2007-07-10",29
"GLP003","MI","107001493",48,NA,NA,NA,"MIEXAM","Microscopic Examination",NA,NA,NA,NA,"NOT DONE","Organ/tissue was not examined",NA,"BONE MARROW SMEAR",NA,NA,NA,NA,NA,NA,NA,NA,NA,"2007-07-10",29
"GLP003","MI","107001427",50,NA,NA,NA,"MIEXAM","Microscopic Examination",NA,"NORMAL","NORMAL",NA,NA,NA,NA,"ADIPOSE TISSUE",NA,NA,NA,NA,NA,NA,NA,NA,NA,"2007-07-10",29
"GLP003","MI","107001427",51,NA,NA,NA,"MIEXAM","Microscopic Examination",NA,"NORMAL","NORMAL",NA,NA,NA,NA,"GLAND, ADRENAL",NA,NA,NA,NA,"BILATERAL",NA,NA,NA,NA,"2007-07-10",29
"GLP003","MI","107001427",52,NA,NA,NA,"MIEXAM","Microscopic Examination",NA,"NORMAL","NORMAL",NA,NA,NA,NA,"ARTERY, AORTA",NA,NA,NA,NA,NA,NA,NA,NA,NA,"2007-07-10",29
"GLP003","MI","107001427",53,NA,NA,NA,"MIEXAM","Microscopic Examination",NA,"NORMAL","NORMAL",NA,NA,NA,NA,"BONE MARROW, FEMUR",NA,NA,NA,NA,NA,NA,NA,NA,NA,"2007-07-10",29
"GLP003","MI","107001427",54,NA,NA,NA,"MIEXAM","Microscopic Examination",NA,"NORMAL","NORMAL",NA,NA,NA,NA,"BONE MARROW, STERNUM",NA,NA,NA,NA,NA,NA,NA,NA,NA,"2007-07-10",29
"GLP003","MI","107001427",55,NA,NA,NA,"MIEXAM","Microscopic Examination",NA,"NORMAL","NORMAL",NA,NA,NA,NA,"BONE, FEMUR",NA,NA,NA,NA,NA,NA,NA,NA,NA,"2007-07-10",29
"GLP003","MI","107001427",56,NA,NA,NA,"MIEXAM","Microscopic Examination",NA,"NORMAL","NORMAL",NA,NA,NA,NA,"BONE, STERNUM",NA,NA,NA,NA,NA,NA,NA,NA,NA,"2007-07-10",29
"GLP003","MI","107001427",57,NA,NA,NA,"MIEXAM","Microscopic Examination",NA,"NORMAL","NORMAL",NA,NA,NA,NA,"BRAIN",NA,NA,NA,NA,NA,NA,NA,NA,NA,"2007-07-10",29
"GLP003","MI","107001427",58,NA,NA,NA,"MIEXAM","Microscopic Examination",NA,"NORMAL","NORMAL",NA,NA,NA,NA,"ADIPOSE TISSUE, BROWN",NA,NA,NA,NA,NA,NA,NA,NA,NA,"2007-07-10",29
"GLP003","MI","107001427",59,NA,NA,NA,"MIEXAM","Microscopic Examination",NA,"NORMAL","NORMAL",NA,NA,NA,NA,"LARGE INTESTINE, CECUM",NA,NA,NA,NA,NA,NA,NA,NA,NA,"2007-07-10",29
"GLP003","MI","107001427",60,NA,NA,NA,"MIEXAM","Microscopic Examination",NA,"NORMAL","NORMAL",NA,NA,NA,NA,"LARGE INTESTINE, COLON",NA,NA,NA,NA,NA,NA,NA,NA,NA,"2007-07-10",29
"GLP003","MI","107001427",61,NA,NA,NA,"MIEXAM","Microscopic Examination",NA,"NORMAL","NORMAL",NA,NA,NA,NA,"MUSCLE, DIAPHRAGM",NA,NA,NA,NA,NA,NA,NA,NA,NA,"2007-07-10",29
"GLP003","MI","107001427",62,NA,NA,NA,"MIEXAM","Microscopic Examination",NA,"NORMAL","NORMAL",NA,NA,NA,NA,"SMALL INTESTINE, DUODENUM",NA,NA,NA,NA,NA,NA,NA,NA,NA,"2007-07-10",29
"GLP003","MI","107001427",63,NA,NA,NA,"MIEXAM","Microscopic Examination",NA,"NORMAL","NORMAL",NA,NA,NA,NA,"EPIDIDYMIS",NA,NA,NA,NA,"BILATERAL",NA,NA,NA,NA,"2007-07-10",29
"GLP003","MI","107001427",64,NA,NA,NA,"MIEXAM","Microscopic Examination",NA,"NORMAL","NORMAL",NA,NA,NA,NA,"ESOPHAGUS",NA,NA,NA,NA,NA,NA,NA,NA,NA,"2007-07-10",29
"GLP003","MI","107001427",65,NA,NA,NA,"MIEXAM","Microscopic Examination",NA,"NORMAL","NORMAL",NA,NA,NA,NA,"EYE",NA,NA,NA,NA,"BILATERAL",NA,NA,NA,NA,"2007-07-10",29
"GLP003","MI","107001427",66,NA,NA,NA,"MIEXAM","Microscopic Examination",NA,"NORMAL","NORMAL",NA,NA,NA,NA,"GLAND, HARDERIAN",NA,NA,NA,NA,"BILATERAL",NA,NA,NA,NA,"2007-07-10",29
"GLP003","MI","107001427",67,NA,NA,NA,"MIEXAM","Microscopic Examination",NA,"NORMAL","NORMAL",NA,NA,NA,NA,"HEART",NA,NA,NA,NA,NA,NA,NA,NA,NA,"2007-07-10",29
"GLP003","MI","107001427",68,NA,NA,NA,"MIEXAM","Microscopic Examination",NA,"NORMAL","NORMAL",NA,NA,NA,NA,"SMALL INTESTINE, ILEUM",NA,NA,NA,NA,NA,NA,NA,NA,NA,"2007-07-10",29
"GLP003","MI","107001427",69,NA,NA,NA,"MIEXAM","Microscopic Examination",NA,"NORMAL","NORMAL",NA,NA,NA,NA,"SMALL INTESTINE, JEJUNUM",NA,NA,NA,NA,NA,NA,NA,NA,NA,"2007-07-10",29
"GLP003","MI","107001427",70,NA,NA,NA,"MIEXAM","Microscopic Examination",NA,"NORMAL","NORMAL",NA,NA,NA,NA,"KIDNEY",NA,NA,NA,NA,"BILATERAL",NA,NA,NA,NA,"2007-07-10",29
"GLP003","MI","107001427",71,NA,NA,NA,"MIEXAM","Microscopic Examination",NA,"LIVER:Infiltration: mononuclear cell, multifocal, grade 1","Infiltration",NA,NA,NA,NA,"LIVER",NA,NA,NA,NA,NA,NA,NA,"MINIMAL",NA,"2007-07-10",29
"GLP003","MI","107001427",72,NA,NA,NA,"MIEXAM","Microscopic Examination",NA,"NORMAL","NORMAL",NA,NA,NA,NA,"LUNG",NA,NA,NA,NA,NA,NA,NA,NA,NA,"2007-07-10",29
"GLP003","MI","107001427",73,NA,NA,NA,"MIEXAM","Microscopic Examination",NA,"NORMAL","NORMAL",NA,NA,NA,NA,"MUSCLE, QUADRICEPS FEMORIS",NA,NA,NA,NA,NA,NA,NA,NA,NA,"2007-07-10",29
"GLP003","MI","107001427",74,NA,NA,NA,"MIEXAM","Microscopic Examination",NA,"NORMAL","NORMAL",NA,NA,NA,NA,"GLAND, MAMMARY",NA,NA,NA,NA,NA,NA,NA,NA,NA,"2007-07-10",29
"GLP003","MI","107001427",75,NA,NA,NA,"MIEXAM","Microscopic Examination",NA,"NORMAL","NORMAL",NA,NA,NA,NA,"LYMPH NODE, SUBMANDIBULAR",NA,NA,NA,NA,NA,NA,NA,NA,NA,"2007-07-10",29
"GLP003","MI","107001427",76,NA,NA,NA,"MIEXAM","Microscopic Examination",NA,"NORMAL","NORMAL",NA,NA,NA,NA,"GLAND, SALIVARY, SUBMANDIBULAR",NA,NA,NA,NA,NA,NA,NA,NA,NA,"2007-07-10",29
"GLP003","MI","107001427",77,NA,NA,NA,"MIEXAM","Microscopic Examination",NA,"NORMAL","NORMAL",NA,NA,NA,NA,"LYMPH NODE, MESENTERIC",NA,NA,NA,NA,NA,NA,NA,NA,NA,"2007-07-10",29
"GLP003","MI","107001427",78,NA,NA,NA,"MIEXAM","Microscopic Examination",NA,"NORMAL","NORMAL",NA,NA,NA,NA,"NERVE, OPTIC",NA,NA,NA,NA,"BILATERAL",NA,NA,NA,NA,"2007-07-10",29
"GLP003","MI","107001427",79,NA,NA,NA,"MIEXAM","Microscopic Examination",NA,"NORMAL","NORMAL",NA,NA,NA,NA,"PANCREAS",NA,NA,NA,NA,NA,NA,NA,NA,NA,"2007-07-10",29
"GLP003","MI","107001427",80,NA,NA,NA,"MIEXAM","Microscopic Examination",NA,"NORMAL","NORMAL",NA,NA,NA,NA,"GLAND, PARATHYROID",NA,NA,NA,NA,NA,NA,NA,NA,NA,"2007-07-10",29
"GLP003","MI","107001427",81,NA,NA,NA,"MIEXAM","Microscopic Examination",NA,"NORMAL","NORMAL",NA,NA,NA,NA,"GLAND, PITUITARY",NA,NA,NA,NA,NA,NA,NA,NA,NA,"2007-07-10",29
"GLP003","MI","107001427",82,NA,NA,NA,"MIEXAM","Microscopic Examination",NA,"PROSTATE GLAND:Infiltration: mononuclear cell, multifocal, grade 1","Infiltration",NA,NA,NA,NA,"GLAND, PROSTATE",NA,NA,NA,NA,NA,NA,NA,"MINIMAL",NA,"2007-07-10",29
"GLP003","MI","107001427",83,NA,NA,NA,"MIEXAM","Microscopic Examination",NA,"NORMAL","NORMAL",NA,NA,NA,NA,"NERVE, SCIATIC",NA,NA,NA,NA,NA,NA,NA,NA,NA,"2007-07-10",29
"GLP003","MI","107001427",84,NA,NA,NA,"MIEXAM","Microscopic Examination",NA,"NORMAL","NORMAL",NA,NA,NA,NA,"GLAND, SEMINAL VESICLE",NA,NA,NA,NA,"BILATERAL",NA,NA,NA,NA,"2007-07-10",29
"GLP003","MI","107001427",85,NA,NA,NA,"MIEXAM","Microscopic Examination",NA,"NORMAL","NORMAL",NA,NA,NA,NA,"SKIN/SUBCUTIS",NA,NA,NA,NA,NA,NA,NA,NA,NA,"2007-07-10",29
"GLP003","MI","107001427",86,NA,NA,NA,"MIEXAM","Microscopic Examination",NA,"NORMAL","NORMAL",NA,NA,NA,NA,"SPINAL CORD",NA,NA,NA,NA,NA,NA,NA,NA,NA,"2007-07-10",29
"GLP003","MI","107001427",87,NA,NA,NA,"MIEXAM","Microscopic Examination",NA,"NORMAL","NORMAL",NA,NA,NA,NA,"SPLEEN",NA,NA,NA,NA,NA,NA,NA,NA,NA,"2007-07-10",29
"GLP003","MI","107001427",88,NA,NA,NA,"MIEXAM","Microscopic Examination",NA,"NORMAL","NORMAL",NA,NA,NA,NA,"STOMACH",NA,NA,NA,NA,NA,NA,NA,NA,NA,"2007-07-10",29
"GLP003","MI","107001427",89,NA,NA,NA,"MIEXAM","Microscopic Examination",NA,NA,NA,NA,"NOT DONE","Organ/tissue was not examined",NA,"SYSTEMIC NEOPLASMS",NA,NA,NA,NA,NA,NA,NA,NA,NA,"2007-07-10",29
"GLP003","MI","107001427",90,NA,NA,NA,"MIEXAM","Microscopic Examination",NA,"NORMAL","NORMAL",NA,NA,NA,NA,"TESTIS",NA,NA,NA,NA,"BILATERAL",NA,NA,NA,NA,"2007-07-10",29
"GLP003","MI","107001427",91,NA,NA,NA,"MIEXAM","Microscopic Examination",NA,"NORMAL","NORMAL",NA,NA,NA,NA,"THYMUS",NA,NA,NA,NA,NA,NA,NA,NA,NA,"2007-07-10",29
"GLP003","MI","107001427",92,NA,NA,NA,"MIEXAM","Microscopic Examination",NA,"NORMAL","NORMAL",NA,NA,NA,NA,"GLAND, THYROID",NA,NA,NA,NA,NA,NA,NA,NA,NA,"2007-07-10",29
"GLP003","MI","107001427",93,NA,NA,NA,"MIEXAM","Microscopic Examination",NA,"NORMAL","NORMAL",NA,NA,NA,NA,"TONGUE",NA,NA,NA,NA,NA,NA,NA,NA,NA,"2007-07-10",29
"GLP003","MI","107001427",94,NA,NA,NA,"MIEXAM","Microscopic Examination",NA,"NORMAL","NORMAL",NA,NA,NA,NA,"TRACHEA",NA,NA,NA,NA,NA,NA,NA,NA,NA,"2007-07-10",29
"GLP003","MI","107001427",95,NA,NA,NA,"MIEXAM","Microscopic Examination",NA,"NORMAL","NORMAL",NA,NA,NA,NA,"URINARY BLADDER",NA,NA,NA,NA,NA,NA,NA,NA,NA,"2007-07-10",29
"GLP003","MI","107001427",96,NA,NA,NA,"MIEXAM","Microscopic Examination",NA,NA,NA,NA,"NOT DONE","Organ/tissue was not examined",NA,"BONE MARROW SMEAR",NA,NA,NA,NA,NA,NA,NA,NA,NA,"2007-07-10",29
"GLP003","MI","107001458",98,NA,NA,NA,"MIEXAM","Microscopic Examination",NA,"NORMAL","NORMAL",NA,NA,NA,NA,"ADIPOSE TISSUE",NA,NA,NA,NA,NA,NA,NA,NA,NA,"2007-07-10",29
"GLP003","MI","107001458",99,NA,NA,NA,"MIEXAM","Microscopic Examination",NA,"NORMAL","NORMAL",NA,NA,NA,NA,"GLAND, ADRENAL",NA,NA,NA,NA,"BILATERAL",NA,NA,NA,NA,"2007-07-10",29
"GLP003","MI","107001458",100,NA,NA,NA,"MIEXAM","Microscopic Examination",NA,"NORMAL","NORMAL",NA,NA,NA,NA,"ARTERY, AORTA",NA,NA,NA,NA,NA,NA,NA,NA,NA,"2007-07-10",29
"GLP003","MI","107001458",101,NA,NA,NA,"MIEXAM","Microscopic Examination",NA,"NORMAL","NORMAL",NA,NA,NA,NA,"BONE MARROW, FEMUR",NA,NA,NA,NA,NA,NA,NA,NA,NA,"2007-07-10",29
"GLP003","MI","107001458",102,NA,NA,NA,"MIEXAM","Microscopic Examination",NA,"NORMAL","NORMAL",NA,NA,NA,NA,"BONE MARROW, STERNUM",NA,NA,NA,NA,NA,NA,NA,NA,NA,"2007-07-10",29
"GLP003","MI","107001458",103,NA,NA,NA,"MIEXAM","Microscopic Examination",NA,"NORMAL","NORMAL",NA,NA,NA,NA,"BONE, FEMUR",NA,NA,NA,NA,NA,NA,NA,NA,NA,"2007-07-10",29
"GLP003","MI","107001458",104,NA,NA,NA,"MIEXAM","Microscopic Examination",NA,"NORMAL","NORMAL",NA,NA,NA,NA,"BONE, STERNUM",NA,NA,NA,NA,NA,NA,NA,NA,NA,"2007-07-10",29
"GLP003","MI","107001458",105,NA,NA,NA,"MIEXAM","Microscopic Examination",NA,"NORMAL","NORMAL",NA,NA,NA,NA,"BRAIN",NA,NA,NA,NA,NA,NA,NA,NA,NA,"2007-07-10",29
"GLP003","MI","107001458",106,NA,NA,NA,"MIEXAM","Microscopic Examination",NA,"NORMAL","NORMAL",NA,NA,NA,NA,"ADIPOSE TISSUE, BROWN",NA,NA,NA,NA,NA,NA,NA,NA,NA,"2007-07-10",29
"GLP003","MI","107001458",107,NA,NA,NA,"MIEXAM","Microscopic Examination",NA,"NORMAL","NORMAL",NA,NA,NA,NA,"LARGE INTESTINE, CECUM",NA,NA,NA,NA,NA,NA,NA,NA,NA,"2007-07-10",29
"GLP003","MI","107001458",108,NA,NA,NA,"MIEXAM","Microscopic Examination",NA,"NORMAL","NORMAL",NA,NA,NA,NA,"LARGE INTESTINE, COLON",NA,NA,NA,NA,NA,NA,NA,NA,NA,"2007-07-10",29
"GLP003","MI","107001458",109,NA,NA,NA,"MIEXAM","Microscopic Examination",NA,"NORMAL","NORMAL",NA,NA,NA,NA,"MUSCLE, DIAPHRAGM",NA,NA,NA,NA,NA,NA,NA,NA,NA,"2007-07-10",29
"GLP003","MI","107001458",110,NA,NA,NA,"MIEXAM","Microscopic Examination",NA,"NORMAL","NORMAL",NA,NA,NA,NA,"SMALL INTESTINE, DUODENUM",NA,NA,NA,NA,NA,NA,NA,NA,NA,"2007-07-10",29
"GLP003","MI","107001458",111,NA,NA,NA,"MIEXAM","Microscopic Examination",NA,"NORMAL","NORMAL",NA,NA,NA,NA,"EPIDIDYMIS",NA,NA,NA,NA,"BILATERAL",NA,NA,NA,NA,"2007-07-10",29
"GLP003","MI","107001458",112,NA,NA,NA,"MIEXAM","Microscopic Examination",NA,"NORMAL","NORMAL",NA,NA,NA,NA,"ESOPHAGUS",NA,NA,NA,NA,NA,NA,NA,NA,NA,"2007-07-10",29
"GLP003","MI","107001458",113,NA,NA,NA,"MIEXAM","Microscopic Examination",NA,"NORMAL","NORMAL",NA,NA,NA,NA,"EYE",NA,NA,NA,NA,"BILATERAL",NA,NA,NA,NA,"2007-07-10",29
"GLP003","MI","107001458",114,NA,NA,NA,"MIEXAM","Microscopic Examination",NA,"NORMAL","NORMAL",NA,NA,NA,NA,"GLAND, HARDERIAN",NA,NA,NA,NA,"BILATERAL",NA,NA,NA,NA,"2007-07-10",29
"GLP003","MI","107001458",115,NA,NA,NA,"MIEXAM","Microscopic Examination",NA,"NORMAL","NORMAL",NA,NA,NA,NA,"HEART",NA,NA,NA,NA,NA,NA,NA,NA,NA,"2007-07-10",29
"GLP003","MI","107001458",116,NA,NA,NA,"MIEXAM","Microscopic Examination",NA,"NORMAL","NORMAL",NA,NA,NA,NA,"SMALL INTESTINE, ILEUM",NA,NA,NA,NA,NA,NA,NA,NA,NA,"2007-07-10",29
"GLP003","MI","107001458",117,NA,NA,NA,"MIEXAM","Microscopic Examination",NA,"NORMAL","NORMAL",NA,NA,NA,NA,"SMALL INTESTINE, JEJUNUM",NA,NA,NA,NA,NA,NA,NA,NA,NA,"2007-07-10",29
"GLP003","MI","107001458",118,NA,NA,NA,"MIEXAM","Microscopic Examination",NA,"NORMAL","NORMAL",NA,NA,NA,NA,"KIDNEY",NA,NA,NA,NA,"BILATERAL",NA,NA,NA,NA,"2007-07-10",29
"GLP003","MI","107001458",119,NA,NA,NA,"MIEXAM","Microscopic Examination",NA,"LIVER:Infiltration: mononuclear cell, multifocal, grade 1","Infiltration",NA,NA,NA,NA,"LIVER",NA,NA,NA,NA,NA,NA,NA,"MINIMAL",NA,"2007-07-10",29
"GLP003","MI","107001458",120,NA,NA,NA,"MIEXAM","Microscopic Examination",NA,"NORMAL","NORMAL",NA,NA,NA,NA,"LUNG",NA,NA,NA,NA,NA,NA,NA,NA,NA,"2007-07-10",29
"GLP003","MI","107001458",121,NA,NA,NA,"MIEXAM","Microscopic Examination",NA,"SKELETAL MUSCLE, QUADRICEPS FEMORIS:Degeneration: skeletal muscle cell, focal, grade 1","Degeneration",NA,NA,NA,NA,"MUSCLE, QUADRICEPS FEMORIS",NA,NA,NA,NA,NA,NA,NA,"MINIMAL",NA,"2007-07-10",29
"GLP003","MI","107001458",122,NA,NA,NA,"MIEXAM","Microscopic Examination",NA,"NORMAL","NORMAL",NA,NA,NA,NA,"GLAND, MAMMARY",NA,NA,NA,NA,NA,NA,NA,NA,NA,"2007-07-10",29
"GLP003","MI","107001458",123,NA,NA,NA,"MIEXAM","Microscopic Examination",NA,"NORMAL","NORMAL",NA,NA,NA,NA,"LYMPH NODE, SUBMANDIBULAR",NA,NA,NA,NA,NA,NA,NA,NA,NA,"2007-07-10",29
"GLP003","MI","107001458",124,NA,NA,NA,"MIEXAM","Microscopic Examination",NA,"NORMAL","NORMAL",NA,NA,NA,NA,"GLAND, SALIVARY, SUBMANDIBULAR",NA,NA,NA,NA,NA,NA,NA,NA,NA,"2007-07-10",29
"GLP003","MI","107001458",125,NA,NA,NA,"MIEXAM","Microscopic Examination",NA,"NORMAL","NORMAL",NA,NA,NA,NA,"LYMPH NODE, MESENTERIC",NA,NA,NA,NA,NA,NA,NA,NA,NA,"2007-07-10",29
"GLP003","MI","107001458",126,NA,NA,NA,"MIEXAM","Microscopic Examination",NA,"NORMAL","NORMAL",NA,NA,NA,NA,"NERVE, OPTIC",NA,NA,NA,NA,"BILATERAL",NA,NA,NA,NA,"2007-07-10",29
"GLP003","MI","107001458",127,NA,NA,NA,"MIEXAM","Microscopic Examination",NA,"NORMAL","NORMAL",NA,NA,NA,NA,"PANCREAS",NA,NA,NA,NA,NA,NA,NA,NA,NA,"2007-07-10",29
"GLP003","MI","107001458",128,NA,NA,NA,"MIEXAM","Microscopic Examination",NA,"NORMAL","NORMAL",NA,NA,NA,NA,"GLAND, PARATHYROID",NA,NA,NA,NA,NA,NA,NA,NA,NA,"2007-07-10",29
"GLP003","MI","107001458",129,NA,NA,NA,"MIEXAM","Microscopic Examination",NA,"NORMAL","NORMAL",NA,NA,NA,NA,"GLAND, PITUITARY",NA,NA,NA,NA,NA,NA,NA,NA,NA,"2007-07-10",29
"GLP003","MI","107001458",130,NA,NA,NA,"MIEXAM","Microscopic Examination",NA,"NORMAL","NORMAL",NA,NA,NA,NA,"GLAND, PROSTATE",NA,NA,NA,NA,NA,NA,NA,NA,NA,"2007-07-10",29
"GLP003","MI","107001458",131,NA,NA,NA,"MIEXAM","Microscopic Examination",NA,"NORMAL","NORMAL",NA,NA,NA,NA,"NERVE, SCIATIC",NA,NA,NA,NA,NA,NA,NA,NA,NA,"2007-07-10",29
"GLP003","MI","107001458",132,NA,NA,NA,"MIEXAM","Microscopic Examination",NA,"NORMAL","NORMAL",NA,NA,NA,NA,"GLAND, SEMINAL VESICLE",NA,NA,NA,NA,"BILATERAL",NA,NA,NA,NA,"2007-07-10",29
"GLP003","MI","107001458",133,NA,NA,NA,"MIEXAM","Microscopic Examination",NA,"NORMAL","NORMAL",NA,NA,NA,NA,"SKIN/SUBCUTIS",NA,NA,NA,NA,NA,NA,NA,NA,NA,"2007-07-10",29
"GLP003","MI","107001458",134,NA,NA,NA,"MIEXAM","Microscopic Examination",NA,"NORMAL","NORMAL",NA,NA,NA,NA,"SPINAL CORD",NA,NA,NA,NA,NA,NA,NA,NA,NA,"2007-07-10",29
"GLP003","MI","107001458",135,NA,NA,NA,"MIEXAM","Microscopic Examination",NA,"NORMAL","NORMAL",NA,NA,NA,NA,"SPLEEN",NA,NA,NA,NA,NA,NA,NA,NA,NA,"2007-07-10",29
"GLP003","MI","107001458",136,NA,NA,NA,"MIEXAM","Microscopic Examination",NA,"NORMAL","NORMAL",NA,NA,NA,NA,"STOMACH",NA,NA,NA,NA,NA,NA,NA,NA,NA,"2007-07-10",29
"GLP003","MI","107001458",137,NA,NA,NA,"MIEXAM","Microscopic Examination",NA,NA,NA,NA,"NOT DONE","Organ/tissue was not examined",NA,"SYSTEMIC NEOPLASMS",NA,NA,NA,NA,NA,NA,NA,NA,NA,"2007-07-10",29
"GLP003","MI","107001458",138,NA,NA,NA,"MIEXAM","Microscopic Examination",NA,"NORMAL","NORMAL",NA,NA,NA,NA,"TESTIS",NA,NA,NA,NA,"BILATERAL",NA,NA,NA,NA,"2007-07-10",29
"GLP003","MI","107001458",139,NA,NA,NA,"MIEXAM","Microscopic Examination",NA,"NORMAL","NORMAL",NA,NA,NA,NA,"THYMUS",NA,NA,NA,NA,NA,NA,NA,NA,NA,"2007-07-10",29
"GLP003","MI","107001458",140,NA,NA,NA,"MIEXAM","Microscopic Examination",NA,"NORMAL","NORMAL",NA,NA,NA,NA,"GLAND, THYROID",NA,NA,NA,NA,NA,NA,NA,NA,NA,"2007-07-10",29
"GLP003","MI","107001458",141,NA,NA,NA,"MIEXAM","Microscopic Examination",NA,"NORMAL","NORMAL",NA,NA,NA,NA,"TONGUE",NA,NA,NA,NA,NA,NA,NA,NA,NA,"2007-07-10",29
"GLP003","MI","107001458",142,NA,NA,NA,"MIEXAM","Microscopic Examination",NA,"NORMAL","NORMAL",NA,NA,NA,NA,"TRACHEA",NA,NA,NA,NA,NA,NA,NA,NA,NA,"2007-07-10",29
"GLP003","MI","107001458",143,NA,NA,NA,"MIEXAM","Microscopic Examination",NA,"NORMAL","NORMAL",NA,NA,NA,NA,"URINARY BLADDER",NA,NA,NA,NA,NA,NA,NA,NA,NA,"2007-07-10",29
"GLP003","MI","107001458",144,NA,NA,NA,"MIEXAM","Microscopic Examination",NA,NA,NA,NA,"NOT DONE","Organ/tissue was not examined",NA,"BONE MARROW SMEAR",NA,NA,NA,NA,NA,NA,NA,NA,NA,"2007-07-10",29
"GLP003","MI","107001389",146,NA,NA,NA,"MIEXAM","Microscopic Examination",NA,"NORMAL","NORMAL",NA,NA,NA,NA,"ADIPOSE TISSUE",NA,NA,NA,NA,NA,NA,NA,NA,NA,"2007-07-10",29
"GLP003","MI","107001389",147,NA,NA,NA,"MIEXAM","Microscopic Examination",NA,"NORMAL","NORMAL",NA,NA,NA,NA,"GLAND, ADRENAL",NA,NA,NA,NA,"BILATERAL",NA,NA,NA,NA,"2007-07-10",29
"GLP003","MI","107001389",148,NA,NA,NA,"MIEXAM","Microscopic Examination",NA,"NORMAL","NORMAL",NA,NA,NA,NA,"ARTERY, AORTA",NA,NA,NA,NA,NA,NA,NA,NA,NA,"2007-07-10",29
"GLP003","MI","107001389",149,NA,NA,NA,"MIEXAM","Microscopic Examination",NA,"NORMAL","NORMAL",NA,NA,NA,NA,"BONE MARROW, FEMUR",NA,NA,NA,NA,NA,NA,NA,NA,NA,"2007-07-10",29
"GLP003","MI","107001389",150,NA,NA,NA,"MIEXAM","Microscopic Examination",NA,"NORMAL","NORMAL",NA,NA,NA,NA,"BONE MARROW, STERNUM",NA,NA,NA,NA,NA,NA,NA,NA,NA,"2007-07-10",29
"GLP003","MI","107001389",151,NA,NA,NA,"MIEXAM","Microscopic Examination",NA,"NORMAL","NORMAL",NA,NA,NA,NA,"BONE, FEMUR",NA,NA,NA,NA,NA,NA,NA,NA,NA,"2007-07-10",29
"GLP003","MI","107001389",152,NA,NA,NA,"MIEXAM","Microscopic Examination",NA,"NORMAL","NORMAL",NA,NA,NA,NA,"BONE, STERNUM",NA,NA,NA,NA,NA,NA,NA,NA,NA,"2007-07-10",29
"GLP003","MI","107001389",153,NA,NA,NA,"MIEXAM","Microscopic Examination",NA,"NORMAL","NORMAL",NA,NA,NA,NA,"BRAIN",NA,NA,NA,NA,NA,NA,NA,NA,NA,"2007-07-10",29
"GLP003","MI","107001389",154,NA,NA,NA,"MIEXAM","Microscopic Examination",NA,"NORMAL","NORMAL",NA,NA,NA,NA,"ADIPOSE TISSUE, BROWN",NA,NA,NA,NA,NA,NA,NA,NA,NA,"2007-07-10",29
"GLP003","MI","107001389",155,NA,NA,NA,"MIEXAM","Microscopic Examination",NA,"NORMAL","NORMAL",NA,NA,NA,NA,"LARGE INTESTINE, CECUM",NA,NA,NA,NA,NA,NA,NA,NA,NA,"2007-07-10",29
"GLP003","MI","107001389",156,NA,NA,NA,"MIEXAM","Microscopic Examination",NA,"NORMAL","NORMAL",NA,NA,NA,NA,"LARGE INTESTINE, COLON",NA,NA,NA,NA,NA,NA,NA,NA,NA,"2007-07-10",29
"GLP003","MI","107001389",157,NA,NA,NA,"MIEXAM","Microscopic Examination",NA,"NORMAL","NORMAL",NA,NA,NA,NA,"MUSCLE, DIAPHRAGM",NA,NA,NA,NA,NA,NA,NA,NA,NA,"2007-07-10",29
"GLP003","MI","107001389",158,NA,NA,NA,"MIEXAM","Microscopic Examination",NA,"NORMAL","NORMAL",NA,NA,NA,NA,"SMALL INTESTINE, DUODENUM",NA,NA,NA,NA,NA,NA,NA,NA,NA,"2007-07-10",29
"GLP003","MI","107001389",159,NA,NA,NA,"MIEXAM","Microscopic Examination",NA,"NORMAL","NORMAL",NA,NA,NA,NA,"EPIDIDYMIS",NA,NA,NA,NA,"BILATERAL",NA,NA,NA,NA,"2007-07-10",29
"GLP003","MI","107001389",160,NA,NA,NA,"MIEXAM","Microscopic Examination",NA,"NORMAL","NORMAL",NA,NA,NA,NA,"ESOPHAGUS",NA,NA,NA,NA,NA,NA,NA,NA,NA,"2007-07-10",29
"GLP003","MI","107001389",161,NA,NA,NA,"MIEXAM","Microscopic Examination",NA,"NORMAL","NORMAL",NA,NA,NA,NA,"EYE",NA,NA,NA,NA,"BILATERAL",NA,NA,NA,NA,"2007-07-10",29
"GLP003","MI","107001389",162,NA,NA,NA,"MIEXAM","Microscopic Examination",NA,"NORMAL","NORMAL",NA,NA,NA,NA,"GLAND, HARDERIAN",NA,NA,NA,NA,"BILATERAL",NA,NA,NA,NA,"2007-07-10",29
"GLP003","MI","107001389",163,NA,NA,NA,"MIEXAM","Microscopic Examination",NA,"NORMAL","NORMAL",NA,NA,NA,NA,"HEART",NA,NA,NA,NA,NA,NA,NA,NA,NA,"2007-07-10",29
"GLP003","MI","107001389",164,NA,NA,NA,"MIEXAM","Microscopic Examination",NA,"NORMAL","NORMAL",NA,NA,NA,NA,"SMALL INTESTINE, ILEUM",NA,NA,NA,NA,NA,NA,NA,NA,NA,"2007-07-10",29
"GLP003","MI","107001389",165,NA,NA,NA,"MIEXAM","Microscopic Examination",NA,"NORMAL","NORMAL",NA,NA,NA,NA,"SMALL INTESTINE, JEJUNUM",NA,NA,NA,NA,NA,NA,NA,NA,NA,"2007-07-10",29
"GLP003","MI","107001389",166,NA,NA,NA,"MIEXAM","Microscopic Examination",NA,"NORMAL","NORMAL",NA,NA,NA,NA,"KIDNEY",NA,NA,NA,NA,"BILATERAL",NA,NA,NA,NA,"2007-07-10",29
"GLP003","MI","107001389",167,NA,NA,NA,"MIEXAM","Microscopic Examination",NA,"LIVER:Infiltration: mononuclear cell, multifocal, grade 1","Infiltration",NA,NA,NA,NA,"LIVER",NA,NA,NA,NA,NA,NA,NA,"MINIMAL",NA,"2007-07-10",29
"GLP003","MI","107001389",168,NA,NA,NA,"MIEXAM","Microscopic Examination",NA,"NORMAL","NORMAL",NA,NA,NA,NA,"LUNG",NA,NA,NA,NA,NA,NA,NA,NA,NA,"2007-07-10",29
"GLP003","MI","107001389",169,NA,NA,NA,"MIEXAM","Microscopic Examination",NA,"NORMAL","NORMAL",NA,NA,NA,NA,"MUSCLE, QUADRICEPS FEMORIS",NA,NA,NA,NA,NA,NA,NA,NA,NA,"2007-07-10",29
"GLP003","MI","107001389",170,NA,NA,NA,"MIEXAM","Microscopic Examination",NA,NA,NA,NA,"NOT DONE","Organ/tissue was not examined",NA,"GLAND, MAMMARY",NA,NA,NA,NA,NA,NA,NA,NA,NA,"2007-07-10",29
"GLP003","MI","107001389",171,NA,NA,NA,"MIEXAM","Microscopic Examination",NA,"NORMAL","NORMAL",NA,NA,NA,NA,"LYMPH NODE, SUBMANDIBULAR",NA,NA,NA,NA,NA,NA,NA,NA,NA,"2007-07-10",29
"GLP003","MI","107001389",172,NA,NA,NA,"MIEXAM","Microscopic Examination",NA,"NORMAL","NORMAL",NA,NA,NA,NA,"GLAND, SALIVARY, SUBMANDIBULAR",NA,NA,NA,NA,NA,NA,NA,NA,NA,"2007-07-10",29
"GLP003","MI","107001389",173,NA,NA,NA,"MIEXAM","Microscopic Examination",NA,"NORMAL","NORMAL",NA,NA,NA,NA,"LYMPH NODE, MESENTERIC",NA,NA,NA,NA,NA,NA,NA,NA,NA,"2007-07-10",29
"GLP003","MI","107001389",174,NA,NA,NA,"MIEXAM","Microscopic Examination",NA,"NORMAL","NORMAL",NA,NA,NA,NA,"NERVE, OPTIC",NA,NA,NA,NA,"BILATERAL",NA,NA,NA,NA,"2007-07-10",29
"GLP003","MI","107001389",175,NA,NA,NA,"MIEXAM","Microscopic Examination",NA,"NORMAL","NORMAL",NA,NA,NA,NA,"PANCREAS",NA,NA,NA,NA,NA,NA,NA,NA,NA,"2007-07-10",29
"GLP003","MI","107001389",176,NA,NA,NA,"MIEXAM","Microscopic Examination",NA,"NORMAL","NORMAL",NA,NA,NA,NA,"GLAND, PARATHYROID",NA,NA,NA,NA,NA,NA,NA,NA,NA,"2007-07-10",29
"GLP003","MI","107001389",177,NA,NA,NA,"MIEXAM","Microscopic Examination",NA,"NORMAL","NORMAL",NA,NA,NA,NA,"GLAND, PITUITARY",NA,NA,NA,NA,NA,NA,NA,NA,NA,"2007-07-10",29
"GLP003","MI","107001389",178,NA,NA,NA,"MIEXAM","Microscopic Examination",NA,"PROSTATE GLAND:Inflammation: chronic, multifocal, grade 1","Inflammation",NA,NA,NA,NA,"GLAND, PROSTATE",NA,NA,NA,NA,NA,NA,NA,"MINIMAL",NA,"2007-07-10",29
"GLP003","MI","107001389",179,NA,NA,NA,"MIEXAM","Microscopic Examination",NA,"NORMAL","NORMAL",NA,NA,NA,NA,"NERVE, SCIATIC",NA,NA,NA,NA,NA,NA,NA,NA,NA,"2007-07-10",29
"GLP003","MI","107001389",180,NA,NA,NA,"MIEXAM","Microscopic Examination",NA,"NORMAL","NORMAL",NA,NA,NA,NA,"GLAND, SEMINAL VESICLE",NA,NA,NA,NA,"BILATERAL",NA,NA,NA,NA,"2007-07-10",29
"GLP003","MI","107001389",181,NA,NA,NA,"MIEXAM","Microscopic Examination",NA,"NORMAL","NORMAL",NA,NA,NA,NA,"SKIN/SUBCUTIS",NA,NA,NA,NA,NA,NA,NA,NA,NA,"2007-07-10",29
"GLP003","MI","107001389",182,NA,NA,NA,"MIEXAM","Microscopic Examination",NA,"NORMAL","NORMAL",NA,NA,NA,NA,"SPINAL CORD",NA,NA,NA,NA,NA,NA,NA,NA,NA,"2007-07-10",29
"GLP003","MI","107001389",183,NA,NA,NA,"MIEXAM","Microscopic Examination",NA,"NORMAL","NORMAL",NA,NA,NA,NA,"SPLEEN",NA,NA,NA,NA,NA,NA,NA,NA,NA,"2007-07-10",29
"GLP003","MI","107001389",184,NA,NA,NA,"MIEXAM","Microscopic Examination",NA,"NORMAL","NORMAL",NA,NA,NA,NA,"STOMACH",NA,NA,NA,NA,NA,NA,NA,NA,NA,"2007-07-10",29
"GLP003","MI","107001389",185,NA,NA,NA,"MIEXAM","Microscopic Examination",NA,NA,NA,NA,"NOT DONE","Organ/tissue was not examined",NA,"SYSTEMIC NEOPLASMS",NA,NA,NA,NA,NA,NA,NA,NA,NA,"2007-07-10",29
"GLP003","MI","107001389",186,NA,NA,NA,"MIEXAM","Microscopic Examination",NA,"NORMAL","NORMAL",NA,NA,NA,NA,"TESTIS",NA,NA,NA,NA,"BILATERAL",NA,NA,NA,NA,"2007-07-10",29
"GLP003","MI","107001389",187,NA,NA,NA,"MIEXAM","Microscopic Examination",NA,"NORMAL","NORMAL",NA,NA,NA,NA,"THYMUS",NA,NA,NA,NA,NA,NA,NA,NA,NA,"2007-07-10",29
"GLP003","MI","107001389",188,NA,NA,NA,"MIEXAM","Microscopic Examination",NA,"NORMAL","NORMAL",NA,NA,NA,NA,"GLAND, THYROID",NA,NA,NA,NA,NA,NA,NA,NA,NA,"2007-07-10",29
"GLP003","MI","107001389",189,NA,NA,NA,"MIEXAM","Microscopic Examination",NA,"NORMAL","NORMAL",NA,NA,NA,NA,"TONGUE",NA,NA,NA,NA,NA,NA,NA,NA,NA,"2007-07-10",29
"GLP003","MI","107001389",190,NA,NA,NA,"MIEXAM","Microscopic Examination",NA,"NORMAL","NORMAL",NA,NA,NA,NA,"TRACHEA",NA,NA,NA,NA,NA,NA,NA,NA,NA,"2007-07-10",29
"GLP003","MI","107001389",191,NA,NA,NA,"MIEXAM","Microscopic Examination",NA,"NORMAL","NORMAL",NA,NA,NA,NA,"URINARY BLADDER",NA,NA,NA,NA,NA,NA,NA,NA,NA,"2007-07-10",29
"GLP003","MI","107001389",192,NA,NA,NA,"MIEXAM","Microscopic Examination",NA,NA,NA,NA,"NOT DONE","Organ/tissue was not examined",NA,"BONE MARROW SMEAR",NA,NA,NA,NA,NA,NA,NA,NA,NA,"2007-07-10",29
"GLP003","MI","107001377",194,NA,NA,NA,"MIEXAM","Microscopic Examination",NA,"NORMAL","NORMAL",NA,NA,NA,NA,"ADIPOSE TISSUE",NA,NA,NA,NA,NA,NA,NA,NA,NA,"2007-07-10",29
"GLP003","MI","107001377",195,NA,NA,NA,"MIEXAM","Microscopic Examination",NA,"NORMAL","NORMAL",NA,NA,NA,NA,"GLAND, ADRENAL",NA,NA,NA,NA,"BILATERAL",NA,NA,NA,NA,"2007-07-10",29
"GLP003","MI","107001377",196,NA,NA,NA,"MIEXAM","Microscopic Examination",NA,"NORMAL","NORMAL",NA,NA,NA,NA,"ARTERY, AORTA",NA,NA,NA,NA,NA,NA,NA,NA,NA,"2007-07-10",29
"GLP003","MI","107001377",197,NA,NA,NA,"MIEXAM","Microscopic Examination",NA,"NORMAL","NORMAL",NA,NA,NA,NA,"BONE MARROW, FEMUR",NA,NA,NA,NA,NA,NA,NA,NA,NA,"2007-07-10",29
"GLP003","MI","107001377",198,NA,NA,NA,"MIEXAM","Microscopic Examination",NA,"NORMAL","NORMAL",NA,NA,NA,NA,"BONE MARROW, STERNUM",NA,NA,NA,NA,NA,NA,NA,NA,NA,"2007-07-10",29
"GLP003","MI","107001377",199,NA,NA,NA,"MIEXAM","Microscopic Examination",NA,"NORMAL","NORMAL",NA,NA,NA,NA,"BONE, FEMUR",NA,NA,NA,NA,NA,NA,NA,NA,NA,"2007-07-10",29
"GLP003","MI","107001377",200,NA,NA,NA,"MIEXAM","Microscopic Examination",NA,"NORMAL","NORMAL",NA,NA,NA,NA,"BONE, STERNUM",NA,NA,NA,NA,NA,NA,NA,NA,NA,"2007-07-10",29
"GLP003","MI","107001377",201,NA,NA,NA,"MIEXAM","Microscopic Examination",NA,"NORMAL","NORMAL",NA,NA,NA,NA,"BRAIN",NA,NA,NA,NA,NA,NA,NA,NA,NA,"2007-07-10",29
"GLP003","MI","107001377",202,NA,NA,NA,"MIEXAM","Microscopic Examination",NA,"NORMAL","NORMAL",NA,NA,NA,NA,"ADIPOSE TISSUE, BROWN",NA,NA,NA,NA,NA,NA,NA,NA,NA,"2007-07-10",29
"GLP003","MI","107001377",203,NA,NA,NA,"MIEXAM","Microscopic Examination",NA,"NORMAL","NORMAL",NA,NA,NA,NA,"LARGE INTESTINE, CECUM",NA,NA,NA,NA,NA,NA,NA,NA,NA,"2007-07-10",29
"GLP003","MI","107001377",204,NA,NA,NA,"MIEXAM","Microscopic Examination",NA,"NORMAL","NORMAL",NA,NA,NA,NA,"LARGE INTESTINE, COLON",NA,NA,NA,NA,NA,NA,NA,NA,NA,"2007-07-10",29
"GLP003","MI","107001377",205,NA,NA,NA,"MIEXAM","Microscopic Examination",NA,"NORMAL","NORMAL",NA,NA,NA,NA,"MUSCLE, DIAPHRAGM",NA,NA,NA,NA,NA,NA,NA,NA,NA,"2007-07-10",29
"GLP003","MI","107001377",206,NA,NA,NA,"MIEXAM","Microscopic Examination",NA,"NORMAL","NORMAL",NA,NA,NA,NA,"SMALL INTESTINE, DUODENUM",NA,NA,NA,NA,NA,NA,NA,NA,NA,"2007-07-10",29
"GLP003","MI","107001377",207,NA,NA,NA,"MIEXAM","Microscopic Examination",NA,"NORMAL","NORMAL",NA,NA,NA,NA,"EPIDIDYMIS",NA,NA,NA,NA,"BILATERAL",NA,NA,NA,NA,"2007-07-10",29
"GLP003","MI","107001377",208,NA,NA,NA,"MIEXAM","Microscopic Examination",NA,"NORMAL","NORMAL",NA,NA,NA,NA,"ESOPHAGUS",NA,NA,NA,NA,NA,NA,NA,NA,NA,"2007-07-10",29
"GLP003","MI","107001377",209,NA,NA,NA,"MIEXAM","Microscopic Examination",NA,"NORMAL","NORMAL",NA,NA,NA,NA,"EYE",NA,NA,NA,NA,"BILATERAL",NA,NA,NA,NA,"2007-07-10",29
"GLP003","MI","107001377",210,NA,NA,NA,"MIEXAM","Microscopic Examination",NA,"NORMAL","NORMAL",NA,NA,NA,NA,"GLAND, HARDERIAN",NA,NA,NA,NA,"BILATERAL",NA,NA,NA,NA,"2007-07-10",29
"GLP003","MI","107001377",211,NA,NA,NA,"MIEXAM","Microscopic Examination",NA,"HEART:Degeneration: myocardial cell, focal, grade 1","Degeneration",NA,NA,NA,NA,"HEART",NA,NA,NA,NA,NA,NA,NA,"MINIMAL",NA,"2007-07-10",29
"GLP003","MI","107001377",212,NA,NA,NA,"MIEXAM","Microscopic Examination",NA,"NORMAL","NORMAL",NA,NA,NA,NA,"SMALL INTESTINE, ILEUM",NA,NA,NA,NA,NA,NA,NA,NA,NA,"2007-07-10",29
"GLP003","MI","107001377",213,NA,NA,NA,"MIEXAM","Microscopic Examination",NA,"NORMAL","NORMAL",NA,NA,NA,NA,"SMALL INTESTINE, JEJUNUM",NA,NA,NA,NA,NA,NA,NA,NA,NA,"2007-07-10",29
"GLP003","MI","107001377",214,NA,NA,NA,"MIEXAM","Microscopic Examination",NA,"KIDNEYS:Vacuolation: tubular epithelium, focal, unilateral, grade 1","Vacuolation",NA,NA,NA,NA,"KIDNEY",NA,NA,NA,NA,"BILATERAL",NA,NA,"MINIMAL",NA,"2007-07-10",29
"GLP003","MI","107001377",215,NA,NA,NA,"MIEXAM","Microscopic Examination",NA,"LIVER:Infiltration: mononuclear cell, multifocal, grade 1","Infiltration",NA,NA,NA,NA,"LIVER",NA,NA,NA,NA,NA,NA,NA,"MINIMAL",NA,"2007-07-10",29
"GLP003","MI","107001377",216,NA,NA,NA,"MIEXAM","Microscopic Examination",NA,"LUNG:Histiocytosis: alveolar space, multifocal, grade 1","Histiocytosis",NA,NA,NA,NA,"LUNG",NA,NA,NA,NA,NA,NA,NA,"MINIMAL",NA,"2007-07-10",29
"GLP003","MI","107001377",217,NA,NA,NA,"MIEXAM","Microscopic Examination",NA,"NORMAL","NORMAL",NA,NA,NA,NA,"MUSCLE, QUADRICEPS FEMORIS",NA,NA,NA,NA,NA,NA,NA,NA,NA,"2007-07-10",29
"GLP003","MI","107001377",218,NA,NA,NA,"MIEXAM","Microscopic Examination",NA,NA,NA,NA,"NOT DONE","Organ/tissue was not examined",NA,"GLAND, MAMMARY",NA,NA,NA,NA,NA,NA,NA,NA,NA,"2007-07-10",29
"GLP003","MI","107001377",219,NA,NA,NA,"MIEXAM","Microscopic Examination",NA,"NORMAL","NORMAL",NA,NA,NA,NA,"LYMPH NODE, SUBMANDIBULAR",NA,NA,NA,NA,NA,NA,NA,NA,NA,"2007-07-10",29
"GLP003","MI","107001377",220,NA,NA,NA,"MIEXAM","Microscopic Examination",NA,"NORMAL","NORMAL",NA,NA,NA,NA,"GLAND, SALIVARY, SUBMANDIBULAR",NA,NA,NA,NA,NA,NA,NA,NA,NA,"2007-07-10",29
"GLP003","MI","107001377",221,NA,NA,NA,"MIEXAM","Microscopic Examination",NA,"NORMAL","NORMAL",NA,NA,NA,NA,"LYMPH NODE, MESENTERIC",NA,NA,NA,NA,NA,NA,NA,NA,NA,"2007-07-10",29
"GLP003","MI","107001377",222,NA,NA,NA,"MIEXAM","Microscopic Examination",NA,"NORMAL","NORMAL",NA,NA,NA,NA,"NERVE, OPTIC",NA,NA,NA,NA,"BILATERAL",NA,NA,NA,NA,"2007-07-10",29
"GLP003","MI","107001377",223,NA,NA,NA,"MIEXAM","Microscopic Examination",NA,"NORMAL","NORMAL",NA,NA,NA,NA,"PANCREAS",NA,NA,NA,NA,NA,NA,NA,NA,NA,"2007-07-10",29
"GLP003","MI","107001377",224,NA,NA,NA,"MIEXAM","Microscopic Examination",NA,"NORMAL","NORMAL",NA,NA,NA,NA,"GLAND, PARATHYROID",NA,NA,NA,NA,NA,NA,NA,NA,NA,"2007-07-10",29
"GLP003","MI","107001377",225,NA,NA,NA,"MIEXAM","Microscopic Examination",NA,"NORMAL","NORMAL",NA,NA,NA,NA,"GLAND, PITUITARY",NA,NA,NA,NA,NA,NA,NA,NA,NA,"2007-07-10",29
"GLP003","MI","107001377",226,NA,NA,NA,"MIEXAM","Microscopic Examination",NA,"NORMAL","NORMAL",NA,NA,NA,NA,"GLAND, PROSTATE",NA,NA,NA,NA,NA,NA,NA,NA,NA,"2007-07-10",29
"GLP003","MI","107001377",227,NA,NA,NA,"MIEXAM","Microscopic Examination",NA,"NORMAL","NORMAL",NA,NA,NA,NA,"NERVE, SCIATIC",NA,NA,NA,NA,NA,NA,NA,NA,NA,"2007-07-10",29
"GLP003","MI","107001377",228,NA,NA,NA,"MIEXAM","Microscopic Examination",NA,"NORMAL","NORMAL",NA,NA,NA,NA,"GLAND, SEMINAL VESICLE",NA,NA,NA,NA,"BILATERAL",NA,NA,NA,NA,"2007-07-10",29
"GLP003","MI","107001377",229,NA,NA,NA,"MIEXAM","Microscopic Examination",NA,"NORMAL","NORMAL",NA,NA,NA,NA,"SKIN/SUBCUTIS",NA,NA,NA,NA,NA,NA,NA,NA,NA,"2007-07-10",29
"GLP003","MI","107001377",230,NA,NA,NA,"MIEXAM","Microscopic Examination",NA,"NORMAL","NORMAL",NA,NA,NA,NA,"SPINAL CORD",NA,NA,NA,NA,NA,NA,NA,NA,NA,"2007-07-10",29
"GLP003","MI","107001377",231,NA,NA,NA,"MIEXAM","Microscopic Examination",NA,"NORMAL","NORMAL",NA,NA,NA,NA,"SPLEEN",NA,NA,NA,NA,NA,NA,NA,NA,NA,"2007-07-10",29
"GLP003","MI","107001377",232,NA,NA,NA,"MIEXAM","Microscopic Examination",NA,"NORMAL","NORMAL",NA,NA,NA,NA,"STOMACH",NA,NA,NA,NA,NA,NA,NA,NA,NA,"2007-07-10",29
"GLP003","MI","107001377",233,NA,NA,NA,"MIEXAM","Microscopic Examination",NA,NA,NA,NA,"NOT DONE","Organ/tissue was not examined",NA,"SYSTEMIC NEOPLASMS",NA,NA,NA,NA,NA,NA,NA,NA,NA,"2007-07-10",29
"GLP003","MI","107001377",234,NA,NA,NA,"MIEXAM","Microscopic Examination",NA,"NORMAL","NORMAL",NA,NA,NA,NA,"TESTIS",NA,NA,NA,NA,"BILATERAL",NA,NA,NA,NA,"2007-07-10",29
"GLP003","MI","107001377",235,NA,NA,NA,"MIEXAM","Microscopic Examination",NA,"NORMAL","NORMAL",NA,NA,NA,NA,"THYMUS",NA,NA,NA,NA,NA,NA,NA,NA,NA,"2007-07-10",29
"GLP003","MI","107001377",236,NA,NA,NA,"MIEXAM","Microscopic Examination",NA,"NORMAL","NORMAL",NA,NA,NA,NA,"GLAND, THYROID",NA,NA,NA,NA,NA,NA,NA,NA,NA,"2007-07-10",29
"GLP003","MI","107001377",237,NA,NA,NA,"MIEXAM","Microscopic Examination",NA,"NORMAL","NORMAL",NA,NA,NA,NA,"TONGUE",NA,NA,NA,NA,NA,NA,NA,NA,NA,"2007-07-10",29
"GLP003","MI","107001377",238,NA,NA,NA,"MIEXAM","Microscopic Examination",NA,"NORMAL","NORMAL",NA,NA,NA,NA,"TRACHEA",NA,NA,NA,NA,NA,NA,NA,NA,NA,"2007-07-10",29
"GLP003","MI","107001377",239,NA,NA,NA,"MIEXAM","Microscopic Examination",NA,"NORMAL","NORMAL",NA,NA,NA,NA,"URINARY BLADDER",NA,NA,NA,NA,NA,NA,NA,NA,NA,"2007-07-10",29
"GLP003","MI","107001377",240,NA,NA,NA,"MIEXAM","Microscopic Examination",NA,NA,NA,NA,"NOT DONE","Organ/tissue was not examined",NA,"BONE MARROW SMEAR",NA,NA,NA,NA,NA,NA,NA,NA,NA,"2007-07-10",29
"GLP003","MI","107001472",242,NA,NA,NA,"MIEXAM","Microscopic Examination",NA,"NORMAL","NORMAL",NA,NA,NA,NA,"ADIPOSE TISSUE",NA,NA,NA,NA,NA,NA,NA,NA,NA,"2007-07-11",30
"GLP003","MI","107001472",243,NA,NA,NA,"MIEXAM","Microscopic Examination",NA,"NORMAL","NORMAL",NA,NA,NA,NA,"GLAND, ADRENAL",NA,NA,NA,NA,"BILATERAL",NA,NA,NA,NA,"2007-07-11",30
"GLP003","MI","107001472",244,NA,NA,NA,"MIEXAM","Microscopic Examination",NA,"NORMAL","NORMAL",NA,NA,NA,NA,"ARTERY, AORTA",NA,NA,NA,NA,NA,NA,NA,NA,NA,"2007-07-11",30
"GLP003","MI","107001472",245,NA,NA,NA,"MIEXAM","Microscopic Examination",NA,"NORMAL","NORMAL",NA,NA,NA,NA,"BONE MARROW, FEMUR",NA,NA,NA,NA,NA,NA,NA,NA,NA,"2007-07-11",30
"GLP003","MI","107001472",246,NA,NA,NA,"MIEXAM","Microscopic Examination",NA,"NORMAL","NORMAL",NA,NA,NA,NA,"BONE MARROW, STERNUM",NA,NA,NA,NA,NA,NA,NA,NA,NA,"2007-07-11",30
"GLP003","MI","107001472",247,NA,NA,NA,"MIEXAM","Microscopic Examination",NA,"NORMAL","NORMAL",NA,NA,NA,NA,"BONE, FEMUR",NA,NA,NA,NA,NA,NA,NA,NA,NA,"2007-07-11",30
"GLP003","MI","107001472",248,NA,NA,NA,"MIEXAM","Microscopic Examination",NA,"NORMAL","NORMAL",NA,NA,NA,NA,"BONE, STERNUM",NA,NA,NA,NA,NA,NA,NA,NA,NA,"2007-07-11",30
"GLP003","MI","107001472",249,NA,NA,NA,"MIEXAM","Microscopic Examination",NA,"NORMAL","NORMAL",NA,NA,NA,NA,"BRAIN",NA,NA,NA,NA,NA,NA,NA,NA,NA,"2007-07-11",30
"GLP003","MI","107001472",250,NA,NA,NA,"MIEXAM","Microscopic Examination",NA,"NORMAL","NORMAL",NA,NA,NA,NA,"ADIPOSE TISSUE, BROWN",NA,NA,NA,NA,NA,NA,NA,NA,NA,"2007-07-11",30
"GLP003","MI","107001472",251,NA,NA,NA,"MIEXAM","Microscopic Examination",NA,"NORMAL","NORMAL",NA,NA,NA,NA,"LARGE INTESTINE, CECUM",NA,NA,NA,NA,NA,NA,NA,NA,NA,"2007-07-11",30
"GLP003","MI","107001472",252,NA,NA,NA,"MIEXAM","Microscopic Examination",NA,"NORMAL","NORMAL",NA,NA,NA,NA,"LARGE INTESTINE, COLON",NA,NA,NA,NA,NA,NA,NA,NA,NA,"2007-07-11",30
"GLP003","MI","107001472",253,NA,NA,NA,"MIEXAM","Microscopic Examination",NA,"NORMAL","NORMAL",NA,NA,NA,NA,"MUSCLE, DIAPHRAGM",NA,NA,NA,NA,NA,NA,NA,NA,NA,"2007-07-11",30
"GLP003","MI","107001472",254,NA,NA,NA,"MIEXAM","Microscopic Examination",NA,"NORMAL","NORMAL",NA,NA,NA,NA,"SMALL INTESTINE, DUODENUM",NA,NA,NA,NA,NA,NA,NA,NA,NA,"2007-07-11",30
"GLP003","MI","107001472",255,NA,NA,NA,"MIEXAM","Microscopic Examination",NA,"NORMAL","NORMAL",NA,NA,NA,NA,"EPIDIDYMIS",NA,NA,NA,NA,"BILATERAL",NA,NA,NA,NA,"2007-07-11",30
"GLP003","MI","107001472",256,NA,NA,NA,"MIEXAM","Microscopic Examination",NA,"NORMAL","NORMAL",NA,NA,NA,NA,"ESOPHAGUS",NA,NA,NA,NA,NA,NA,NA,NA,NA,"2007-07-11",30
"GLP003","MI","107001472",257,NA,NA,NA,"MIEXAM","Microscopic Examination",NA,"NORMAL","NORMAL",NA,NA,NA,NA,"EYE",NA,NA,NA,NA,"BILATERAL",NA,NA,NA,NA,"2007-07-11",30
"GLP003","MI","107001472",258,NA,NA,NA,"MIEXAM","Microscopic Examination",NA,"NORMAL","NORMAL",NA,NA,NA,NA,"GLAND, HARDERIAN",NA,NA,NA,NA,"BILATERAL",NA,NA,NA,NA,"2007-07-11",30
"GLP003","MI","107001472",259,NA,NA,NA,"MIEXAM","Microscopic Examination",NA,"NORMAL","NORMAL",NA,NA,NA,NA,"HEART",NA,NA,NA,NA,NA,NA,NA,NA,NA,"2007-07-11",30
"GLP003","MI","107001472",260,NA,NA,NA,"MIEXAM","Microscopic Examination",NA,"NORMAL","NORMAL",NA,NA,NA,NA,"SMALL INTESTINE, ILEUM",NA,NA,NA,NA,NA,NA,NA,NA,NA,"2007-07-11",30
"GLP003","MI","107001472",261,NA,NA,NA,"MIEXAM","Microscopic Examination",NA,"NORMAL","NORMAL",NA,NA,NA,NA,"SMALL INTESTINE, JEJUNUM",NA,NA,NA,NA,NA,NA,NA,NA,NA,"2007-07-11",30
"GLP003","MI","107001472",262,NA,NA,NA,"MIEXAM","Microscopic Examination",NA,"NORMAL","NORMAL",NA,NA,NA,NA,"KIDNEY",NA,NA,NA,NA,"BILATERAL",NA,NA,NA,NA,"2007-07-11",30
"GLP003","MI","107001472",263,NA,NA,NA,"MIEXAM","Microscopic Examination",NA,"LIVER:Infiltration: mononuclear cell, multifocal, grade 1","Infiltration",NA,NA,NA,NA,"LIVER",NA,NA,NA,NA,NA,NA,NA,"MINIMAL",NA,"2007-07-11",30
"GLP003","MI","107001472",264,NA,NA,NA,"MIEXAM","Microscopic Examination",NA,"NORMAL","NORMAL",NA,NA,NA,NA,"LUNG",NA,NA,NA,NA,NA,NA,NA,NA,NA,"2007-07-11",30
"GLP003","MI","107001472",265,NA,NA,NA,"MIEXAM","Microscopic Examination",NA,"SKELETAL MUSCLE, QUADRICEPS FEMORIS:Infiltration: mononuclear cell, focal, grade 1","Infiltration",NA,NA,NA,NA,"MUSCLE, QUADRICEPS FEMORIS",NA,NA,NA,NA,NA,NA,NA,"MINIMAL",NA,"2007-07-11",30
"GLP003","MI","107001472",266,NA,NA,NA,"MIEXAM","Microscopic Examination",NA,"NORMAL","NORMAL",NA,NA,NA,NA,"GLAND, MAMMARY",NA,NA,NA,NA,NA,NA,NA,NA,NA,"2007-07-11",30
"GLP003","MI","107001472",267,NA,NA,NA,"MIEXAM","Microscopic Examination",NA,"NORMAL","NORMAL",NA,NA,NA,NA,"LYMPH NODE, SUBMANDIBULAR",NA,NA,NA,NA,NA,NA,NA,NA,NA,"2007-07-11",30
"GLP003","MI","107001472",268,NA,NA,NA,"MIEXAM","Microscopic Examination",NA,"NORMAL","NORMAL",NA,NA,NA,NA,"GLAND, SALIVARY, SUBMANDIBULAR",NA,NA,NA,NA,NA,NA,NA,NA,NA,"2007-07-11",30
"GLP003","MI","107001472",269,NA,NA,NA,"MIEXAM","Microscopic Examination",NA,"NORMAL","NORMAL",NA,NA,NA,NA,"LYMPH NODE, MESENTERIC",NA,NA,NA,NA,NA,NA,NA,NA,NA,"2007-07-11",30
"GLP003","MI","107001472",270,NA,NA,NA,"MIEXAM","Microscopic Examination",NA,"NORMAL","NORMAL",NA,NA,NA,NA,"NERVE, OPTIC",NA,NA,NA,NA,"BILATERAL",NA,NA,NA,NA,"2007-07-11",30
"GLP003","MI","107001472",271,NA,NA,NA,"MIEXAM","Microscopic Examination",NA,"NORMAL","NORMAL",NA,NA,NA,NA,"PANCREAS",NA,NA,NA,NA,NA,NA,NA,NA,NA,"2007-07-11",30
"GLP003","MI","107001472",272,NA,NA,NA,"MIEXAM","Microscopic Examination",NA,"NORMAL","NORMAL",NA,NA,NA,NA,"GLAND, PARATHYROID",NA,NA,NA,NA,NA,NA,NA,NA,NA,"2007-07-11",30
"GLP003","MI","107001472",273,NA,NA,NA,"MIEXAM","Microscopic Examination",NA,"NORMAL","NORMAL",NA,NA,NA,NA,"GLAND, PITUITARY",NA,NA,NA,NA,NA,NA,NA,NA,NA,"2007-07-11",30
"GLP003","MI","107001472",274,NA,NA,NA,"MIEXAM","Microscopic Examination",NA,"NORMAL","NORMAL",NA,NA,NA,NA,"GLAND, PROSTATE",NA,NA,NA,NA,NA,NA,NA,NA,NA,"2007-07-11",30
"GLP003","MI","107001472",275,NA,NA,NA,"MIEXAM","Microscopic Examination",NA,"NORMAL","NORMAL",NA,NA,NA,NA,"NERVE, SCIATIC",NA,NA,NA,NA,NA,NA,NA,NA,NA,"2007-07-11",30
"GLP003","MI","107001472",276,NA,NA,NA,"MIEXAM","Microscopic Examination",NA,"NORMAL","NORMAL",NA,NA,NA,NA,"GLAND, SEMINAL VESICLE",NA,NA,NA,NA,"BILATERAL",NA,NA,NA,NA,"2007-07-11",30
"GLP003","MI","107001472",277,NA,NA,NA,"MIEXAM","Microscopic Examination",NA,"NORMAL","NORMAL",NA,NA,NA,NA,"SKIN/SUBCUTIS",NA,NA,NA,NA,NA,NA,NA,NA,NA,"2007-07-11",30
"GLP003","MI","107001472",278,NA,NA,NA,"MIEXAM","Microscopic Examination",NA,"NORMAL","NORMAL",NA,NA,NA,NA,"SPINAL CORD",NA,NA,NA,NA,NA,NA,NA,NA,NA,"2007-07-11",30
"GLP003","MI","107001472",279,NA,NA,NA,"MIEXAM","Microscopic Examination",NA,"NORMAL","NORMAL",NA,NA,NA,NA,"SPLEEN",NA,NA,NA,NA,NA,NA,NA,NA,NA,"2007-07-11",30
"GLP003","MI","107001472",280,NA,NA,NA,"MIEXAM","Microscopic Examination",NA,"NORMAL","NORMAL",NA,NA,NA,NA,"STOMACH",NA,NA,NA,NA,NA,NA,NA,NA,NA,"2007-07-11",30
"GLP003","MI","107001472",281,NA,NA,NA,"MIEXAM","Microscopic Examination",NA,NA,NA,NA,"NOT DONE","Organ/tissue was not examined",NA,"SYSTEMIC NEOPLASMS",NA,NA,NA,NA,NA,NA,NA,NA,NA,"2007-07-11",30
"GLP003","MI","107001472",282,NA,NA,NA,"MIEXAM","Microscopic Examination",NA,"NORMAL","NORMAL",NA,NA,NA,NA,"TESTIS",NA,NA,NA,NA,"BILATERAL",NA,NA,NA,NA,"2007-07-11",30
"GLP003","MI","107001472",283,NA,NA,NA,"MIEXAM","Microscopic Examination",NA,"NORMAL","NORMAL",NA,NA,NA,NA,"THYMUS",NA,NA,NA,NA,NA,NA,NA,NA,NA,"2007-07-11",30
"GLP003","MI","107001472",284,NA,NA,NA,"MIEXAM","Microscopic Examination",NA,"NORMAL","NORMAL",NA,NA,NA,NA,"GLAND, THYROID",NA,NA,NA,NA,NA,NA,NA,NA,NA,"2007-07-11",30
"GLP003","MI","107001472",285,NA,NA,NA,"MIEXAM","Microscopic Examination",NA,"NORMAL","NORMAL",NA,NA,NA,NA,"TONGUE",NA,NA,NA,NA,NA,NA,NA,NA,NA,"2007-07-11",30
"GLP003","MI","107001472",286,NA,NA,NA,"MIEXAM","Microscopic Examination",NA,"NORMAL","NORMAL",NA,NA,NA,NA,"TRACHEA",NA,NA,NA,NA,NA,NA,NA,NA,NA,"2007-07-11",30
"GLP003","MI","107001472",287,NA,NA,NA,"MIEXAM","Microscopic Examination",NA,"NORMAL","NORMAL",NA,NA,NA,NA,"URINARY BLADDER",NA,NA,NA,NA,NA,NA,NA,NA,NA,"2007-07-11",30
"GLP003","MI","107001472",288,NA,NA,NA,"MIEXAM","Microscopic Examination",NA,NA,NA,NA,"NOT DONE","Organ/tissue was not examined",NA,"BONE MARROW SMEAR",NA,NA,NA,NA,NA,NA,NA,NA,NA,"2007-07-11",30
"GLP003","MI","107001401",290,NA,NA,NA,"MIEXAM","Microscopic Examination",NA,"NORMAL","NORMAL",NA,NA,NA,NA,"ADIPOSE TISSUE",NA,NA,NA,NA,NA,NA,NA,NA,NA,"2007-07-11",30
"GLP003","MI","107001401",291,NA,NA,NA,"MIEXAM","Microscopic Examination",NA,"NORMAL","NORMAL",NA,NA,NA,NA,"GLAND, ADRENAL",NA,NA,NA,NA,"BILATERAL",NA,NA,NA,NA,"2007-07-11",30
"GLP003","MI","107001401",292,NA,NA,NA,"MIEXAM","Microscopic Examination",NA,"NORMAL","NORMAL",NA,NA,NA,NA,"ARTERY, AORTA",NA,NA,NA,NA,NA,NA,NA,NA,NA,"2007-07-11",30
"GLP003","MI","107001401",293,NA,NA,NA,"MIEXAM","Microscopic Examination",NA,"NORMAL","NORMAL",NA,NA,NA,NA,"BONE MARROW, FEMUR",NA,NA,NA,NA,NA,NA,NA,NA,NA,"2007-07-11",30
"GLP003","MI","107001401",294,NA,NA,NA,"MIEXAM","Microscopic Examination",NA,"NORMAL","NORMAL",NA,NA,NA,NA,"BONE MARROW, STERNUM",NA,NA,NA,NA,NA,NA,NA,NA,NA,"2007-07-11",30
"GLP003","MI","107001401",295,NA,NA,NA,"MIEXAM","Microscopic Examination",NA,"NORMAL","NORMAL",NA,NA,NA,NA,"BONE, FEMUR",NA,NA,NA,NA,NA,NA,NA,NA,NA,"2007-07-11",30
"GLP003","MI","107001401",296,NA,NA,NA,"MIEXAM","Microscopic Examination",NA,"NORMAL","NORMAL",NA,NA,NA,NA,"BONE, STERNUM",NA,NA,NA,NA,NA,NA,NA,NA,NA,"2007-07-11",30
"GLP003","MI","107001401",297,NA,NA,NA,"MIEXAM","Microscopic Examination",NA,"NORMAL","NORMAL",NA,NA,NA,NA,"BRAIN",NA,NA,NA,NA,NA,NA,NA,NA,NA,"2007-07-11",30
"GLP003","MI","107001401",298,NA,NA,NA,"MIEXAM","Microscopic Examination",NA,"NORMAL","NORMAL",NA,NA,NA,NA,"ADIPOSE TISSUE, BROWN",NA,NA,NA,NA,NA,NA,NA,NA,NA,"2007-07-11",30
"GLP003","MI","107001401",299,NA,NA,NA,"MIEXAM","Microscopic Examination",NA,"NORMAL","NORMAL",NA,NA,NA,NA,"LARGE INTESTINE, CECUM",NA,NA,NA,NA,NA,NA,NA,NA,NA,"2007-07-11",30
"GLP003","MI","107001401",300,NA,NA,NA,"MIEXAM","Microscopic Examination",NA,"NORMAL","NORMAL",NA,NA,NA,NA,"LARGE INTESTINE, COLON",NA,NA,NA,NA,NA,NA,NA,NA,NA,"2007-07-11",30
"GLP003","MI","107001401",301,NA,NA,NA,"MIEXAM","Microscopic Examination",NA,"NORMAL","NORMAL",NA,NA,NA,NA,"MUSCLE, DIAPHRAGM",NA,NA,NA,NA,NA,NA,NA,NA,NA,"2007-07-11",30
"GLP003","MI","107001401",302,NA,NA,NA,"MIEXAM","Microscopic Examination",NA,"NORMAL","NORMAL",NA,NA,NA,NA,"SMALL INTESTINE, DUODENUM",NA,NA,NA,NA,NA,NA,NA,NA,NA,"2007-07-11",30
"GLP003","MI","107001401",303,NA,NA,NA,"MIEXAM","Microscopic Examination",NA,"NORMAL","NORMAL",NA,NA,NA,NA,"EPIDIDYMIS",NA,NA,NA,NA,"BILATERAL",NA,NA,NA,NA,"2007-07-11",30
"GLP003","MI","107001401",304,NA,NA,NA,"MIEXAM","Microscopic Examination",NA,"NORMAL","NORMAL",NA,NA,NA,NA,"ESOPHAGUS",NA,NA,NA,NA,NA,NA,NA,NA,NA,"2007-07-11",30
"GLP003","MI","107001401",305,NA,NA,NA,"MIEXAM","Microscopic Examination",NA,"NORMAL","NORMAL",NA,NA,NA,NA,"EYE",NA,NA,NA,NA,"BILATERAL",NA,NA,NA,NA,"2007-07-11",30
"GLP003","MI","107001401",306,NA,NA,NA,"MIEXAM","Microscopic Examination",NA,"NORMAL","NORMAL",NA,NA,NA,NA,"GLAND, HARDERIAN",NA,NA,NA,NA,"BILATERAL",NA,NA,NA,NA,"2007-07-11",30
"GLP003","MI","107001401",307,NA,NA,NA,"MIEXAM","Microscopic Examination",NA,"NORMAL","NORMAL",NA,NA,NA,NA,"HEART",NA,NA,NA,NA,NA,NA,NA,NA,NA,"2007-07-11",30
"GLP003","MI","107001401",308,NA,NA,NA,"MIEXAM","Microscopic Examination",NA,"NORMAL","NORMAL",NA,NA,NA,NA,"SMALL INTESTINE, ILEUM",NA,NA,NA,NA,NA,NA,NA,NA,NA,"2007-07-11",30
"GLP003","MI","107001401",309,NA,NA,NA,"MIEXAM","Microscopic Examination",NA,"NORMAL","NORMAL",NA,NA,NA,NA,"SMALL INTESTINE, JEJUNUM",NA,NA,NA,NA,NA,NA,NA,NA,NA,"2007-07-11",30
"GLP003","MI","107001401",310,NA,NA,NA,"MIEXAM","Microscopic Examination",NA,"KIDNEYS:Nephropathy: progressive murine, multifocal, bilateral, grade 1","Nephropathy",NA,NA,NA,NA,"KIDNEY",NA,NA,NA,NA,"BILATERAL",NA,NA,"MINIMAL",NA,"2007-07-11",30
"GLP003","MI","107001401",311,NA,NA,NA,"MIEXAM","Microscopic Examination",NA,"LIVER:Infiltration: mononuclear cell, multifocal, grade 1","Infiltration",NA,NA,NA,NA,"LIVER",NA,NA,NA,NA,NA,NA,NA,"MINIMAL",NA,"2007-07-11",30
"GLP003","MI","107001401",312,NA,NA,NA,"MIEXAM","Microscopic Examination",NA,"NORMAL","NORMAL",NA,NA,NA,NA,"LUNG",NA,NA,NA,NA,NA,NA,NA,NA,NA,"2007-07-11",30
"GLP003","MI","107001401",313,NA,NA,NA,"MIEXAM","Microscopic Examination",NA,"SKELETAL MUSCLE, QUADRICEPS FEMORIS:Infiltration: mononuclear cell, multifocal, grade 1","Infiltration",NA,NA,NA,NA,"MUSCLE, QUADRICEPS FEMORIS",NA,NA,NA,NA,NA,NA,NA,"MINIMAL",NA,"2007-07-11",30
"GLP003","MI","107001401",314,NA,NA,NA,"MIEXAM","Microscopic Examination",NA,"NORMAL","NORMAL",NA,NA,NA,NA,"GLAND, MAMMARY",NA,NA,NA,NA,NA,NA,NA,NA,NA,"2007-07-11",30
"GLP003","MI","107001401",315,NA,NA,NA,"MIEXAM","Microscopic Examination",NA,"NORMAL","NORMAL",NA,NA,NA,NA,"LYMPH NODE, SUBMANDIBULAR",NA,NA,NA,NA,NA,NA,NA,NA,NA,"2007-07-11",30
"GLP003","MI","107001401",316,NA,NA,NA,"MIEXAM","Microscopic Examination",NA,"NORMAL","NORMAL",NA,NA,NA,NA,"GLAND, SALIVARY, SUBMANDIBULAR",NA,NA,NA,NA,NA,NA,NA,NA,NA,"2007-07-11",30
"GLP003","MI","107001401",317,NA,NA,NA,"MIEXAM","Microscopic Examination",NA,"NORMAL","NORMAL",NA,NA,NA,NA,"LYMPH NODE, MESENTERIC",NA,NA,NA,NA,NA,NA,NA,NA,NA,"2007-07-11",30
"GLP003","MI","107001401",318,NA,NA,NA,"MIEXAM","Microscopic Examination",NA,"NORMAL","NORMAL",NA,NA,NA,NA,"NERVE, OPTIC",NA,NA,NA,NA,"BILATERAL",NA,NA,NA,NA,"2007-07-11",30
"GLP003","MI","107001401",319,NA,NA,NA,"MIEXAM","Microscopic Examination",NA,"NORMAL","NORMAL",NA,NA,NA,NA,"PANCREAS",NA,NA,NA,NA,NA,NA,NA,NA,NA,"2007-07-11",30
"GLP003","MI","107001401",320,NA,NA,NA,"MIEXAM","Microscopic Examination",NA,"NORMAL","NORMAL",NA,NA,NA,NA,"GLAND, PARATHYROID",NA,NA,NA,NA,NA,NA,NA,NA,NA,"2007-07-11",30
"GLP003","MI","107001401",321,NA,NA,NA,"MIEXAM","Microscopic Examination",NA,"NORMAL","NORMAL",NA,NA,NA,NA,"GLAND, PITUITARY",NA,NA,NA,NA,NA,NA,NA,NA,NA,"2007-07-11",30
"GLP003","MI","107001401",322,NA,NA,NA,"MIEXAM","Microscopic Examination",NA,"NORMAL","NORMAL",NA,NA,NA,NA,"GLAND, PROSTATE",NA,NA,NA,NA,NA,NA,NA,NA,NA,"2007-07-11",30
"GLP003","MI","107001401",323,NA,NA,NA,"MIEXAM","Microscopic Examination",NA,"NORMAL","NORMAL",NA,NA,NA,NA,"NERVE, SCIATIC",NA,NA,NA,NA,NA,NA,NA,NA,NA,"2007-07-11",30
"GLP003","MI","107001401",324,NA,NA,NA,"MIEXAM","Microscopic Examination",NA,"NORMAL","NORMAL",NA,NA,NA,NA,"GLAND, SEMINAL VESICLE",NA,NA,NA,NA,"BILATERAL",NA,NA,NA,NA,"2007-07-11",30
"GLP003","MI","107001401",325,NA,NA,NA,"MIEXAM","Microscopic Examination",NA,"NORMAL","NORMAL",NA,NA,NA,NA,"SKIN/SUBCUTIS",NA,NA,NA,NA,NA,NA,NA,NA,NA,"2007-07-11",30
"GLP003","MI","107001401",326,NA,NA,NA,"MIEXAM","Microscopic Examination",NA,"NORMAL","NORMAL",NA,NA,NA,NA,"SPINAL CORD",NA,NA,NA,NA,NA,NA,NA,NA,NA,"2007-07-11",30
"GLP003","MI","107001401",327,NA,NA,NA,"MIEXAM","Microscopic Examination",NA,"NORMAL","NORMAL",NA,NA,NA,NA,"SPLEEN",NA,NA,NA,NA,NA,NA,NA,NA,NA,"2007-07-11",30
"GLP003","MI","107001401",328,NA,NA,NA,"MIEXAM","Microscopic Examination",NA,"NORMAL","NORMAL",NA,NA,NA,NA,"STOMACH",NA,NA,NA,NA,NA,NA,NA,NA,NA,"2007-07-11",30
"GLP003","MI","107001401",329,NA,NA,NA,"MIEXAM","Microscopic Examination",NA,NA,NA,NA,"NOT DONE","Organ/tissue was not examined",NA,"SYSTEMIC NEOPLASMS",NA,NA,NA,NA,NA,NA,NA,NA,NA,"2007-07-11",30
"GLP003","MI","107001401",330,NA,NA,NA,"MIEXAM","Microscopic Examination",NA,"NORMAL","NORMAL",NA,NA,NA,NA,"TESTIS",NA,NA,NA,NA,"BILATERAL",NA,NA,NA,NA,"2007-07-11",30
"GLP003","MI","107001401",331,NA,NA,NA,"MIEXAM","Microscopic Examination",NA,"NORMAL","NORMAL",NA,NA,NA,NA,"THYMUS",NA,NA,NA,NA,NA,NA,NA,NA,NA,"2007-07-11",30
"GLP003","MI","107001401",332,NA,NA,NA,"MIEXAM","Microscopic Examination",NA,"NORMAL","NORMAL",NA,NA,NA,NA,"GLAND, THYROID",NA,NA,NA,NA,NA,NA,NA,NA,NA,"2007-07-11",30
"GLP003","MI","107001401",333,NA,NA,NA,"MIEXAM","Microscopic Examination",NA,"NORMAL","NORMAL",NA,NA,NA,NA,"TONGUE",NA,NA,NA,NA,NA,NA,NA,NA,NA,"2007-07-11",30
"GLP003","MI","107001401",334,NA,NA,NA,"MIEXAM","Microscopic Examination",NA,"NORMAL","NORMAL",NA,NA,NA,NA,"TRACHEA",NA,NA,NA,NA,NA,NA,NA,NA,NA,"2007-07-11",30
"GLP003","MI","107001401",335,NA,NA,NA,"MIEXAM","Microscopic Examination",NA,"NORMAL","NORMAL",NA,NA,NA,NA,"URINARY BLADDER",NA,NA,NA,NA,NA,NA,NA,NA,NA,"2007-07-11",30
"GLP003","MI","107001401",336,NA,NA,NA,"MIEXAM","Microscopic Examination",NA,NA,NA,NA,"NOT DONE","Organ/tissue was not examined",NA,"BONE MARROW SMEAR",NA,NA,NA,NA,NA,NA,NA,NA,NA,"2007-07-11",30
"GLP003","MI","107001466",338,NA,NA,NA,"MIEXAM","Microscopic Examination",NA,"NORMAL","NORMAL",NA,NA,NA,NA,"ADIPOSE TISSUE",NA,NA,NA,NA,NA,NA,NA,NA,NA,"2007-07-11",30
"GLP003","MI","107001466",339,NA,NA,NA,"MIEXAM","Microscopic Examination",NA,"NORMAL","NORMAL",NA,NA,NA,NA,"GLAND, ADRENAL",NA,NA,NA,NA,"BILATERAL",NA,NA,NA,NA,"2007-07-11",30
"GLP003","MI","107001466",340,NA,NA,NA,"MIEXAM","Microscopic Examination",NA,"NORMAL","NORMAL",NA,NA,NA,NA,"ARTERY, AORTA",NA,NA,NA,NA,NA,NA,NA,NA,NA,"2007-07-11",30
"GLP003","MI","107001466",341,NA,NA,NA,"MIEXAM","Microscopic Examination",NA,"NORMAL","NORMAL",NA,NA,NA,NA,"BONE MARROW, FEMUR",NA,NA,NA,NA,NA,NA,NA,NA,NA,"2007-07-11",30
"GLP003","MI","107001466",342,NA,NA,NA,"MIEXAM","Microscopic Examination",NA,"NORMAL","NORMAL",NA,NA,NA,NA,"BONE MARROW, STERNUM",NA,NA,NA,NA,NA,NA,NA,NA,NA,"2007-07-11",30
"GLP003","MI","107001466",343,NA,NA,NA,"MIEXAM","Microscopic Examination",NA,"NORMAL","NORMAL",NA,NA,NA,NA,"BONE, FEMUR",NA,NA,NA,NA,NA,NA,NA,NA,NA,"2007-07-11",30
"GLP003","MI","107001466",344,NA,NA,NA,"MIEXAM","Microscopic Examination",NA,"NORMAL","NORMAL",NA,NA,NA,NA,"BONE, STERNUM",NA,NA,NA,NA,NA,NA,NA,NA,NA,"2007-07-11",30
"GLP003","MI","107001466",345,NA,NA,NA,"MIEXAM","Microscopic Examination",NA,"NORMAL","NORMAL",NA,NA,NA,NA,"BRAIN",NA,NA,NA,NA,NA,NA,NA,NA,NA,"2007-07-11",30
"GLP003","MI","107001466",346,NA,NA,NA,"MIEXAM","Microscopic Examination",NA,"NORMAL","NORMAL",NA,NA,NA,NA,"ADIPOSE TISSUE, BROWN",NA,NA,NA,NA,NA,NA,NA,NA,NA,"2007-07-11",30
"GLP003","MI","107001466",347,NA,NA,NA,"MIEXAM","Microscopic Examination",NA,"NORMAL","NORMAL",NA,NA,NA,NA,"LARGE INTESTINE, CECUM",NA,NA,NA,NA,NA,NA,NA,NA,NA,"2007-07-11",30
"GLP003","MI","107001466",348,NA,NA,NA,"MIEXAM","Microscopic Examination",NA,"NORMAL","NORMAL",NA,NA,NA,NA,"LARGE INTESTINE, COLON",NA,NA,NA,NA,NA,NA,NA,NA,NA,"2007-07-11",30
"GLP003","MI","107001466",349,NA,NA,NA,"MIEXAM","Microscopic Examination",NA,"NORMAL","NORMAL",NA,NA,NA,NA,"MUSCLE, DIAPHRAGM",NA,NA,NA,NA,NA,NA,NA,NA,NA,"2007-07-11",30
"GLP003","MI","107001466",350,NA,NA,NA,"MIEXAM","Microscopic Examination",NA,"NORMAL","NORMAL",NA,NA,NA,NA,"SMALL INTESTINE, DUODENUM",NA,NA,NA,NA,NA,NA,NA,NA,NA,"2007-07-11",30
"GLP003","MI","107001466",351,NA,NA,NA,"MIEXAM","Microscopic Examination",NA,"NORMAL","NORMAL",NA,NA,NA,NA,"EPIDIDYMIS",NA,NA,NA,NA,"BILATERAL",NA,NA,NA,NA,"2007-07-11",30
"GLP003","MI","107001466",352,NA,NA,NA,"MIEXAM","Microscopic Examination",NA,"NORMAL","NORMAL",NA,NA,NA,NA,"ESOPHAGUS",NA,NA,NA,NA,NA,NA,NA,NA,NA,"2007-07-11",30
"GLP003","MI","107001466",353,NA,NA,NA,"MIEXAM","Microscopic Examination",NA,"NORMAL","NORMAL",NA,NA,NA,NA,"EYE",NA,NA,NA,NA,"BILATERAL",NA,NA,NA,NA,"2007-07-11",30
"GLP003","MI","107001466",354,NA,NA,NA,"MIEXAM","Microscopic Examination",NA,"NORMAL","NORMAL",NA,NA,NA,NA,"GLAND, HARDERIAN",NA,NA,NA,NA,"BILATERAL",NA,NA,NA,NA,"2007-07-11",30
"GLP003","MI","107001466",355,NA,NA,NA,"MIEXAM","Microscopic Examination",NA,"NORMAL","NORMAL",NA,NA,NA,NA,"HEART",NA,NA,NA,NA,NA,NA,NA,NA,NA,"2007-07-11",30
"GLP003","MI","107001466",356,NA,NA,NA,"MIEXAM","Microscopic Examination",NA,"NORMAL","NORMAL",NA,NA,NA,NA,"SMALL INTESTINE, ILEUM",NA,NA,NA,NA,NA,NA,NA,NA,NA,"2007-07-11",30
"GLP003","MI","107001466",357,NA,NA,NA,"MIEXAM","Microscopic Examination",NA,"NORMAL","NORMAL",NA,NA,NA,NA,"SMALL INTESTINE, JEJUNUM",NA,NA,NA,NA,NA,NA,NA,NA,NA,"2007-07-11",30
"GLP003","MI","107001466",358,NA,NA,NA,"MIEXAM","Microscopic Examination",NA,"KIDNEYS:Vacuolation: tubular epithelium, multifocal, bilateral, grade 1","Vacuolation",NA,NA,NA,NA,"KIDNEY",NA,NA,NA,NA,"BILATERAL",NA,NA,"MINIMAL",NA,"2007-07-11",30
"GLP003","MI","107001466",359,NA,NA,NA,"MIEXAM","Microscopic Examination",NA,"LIVER:Infiltration: mononuclear cell, multifocal, grade 1","Infiltration",NA,NA,NA,NA,"LIVER",NA,NA,NA,NA,NA,NA,NA,"MINIMAL",NA,"2007-07-11",30
"GLP003","MI","107001466",360,NA,NA,NA,"MIEXAM","Microscopic Examination",NA,"NORMAL","NORMAL",NA,NA,NA,NA,"LUNG",NA,NA,NA,NA,NA,NA,NA,NA,NA,"2007-07-11",30
"GLP003","MI","107001466",361,NA,NA,NA,"MIEXAM","Microscopic Examination",NA,"SKELETAL MUSCLE, QUADRICEPS FEMORIS:Infiltration: mononuclear cell, focal, grade 1","Infiltration",NA,NA,NA,NA,"MUSCLE, QUADRICEPS FEMORIS",NA,NA,NA,NA,NA,NA,NA,"MINIMAL",NA,"2007-07-11",30
"GLP003","MI","107001466",362,NA,NA,NA,"MIEXAM","Microscopic Examination",NA,"NORMAL","NORMAL",NA,NA,NA,NA,"GLAND, MAMMARY",NA,NA,NA,NA,NA,NA,NA,NA,NA,"2007-07-11",30
"GLP003","MI","107001466",363,NA,NA,NA,"MIEXAM","Microscopic Examination",NA,"NORMAL","NORMAL",NA,NA,NA,NA,"LYMPH NODE, SUBMANDIBULAR",NA,NA,NA,NA,NA,NA,NA,NA,NA,"2007-07-11",30
"GLP003","MI","107001466",364,NA,NA,NA,"MIEXAM","Microscopic Examination",NA,"NORMAL","NORMAL",NA,NA,NA,NA,"GLAND, SALIVARY, SUBMANDIBULAR",NA,NA,NA,NA,NA,NA,NA,NA,NA,"2007-07-11",30
"GLP003","MI","107001466",365,NA,NA,NA,"MIEXAM","Microscopic Examination",NA,"NORMAL","NORMAL",NA,NA,NA,NA,"LYMPH NODE, MESENTERIC",NA,NA,NA,NA,NA,NA,NA,NA,NA,"2007-07-11",30
"GLP003","MI","107001466",366,NA,NA,NA,"MIEXAM","Microscopic Examination",NA,"NORMAL","NORMAL",NA,NA,NA,NA,"NERVE, OPTIC",NA,NA,NA,NA,"BILATERAL",NA,NA,NA,NA,"2007-07-11",30
"GLP003","MI","107001466",367,NA,NA,NA,"MIEXAM","Microscopic Examination",NA,"NORMAL","NORMAL",NA,NA,NA,NA,"PANCREAS",NA,NA,NA,NA,NA,NA,NA,NA,NA,"2007-07-11",30
"GLP003","MI","107001466",368,NA,NA,NA,"MIEXAM","Microscopic Examination",NA,"NORMAL","NORMAL",NA,NA,NA,NA,"GLAND, PARATHYROID",NA,NA,NA,NA,NA,NA,NA,NA,NA,"2007-07-11",30
"GLP003","MI","107001466",369,NA,NA,NA,"MIEXAM","Microscopic Examination",NA,"NORMAL","NORMAL",NA,NA,NA,NA,"GLAND, PITUITARY",NA,NA,NA,NA,NA,NA,NA,NA,NA,"2007-07-11",30
"GLP003","MI","107001466",370,NA,NA,NA,"MIEXAM","Microscopic Examination",NA,"PROSTATE GLAND:Inflammation: chronic, multifocal, grade 2","Inflammation",NA,NA,NA,NA,"GLAND, PROSTATE",NA,NA,NA,NA,NA,NA,NA,"MILD",NA,"2007-07-11",30
"GLP003","MI","107001466",371,NA,NA,NA,"MIEXAM","Microscopic Examination",NA,"NORMAL","NORMAL",NA,NA,NA,NA,"NERVE, SCIATIC",NA,NA,NA,NA,NA,NA,NA,NA,NA,"2007-07-11",30
"GLP003","MI","107001466",372,NA,NA,NA,"MIEXAM","Microscopic Examination",NA,"NORMAL","NORMAL",NA,NA,NA,NA,"GLAND, SEMINAL VESICLE",NA,NA,NA,NA,"BILATERAL",NA,NA,NA,NA,"2007-07-11",30
"GLP003","MI","107001466",373,NA,NA,NA,"MIEXAM","Microscopic Examination",NA,"NORMAL","NORMAL",NA,NA,NA,NA,"SKIN/SUBCUTIS",NA,NA,NA,NA,NA,NA,NA,NA,NA,"2007-07-11",30
"GLP003","MI","107001466",374,NA,NA,NA,"MIEXAM","Microscopic Examination",NA,"NORMAL","NORMAL",NA,NA,NA,NA,"SPINAL CORD",NA,NA,NA,NA,NA,NA,NA,NA,NA,"2007-07-11",30
"GLP003","MI","107001466",375,NA,NA,NA,"MIEXAM","Microscopic Examination",NA,"NORMAL","NORMAL",NA,NA,NA,NA,"SPLEEN",NA,NA,NA,NA,NA,NA,NA,NA,NA,"2007-07-11",30
"GLP003","MI","107001466",376,NA,NA,NA,"MIEXAM","Microscopic Examination",NA,"NORMAL","NORMAL",NA,NA,NA,NA,"STOMACH",NA,NA,NA,NA,NA,NA,NA,NA,NA,"2007-07-11",30
"GLP003","MI","107001466",377,NA,NA,NA,"MIEXAM","Microscopic Examination",NA,NA,NA,NA,"NOT DONE","Organ/tissue was not examined",NA,"SYSTEMIC NEOPLASMS",NA,NA,NA,NA,NA,NA,NA,NA,NA,"2007-07-11",30
"GLP003","MI","107001466",378,NA,NA,NA,"MIEXAM","Microscopic Examination",NA,"NORMAL","NORMAL",NA,NA,NA,NA,"TESTIS",NA,NA,NA,NA,"BILATERAL",NA,NA,NA,NA,"2007-07-11",30
"GLP003","MI","107001466",379,NA,NA,NA,"MIEXAM","Microscopic Examination",NA,"NORMAL","NORMAL",NA,NA,NA,NA,"THYMUS",NA,NA,NA,NA,NA,NA,NA,NA,NA,"2007-07-11",30
"GLP003","MI","107001466",380,NA,NA,NA,"MIEXAM","Microscopic Examination",NA,"NORMAL","NORMAL",NA,NA,NA,NA,"GLAND, THYROID",NA,NA,NA,NA,NA,NA,NA,NA,NA,"2007-07-11",30
"GLP003","MI","107001466",381,NA,NA,NA,"MIEXAM","Microscopic Examination",NA,"NORMAL","NORMAL",NA,NA,NA,NA,"TONGUE",NA,NA,NA,NA,NA,NA,NA,NA,NA,"2007-07-11",30
"GLP003","MI","107001466",382,NA,NA,NA,"MIEXAM","Microscopic Examination",NA,"NORMAL","NORMAL",NA,NA,NA,NA,"TRACHEA",NA,NA,NA,NA,NA,NA,NA,NA,NA,"2007-07-11",30
"GLP003","MI","107001466",383,NA,NA,NA,"MIEXAM","Microscopic Examination",NA,"NORMAL","NORMAL",NA,NA,NA,NA,"URINARY BLADDER",NA,NA,NA,NA,NA,NA,NA,NA,NA,"2007-07-11",30
"GLP003","MI","107001466",384,NA,NA,NA,"MIEXAM","Microscopic Examination",NA,NA,NA,NA,"NOT DONE","Organ/tissue was not examined",NA,"BONE MARROW SMEAR",NA,NA,NA,NA,NA,NA,NA,NA,NA,"2007-07-11",30
"GLP003","MI","107001428",386,NA,NA,NA,"MIEXAM","Microscopic Examination",NA,"NORMAL","NORMAL",NA,NA,NA,NA,"ADIPOSE TISSUE",NA,NA,NA,NA,NA,NA,NA,NA,NA,"2007-07-11",30
"GLP003","MI","107001428",387,NA,NA,NA,"MIEXAM","Microscopic Examination",NA,"NORMAL","NORMAL",NA,NA,NA,NA,"GLAND, ADRENAL",NA,NA,NA,NA,"BILATERAL",NA,NA,NA,NA,"2007-07-11",30
"GLP003","MI","107001428",388,NA,NA,NA,"MIEXAM","Microscopic Examination",NA,"NORMAL","NORMAL",NA,NA,NA,NA,"ARTERY, AORTA",NA,NA,NA,NA,NA,NA,NA,NA,NA,"2007-07-11",30
"GLP003","MI","107001428",389,NA,NA,NA,"MIEXAM","Microscopic Examination",NA,"NORMAL","NORMAL",NA,NA,NA,NA,"BONE MARROW, FEMUR",NA,NA,NA,NA,NA,NA,NA,NA,NA,"2007-07-11",30
"GLP003","MI","107001428",390,NA,NA,NA,"MIEXAM","Microscopic Examination",NA,"NORMAL","NORMAL",NA,NA,NA,NA,"BONE MARROW, STERNUM",NA,NA,NA,NA,NA,NA,NA,NA,NA,"2007-07-11",30
"GLP003","MI","107001428",391,NA,NA,NA,"MIEXAM","Microscopic Examination",NA,"NORMAL","NORMAL",NA,NA,NA,NA,"BONE, FEMUR",NA,NA,NA,NA,NA,NA,NA,NA,NA,"2007-07-11",30
"GLP003","MI","107001428",392,NA,NA,NA,"MIEXAM","Microscopic Examination",NA,"NORMAL","NORMAL",NA,NA,NA,NA,"BONE, STERNUM",NA,NA,NA,NA,NA,NA,NA,NA,NA,"2007-07-11",30
"GLP003","MI","107001428",393,NA,NA,NA,"MIEXAM","Microscopic Examination",NA,"NORMAL","NORMAL",NA,NA,NA,NA,"BRAIN",NA,NA,NA,NA,NA,NA,NA,NA,NA,"2007-07-11",30
"GLP003","MI","107001428",394,NA,NA,NA,"MIEXAM","Microscopic Examination",NA,"NORMAL","NORMAL",NA,NA,NA,NA,"ADIPOSE TISSUE, BROWN",NA,NA,NA,NA,NA,NA,NA,NA,NA,"2007-07-11",30
"GLP003","MI","107001428",395,NA,NA,NA,"MIEXAM","Microscopic Examination",NA,"NORMAL","NORMAL",NA,NA,NA,NA,"LARGE INTESTINE, CECUM",NA,NA,NA,NA,NA,NA,NA,NA,NA,"2007-07-11",30
"GLP003","MI","107001428",396,NA,NA,NA,"MIEXAM","Microscopic Examination",NA,"NORMAL","NORMAL",NA,NA,NA,NA,"LARGE INTESTINE, COLON",NA,NA,NA,NA,NA,NA,NA,NA,NA,"2007-07-11",30
"GLP003","MI","107001428",397,NA,NA,NA,"MIEXAM","Microscopic Examination",NA,"SKELETAL MUSCLE, DIAPHRAGM:Infiltration: mononuclear cell, focal, grade 1","Infiltration",NA,NA,NA,NA,"MUSCLE, DIAPHRAGM",NA,NA,NA,NA,NA,NA,NA,"MINIMAL",NA,"2007-07-11",30
"GLP003","MI","107001428",398,NA,NA,NA,"MIEXAM","Microscopic Examination",NA,"NORMAL","NORMAL",NA,NA,NA,NA,"SMALL INTESTINE, DUODENUM",NA,NA,NA,NA,NA,NA,NA,NA,NA,"2007-07-11",30
"GLP003","MI","107001428",399,NA,NA,NA,"MIEXAM","Microscopic Examination",NA,"NORMAL","NORMAL",NA,NA,NA,NA,"EPIDIDYMIS",NA,NA,NA,NA,"BILATERAL",NA,NA,NA,NA,"2007-07-11",30
"GLP003","MI","107001428",400,NA,NA,NA,"MIEXAM","Microscopic Examination",NA,"NORMAL","NORMAL",NA,NA,NA,NA,"ESOPHAGUS",NA,NA,NA,NA,NA,NA,NA,NA,NA,"2007-07-11",30
"GLP003","MI","107001428",401,NA,NA,NA,"MIEXAM","Microscopic Examination",NA,"NORMAL","NORMAL",NA,NA,NA,NA,"EYE",NA,NA,NA,NA,"BILATERAL",NA,NA,NA,NA,"2007-07-11",30
"GLP003","MI","107001428",402,NA,NA,NA,"MIEXAM","Microscopic Examination",NA,"NORMAL","NORMAL",NA,NA,NA,NA,"GLAND, HARDERIAN",NA,NA,NA,NA,"BILATERAL",NA,NA,NA,NA,"2007-07-11",30
"GLP003","MI","107001428",403,NA,NA,NA,"MIEXAM","Microscopic Examination",NA,"NORMAL","NORMAL",NA,NA,NA,NA,"HEART",NA,NA,NA,NA,NA,NA,NA,NA,NA,"2007-07-11",30
"GLP003","MI","107001428",404,NA,NA,NA,"MIEXAM","Microscopic Examination",NA,"NORMAL","NORMAL",NA,NA,NA,NA,"SMALL INTESTINE, ILEUM",NA,NA,NA,NA,NA,NA,NA,NA,NA,"2007-07-11",30
"GLP003","MI","107001428",405,NA,NA,NA,"MIEXAM","Microscopic Examination",NA,"NORMAL","NORMAL",NA,NA,NA,NA,"SMALL INTESTINE, JEJUNUM",NA,NA,NA,NA,NA,NA,NA,NA,NA,"2007-07-11",30
"GLP003","MI","107001428",406,NA,NA,NA,"MIEXAM","Microscopic Examination",NA,"KIDNEYS:Nephropathy: progressive murine, focal, unilateral, grade 1","Nephropathy",NA,NA,NA,NA,"KIDNEY",NA,NA,NA,NA,"BILATERAL",NA,NA,"MINIMAL",NA,"2007-07-11",30
"GLP003","MI","107001428",407,NA,NA,NA,"MIEXAM","Microscopic Examination",NA,"KIDNEYS:Vacuolation: tubular epithelium, focal, unilateral, grade 1","Vacuolation",NA,NA,NA,NA,"KIDNEY",NA,NA,NA,NA,"BILATERAL",NA,NA,"MINIMAL",NA,"2007-07-11",30
"GLP003","MI","107001428",408,NA,NA,NA,"MIEXAM","Microscopic Examination",NA,"LIVER:Infiltration: mononuclear cell, multifocal, grade 1","Infiltration",NA,NA,NA,NA,"LIVER",NA,NA,NA,NA,NA,NA,NA,"MINIMAL",NA,"2007-07-11",30
"GLP003","MI","107001428",409,NA,NA,NA,"MIEXAM","Microscopic Examination",NA,"NORMAL","NORMAL",NA,NA,NA,NA,"LUNG",NA,NA,NA,NA,NA,NA,NA,NA,NA,"2007-07-11",30
"GLP003","MI","107001428",410,NA,NA,NA,"MIEXAM","Microscopic Examination",NA,"NORMAL","NORMAL",NA,NA,NA,NA,"MUSCLE, QUADRICEPS FEMORIS",NA,NA,NA,NA,NA,NA,NA,NA,NA,"2007-07-11",30
"GLP003","MI","107001428",411,NA,NA,NA,"MIEXAM","Microscopic Examination",NA,NA,NA,NA,"NOT DONE","Organ/tissue was not examined",NA,"GLAND, MAMMARY",NA,NA,NA,NA,NA,NA,NA,NA,NA,"2007-07-11",30
"GLP003","MI","107001428",412,NA,NA,NA,"MIEXAM","Microscopic Examination",NA,"NORMAL","NORMAL",NA,NA,NA,NA,"LYMPH NODE, SUBMANDIBULAR",NA,NA,NA,NA,NA,NA,NA,NA,NA,"2007-07-11",30
"GLP003","MI","107001428",413,NA,NA,NA,"MIEXAM","Microscopic Examination",NA,"NORMAL","NORMAL",NA,NA,NA,NA,"GLAND, SALIVARY, SUBMANDIBULAR",NA,NA,NA,NA,NA,NA,NA,NA,NA,"2007-07-11",30
"GLP003","MI","107001428",414,NA,NA,NA,"MIEXAM","Microscopic Examination",NA,"NORMAL","NORMAL",NA,NA,NA,NA,"LYMPH NODE, MESENTERIC",NA,NA,NA,NA,NA,NA,NA,NA,NA,"2007-07-11",30
"GLP003","MI","107001428",415,NA,NA,NA,"MIEXAM","Microscopic Examination",NA,"NORMAL","NORMAL",NA,NA,NA,NA,"NERVE, OPTIC",NA,NA,NA,NA,"BILATERAL",NA,NA,NA,NA,"2007-07-11",30
"GLP003","MI","107001428",416,NA,NA,NA,"MIEXAM","Microscopic Examination",NA,"NORMAL","NORMAL",NA,NA,NA,NA,"PANCREAS",NA,NA,NA,NA,NA,NA,NA,NA,NA,"2007-07-11",30
"GLP003","MI","107001428",417,NA,NA,NA,"MIEXAM","Microscopic Examination",NA,"NORMAL","NORMAL",NA,NA,NA,NA,"GLAND, PARATHYROID",NA,NA,NA,NA,NA,NA,NA,NA,NA,"2007-07-11",30
"GLP003","MI","107001428",418,NA,NA,NA,"MIEXAM","Microscopic Examination",NA,"NORMAL","NORMAL",NA,NA,NA,NA,"GLAND, PITUITARY",NA,NA,NA,NA,NA,NA,NA,NA,NA,"2007-07-11",30
"GLP003","MI","107001428",419,NA,NA,NA,"MIEXAM","Microscopic Examination",NA,"NORMAL","NORMAL",NA,NA,NA,NA,"GLAND, PROSTATE",NA,NA,NA,NA,NA,NA,NA,NA,NA,"2007-07-11",30
"GLP003","MI","107001428",420,NA,NA,NA,"MIEXAM","Microscopic Examination",NA,"NORMAL","NORMAL",NA,NA,NA,NA,"NERVE, SCIATIC",NA,NA,NA,NA,NA,NA,NA,NA,NA,"2007-07-11",30
"GLP003","MI","107001428",421,NA,NA,NA,"MIEXAM","Microscopic Examination",NA,"NORMAL","NORMAL",NA,NA,NA,NA,"GLAND, SEMINAL VESICLE",NA,NA,NA,NA,"BILATERAL",NA,NA,NA,NA,"2007-07-11",30
"GLP003","MI","107001428",422,NA,NA,NA,"MIEXAM","Microscopic Examination",NA,"NORMAL","NORMAL",NA,NA,NA,NA,"SKIN/SUBCUTIS",NA,NA,NA,NA,NA,NA,NA,NA,NA,"2007-07-11",30
"GLP003","MI","107001428",423,NA,NA,NA,"MIEXAM","Microscopic Examination",NA,"NORMAL","NORMAL",NA,NA,NA,NA,"SPINAL CORD",NA,NA,NA,NA,NA,NA,NA,NA,NA,"2007-07-11",30
"GLP003","MI","107001428",424,NA,NA,NA,"MIEXAM","Microscopic Examination",NA,"NORMAL","NORMAL",NA,NA,NA,NA,"SPLEEN",NA,NA,NA,NA,NA,NA,NA,NA,NA,"2007-07-11",30
"GLP003","MI","107001428",425,NA,NA,NA,"MIEXAM","Microscopic Examination",NA,"NORMAL","NORMAL",NA,NA,NA,NA,"STOMACH",NA,NA,NA,NA,NA,NA,NA,NA,NA,"2007-07-11",30
"GLP003","MI","107001428",426,NA,NA,NA,"MIEXAM","Microscopic Examination",NA,NA,NA,NA,"NOT DONE","Organ/tissue was not examined",NA,"SYSTEMIC NEOPLASMS",NA,NA,NA,NA,NA,NA,NA,NA,NA,"2007-07-11",30
"GLP003","MI","107001428",427,NA,NA,NA,"MIEXAM","Microscopic Examination",NA,"TESTES:Degeneration: seminiferous tubule, multifocal, bilateral, grade 1","Degeneration",NA,NA,NA,NA,"TESTIS",NA,NA,NA,NA,"BILATERAL",NA,NA,"MINIMAL",NA,"2007-07-11",30
"GLP003","MI","107001428",428,NA,NA,NA,"MIEXAM","Microscopic Examination",NA,"NORMAL","NORMAL",NA,NA,NA,NA,"THYMUS",NA,NA,NA,NA,NA,NA,NA,NA,NA,"2007-07-11",30
"GLP003","MI","107001428",429,NA,NA,NA,"MIEXAM","Microscopic Examination",NA,"NORMAL","NORMAL",NA,NA,NA,NA,"GLAND, THYROID",NA,NA,NA,NA,NA,NA,NA,NA,NA,"2007-07-11",30
"GLP003","MI","107001428",430,NA,NA,NA,"MIEXAM","Microscopic Examination",NA,"NORMAL","NORMAL",NA,NA,NA,NA,"TONGUE",NA,NA,NA,NA,NA,NA,NA,NA,NA,"2007-07-11",30
"GLP003","MI","107001428",431,NA,NA,NA,"MIEXAM","Microscopic Examination",NA,"NORMAL","NORMAL",NA,NA,NA,NA,"TRACHEA",NA,NA,NA,NA,NA,NA,NA,NA,NA,"2007-07-11",30
"GLP003","MI","107001428",432,NA,NA,NA,"MIEXAM","Microscopic Examination",NA,"NORMAL","NORMAL",NA,NA,NA,NA,"URINARY BLADDER",NA,NA,NA,NA,NA,NA,NA,NA,NA,"2007-07-11",30
"GLP003","MI","107001428",433,NA,NA,NA,"MIEXAM","Microscopic Examination",NA,NA,NA,NA,"NOT DONE","Organ/tissue was not examined",NA,"BONE MARROW SMEAR",NA,NA,NA,NA,NA,NA,NA,NA,NA,"2007-07-11",30
"GLP003","MI","107001483",435,NA,NA,NA,"MIEXAM","Microscopic Examination",NA,"NORMAL","NORMAL",NA,NA,NA,NA,"ADIPOSE TISSUE",NA,NA,NA,NA,NA,NA,NA,NA,NA,"2007-07-11",30
"GLP003","MI","107001483",436,NA,NA,NA,"MIEXAM","Microscopic Examination",NA,"NORMAL","NORMAL",NA,NA,NA,NA,"GLAND, ADRENAL",NA,NA,NA,NA,"BILATERAL",NA,NA,NA,NA,"2007-07-11",30
"GLP003","MI","107001483",437,NA,NA,NA,"MIEXAM","Microscopic Examination",NA,"NORMAL","NORMAL",NA,NA,NA,NA,"ARTERY, AORTA",NA,NA,NA,NA,NA,NA,NA,NA,NA,"2007-07-11",30
"GLP003","MI","107001483",438,NA,NA,NA,"MIEXAM","Microscopic Examination",NA,"NORMAL","NORMAL",NA,NA,NA,NA,"BONE MARROW, FEMUR",NA,NA,NA,NA,NA,NA,NA,NA,NA,"2007-07-11",30
"GLP003","MI","107001483",439,NA,NA,NA,"MIEXAM","Microscopic Examination",NA,"NORMAL","NORMAL",NA,NA,NA,NA,"BONE MARROW, STERNUM",NA,NA,NA,NA,NA,NA,NA,NA,NA,"2007-07-11",30
"GLP003","MI","107001483",440,NA,NA,NA,"MIEXAM","Microscopic Examination",NA,"NORMAL","NORMAL",NA,NA,NA,NA,"BONE, FEMUR",NA,NA,NA,NA,NA,NA,NA,NA,NA,"2007-07-11",30
"GLP003","MI","107001483",441,NA,NA,NA,"MIEXAM","Microscopic Examination",NA,"NORMAL","NORMAL",NA,NA,NA,NA,"BONE, STERNUM",NA,NA,NA,NA,NA,NA,NA,NA,NA,"2007-07-11",30
"GLP003","MI","107001483",442,NA,NA,NA,"MIEXAM","Microscopic Examination",NA,"NORMAL","NORMAL",NA,NA,NA,NA,"BRAIN",NA,NA,NA,NA,NA,NA,NA,NA,NA,"2007-07-11",30
"GLP003","MI","107001483",443,NA,NA,NA,"MIEXAM","Microscopic Examination",NA,"NORMAL","NORMAL",NA,NA,NA,NA,"ADIPOSE TISSUE, BROWN",NA,NA,NA,NA,NA,NA,NA,NA,NA,"2007-07-11",30
"GLP003","MI","107001483",444,NA,NA,NA,"MIEXAM","Microscopic Examination",NA,"NORMAL","NORMAL",NA,NA,NA,NA,"LARGE INTESTINE, CECUM",NA,NA,NA,NA,NA,NA,NA,NA,NA,"2007-07-11",30
"GLP003","MI","107001483",445,NA,NA,NA,"MIEXAM","Microscopic Examination",NA,"NORMAL","NORMAL",NA,NA,NA,NA,"LARGE INTESTINE, COLON",NA,NA,NA,NA,NA,NA,NA,NA,NA,"2007-07-11",30
"GLP003","MI","107001483",446,NA,NA,NA,"MIEXAM","Microscopic Examination",NA,"NORMAL","NORMAL",NA,NA,NA,NA,"MUSCLE, DIAPHRAGM",NA,NA,NA,NA,NA,NA,NA,NA,NA,"2007-07-11",30
"GLP003","MI","107001483",447,NA,NA,NA,"MIEXAM","Microscopic Examination",NA,"NORMAL","NORMAL",NA,NA,NA,NA,"SMALL INTESTINE, DUODENUM",NA,NA,NA,NA,NA,NA,NA,NA,NA,"2007-07-11",30
"GLP003","MI","107001483",448,NA,NA,NA,"MIEXAM","Microscopic Examination",NA,"EPIDIDYMIDES:Infiltration: mononuclear cell, focal, bilateral, grade 1","Infiltration",NA,NA,NA,NA,"EPIDIDYMIS",NA,NA,NA,NA,"BILATERAL",NA,NA,"MINIMAL",NA,"2007-07-11",30
"GLP003","MI","107001483",449,NA,NA,NA,"MIEXAM","Microscopic Examination",NA,"NORMAL","NORMAL",NA,NA,NA,NA,"ESOPHAGUS",NA,NA,NA,NA,NA,NA,NA,NA,NA,"2007-07-11",30
"GLP003","MI","107001483",450,NA,NA,NA,"MIEXAM","Microscopic Examination",NA,"NORMAL","NORMAL",NA,NA,NA,NA,"EYE",NA,NA,NA,NA,"BILATERAL",NA,NA,NA,NA,"2007-07-11",30
"GLP003","MI","107001483",451,NA,NA,NA,"MIEXAM","Microscopic Examination",NA,"NORMAL","NORMAL",NA,NA,NA,NA,"GLAND, HARDERIAN",NA,NA,NA,NA,"BILATERAL",NA,NA,NA,NA,"2007-07-11",30
"GLP003","MI","107001483",452,NA,NA,NA,"MIEXAM","Microscopic Examination",NA,"NORMAL","NORMAL",NA,NA,NA,NA,"HEART",NA,NA,NA,NA,NA,NA,NA,NA,NA,"2007-07-11",30
"GLP003","MI","107001483",453,NA,NA,NA,"MIEXAM","Microscopic Examination",NA,"NORMAL","NORMAL",NA,NA,NA,NA,"SMALL INTESTINE, ILEUM",NA,NA,NA,NA,NA,NA,NA,NA,NA,"2007-07-11",30
"GLP003","MI","107001483",454,NA,NA,NA,"MIEXAM","Microscopic Examination",NA,"NORMAL","NORMAL",NA,NA,NA,NA,"SMALL INTESTINE, JEJUNUM",NA,NA,NA,NA,NA,NA,NA,NA,NA,"2007-07-11",30
"GLP003","MI","107001483",455,NA,NA,NA,"MIEXAM","Microscopic Examination",NA,"NORMAL","NORMAL",NA,NA,NA,NA,"KIDNEY",NA,NA,NA,NA,"BILATERAL",NA,NA,NA,NA,"2007-07-11",30
"GLP003","MI","107001483",456,NA,NA,NA,"MIEXAM","Microscopic Examination",NA,"LIVER:Infiltration: mononuclear cell, multifocal, grade 1","Infiltration",NA,NA,NA,NA,"LIVER",NA,NA,NA,NA,NA,NA,NA,"MINIMAL",NA,"2007-07-11",30
"GLP003","MI","107001483",457,NA,NA,NA,"MIEXAM","Microscopic Examination",NA,"NORMAL","NORMAL",NA,NA,NA,NA,"LUNG",NA,NA,NA,NA,NA,NA,NA,NA,NA,"2007-07-11",30
"GLP003","MI","107001483",458,NA,NA,NA,"MIEXAM","Microscopic Examination",NA,"NORMAL","NORMAL",NA,NA,NA,NA,"MUSCLE, QUADRICEPS FEMORIS",NA,NA,NA,NA,NA,NA,NA,NA,NA,"2007-07-11",30
"GLP003","MI","107001483",459,NA,NA,NA,"MIEXAM","Microscopic Examination",NA,"NORMAL","NORMAL",NA,NA,NA,NA,"GLAND, MAMMARY",NA,NA,NA,NA,NA,NA,NA,NA,NA,"2007-07-11",30
"GLP003","MI","107001483",460,NA,NA,NA,"MIEXAM","Microscopic Examination",NA,"NORMAL","NORMAL",NA,NA,NA,NA,"LYMPH NODE, SUBMANDIBULAR",NA,NA,NA,NA,NA,NA,NA,NA,NA,"2007-07-11",30
"GLP003","MI","107001483",461,NA,NA,NA,"MIEXAM","Microscopic Examination",NA,"NORMAL","NORMAL",NA,NA,NA,NA,"GLAND, SALIVARY, SUBMANDIBULAR",NA,NA,NA,NA,NA,NA,NA,NA,NA,"2007-07-11",30
"GLP003","MI","107001483",462,NA,NA,NA,"MIEXAM","Microscopic Examination",NA,"NORMAL","NORMAL",NA,NA,NA,NA,"LYMPH NODE, MESENTERIC",NA,NA,NA,NA,NA,NA,NA,NA,NA,"2007-07-11",30
"GLP003","MI","107001483",463,NA,NA,NA,"MIEXAM","Microscopic Examination",NA,NA,NA,NA,"NOT DONE","Organ/tissue was not examined",NA,"NERVE, OPTIC",NA,NA,NA,NA,"BILATERAL",NA,NA,NA,NA,"2007-07-11",30
"GLP003","MI","107001483",464,NA,NA,NA,"MIEXAM","Microscopic Examination",NA,"NORMAL","NORMAL",NA,NA,NA,NA,"PANCREAS",NA,NA,NA,NA,NA,NA,NA,NA,NA,"2007-07-11",30
"GLP003","MI","107001483",465,NA,NA,NA,"MIEXAM","Microscopic Examination",NA,"NORMAL","NORMAL",NA,NA,NA,NA,"GLAND, PARATHYROID",NA,NA,NA,NA,NA,NA,NA,NA,NA,"2007-07-11",30
"GLP003","MI","107001483",466,NA,NA,NA,"MIEXAM","Microscopic Examination",NA,"NORMAL","NORMAL",NA,NA,NA,NA,"GLAND, PITUITARY",NA,NA,NA,NA,NA,NA,NA,NA,NA,"2007-07-11",30
"GLP003","MI","107001483",467,NA,NA,NA,"MIEXAM","Microscopic Examination",NA,"NORMAL","NORMAL",NA,NA,NA,NA,"GLAND, PROSTATE",NA,NA,NA,NA,NA,NA,NA,NA,NA,"2007-07-11",30
"GLP003","MI","107001483",468,NA,NA,NA,"MIEXAM","Microscopic Examination",NA,"NORMAL","NORMAL",NA,NA,NA,NA,"NERVE, SCIATIC",NA,NA,NA,NA,NA,NA,NA,NA,NA,"2007-07-11",30
"GLP003","MI","107001483",469,NA,NA,NA,"MIEXAM","Microscopic Examination",NA,"NORMAL","NORMAL",NA,NA,NA,NA,"GLAND, SEMINAL VESICLE",NA,NA,NA,NA,"BILATERAL",NA,NA,NA,NA,"2007-07-11",30
"GLP003","MI","107001483",470,NA,NA,NA,"MIEXAM","Microscopic Examination",NA,"NORMAL","NORMAL",NA,NA,NA,NA,"SKIN/SUBCUTIS",NA,NA,NA,NA,NA,NA,NA,NA,NA,"2007-07-11",30
"GLP003","MI","107001483",471,NA,NA,NA,"MIEXAM","Microscopic Examination",NA,"NORMAL","NORMAL",NA,NA,NA,NA,"SPINAL CORD",NA,NA,NA,NA,NA,NA,NA,NA,NA,"2007-07-11",30
"GLP003","MI","107001483",472,NA,NA,NA,"MIEXAM","Microscopic Examination",NA,"NORMAL","NORMAL",NA,NA,NA,NA,"SPLEEN",NA,NA,NA,NA,NA,NA,NA,NA,NA,"2007-07-11",30
"GLP003","MI","107001483",473,NA,NA,NA,"MIEXAM","Microscopic Examination",NA,"NORMAL","NORMAL",NA,NA,NA,NA,"STOMACH",NA,NA,NA,NA,NA,NA,NA,NA,NA,"2007-07-11",30
"GLP003","MI","107001483",474,NA,NA,NA,"MIEXAM","Microscopic Examination",NA,NA,NA,NA,"NOT DONE","Organ/tissue was not examined",NA,"SYSTEMIC NEOPLASMS",NA,NA,NA,NA,NA,NA,NA,NA,NA,"2007-07-11",30
"GLP003","MI","107001483",475,NA,NA,NA,"MIEXAM","Microscopic Examination",NA,"NORMAL","NORMAL",NA,NA,NA,NA,"TESTIS",NA,NA,NA,NA,"BILATERAL",NA,NA,NA,NA,"2007-07-11",30
"GLP003","MI","107001483",476,NA,NA,NA,"MIEXAM","Microscopic Examination",NA,"NORMAL","NORMAL",NA,NA,NA,NA,"THYMUS",NA,NA,NA,NA,NA,NA,NA,NA,NA,"2007-07-11",30
"GLP003","MI","107001483",477,NA,NA,NA,"MIEXAM","Microscopic Examination",NA,"NORMAL","NORMAL",NA,NA,NA,NA,"GLAND, THYROID",NA,NA,NA,NA,NA,NA,NA,NA,NA,"2007-07-11",30
"GLP003","MI","107001483",478,NA,NA,NA,"MIEXAM","Microscopic Examination",NA,"NORMAL","NORMAL",NA,NA,NA,NA,"TONGUE",NA,NA,NA,NA,NA,NA,NA,NA,NA,"2007-07-11",30
"GLP003","MI","107001483",479,NA,NA,NA,"MIEXAM","Microscopic Examination",NA,"NORMAL","NORMAL",NA,NA,NA,NA,"TRACHEA",NA,NA,NA,NA,NA,NA,NA,NA,NA,"2007-07-11",30
"GLP003","MI","107001483",480,NA,NA,NA,"MIEXAM","Microscopic Examination",NA,"NORMAL","NORMAL",NA,NA,NA,NA,"URINARY BLADDER",NA,NA,NA,NA,NA,NA,NA,NA,NA,"2007-07-11",30
"GLP003","MI","107001483",481,NA,NA,NA,"MIEXAM","Microscopic Examination",NA,NA,NA,NA,"NOT DONE","Organ/tissue was not examined",NA,"BONE MARROW SMEAR",NA,NA,NA,NA,NA,NA,NA,NA,NA,"2007-07-11",30
"GLP003","MI","107001397",483,NA,NA,NA,"MIEXAM","Microscopic Examination",NA,NA,NA,NA,"NOT DONE","Organ/tissue was not examined",NA,"ADIPOSE TISSUE",NA,NA,NA,NA,NA,NA,NA,NA,NA,"2007-07-24",43
"GLP003","MI","107001397",484,NA,NA,NA,"MIEXAM","Microscopic Examination",NA,"NORMAL","NORMAL",NA,NA,NA,NA,"GLAND, ADRENAL",NA,NA,NA,NA,"BILATERAL",NA,NA,NA,NA,"2007-07-24",43
"GLP003","MI","107001397",485,NA,NA,NA,"MIEXAM","Microscopic Examination",NA,NA,NA,NA,"NOT DONE","Organ/tissue was not examined",NA,"ARTERY, AORTA",NA,NA,NA,NA,NA,NA,NA,NA,NA,"2007-07-24",43
"GLP003","MI","107001397",486,NA,NA,NA,"MIEXAM","Microscopic Examination",NA,NA,NA,NA,"NOT DONE","Organ/tissue was not examined",NA,"BONE MARROW, FEMUR",NA,NA,NA,NA,NA,NA,NA,NA,NA,"2007-07-24",43
"GLP003","MI","107001397",487,NA,NA,NA,"MIEXAM","Microscopic Examination",NA,NA,NA,NA,"NOT DONE","Organ/tissue was not examined",NA,"BONE MARROW, STERNUM",NA,NA,NA,NA,NA,NA,NA,NA,NA,"2007-07-24",43
"GLP003","MI","107001397",488,NA,NA,NA,"MIEXAM","Microscopic Examination",NA,NA,NA,NA,"NOT DONE","Organ/tissue was not examined",NA,"BONE, FEMUR",NA,NA,NA,NA,NA,NA,NA,NA,NA,"2007-07-24",43
"GLP003","MI","107001397",489,NA,NA,NA,"MIEXAM","Microscopic Examination",NA,NA,NA,NA,"NOT DONE","Organ/tissue was not examined",NA,"BONE, STERNUM",NA,NA,NA,NA,NA,NA,NA,NA,NA,"2007-07-24",43
"GLP003","MI","107001397",490,NA,NA,NA,"MIEXAM","Microscopic Examination",NA,NA,NA,NA,"NOT DONE","Organ/tissue was not examined",NA,"BRAIN",NA,NA,NA,NA,NA,NA,NA,NA,NA,"2007-07-24",43
"GLP003","MI","107001397",491,NA,NA,NA,"MIEXAM","Microscopic Examination",NA,NA,NA,NA,"NOT DONE","Organ/tissue was not examined",NA,"ADIPOSE TISSUE, BROWN",NA,NA,NA,NA,NA,NA,NA,NA,NA,"2007-07-24",43
"GLP003","MI","107001397",492,NA,NA,NA,"MIEXAM","Microscopic Examination",NA,NA,NA,NA,"NOT DONE","Organ/tissue was not examined",NA,"LARGE INTESTINE, CECUM",NA,NA,NA,NA,NA,NA,NA,NA,NA,"2007-07-24",43
"GLP003","MI","107001397",493,NA,NA,NA,"MIEXAM","Microscopic Examination",NA,NA,NA,NA,"NOT DONE","Organ/tissue was not examined",NA,"LARGE INTESTINE, COLON",NA,NA,NA,NA,NA,NA,NA,NA,NA,"2007-07-24",43
"GLP003","MI","107001397",494,NA,NA,NA,"MIEXAM","Microscopic Examination",NA,NA,NA,NA,"NOT DONE","Organ/tissue was not examined",NA,"MUSCLE, DIAPHRAGM",NA,NA,NA,NA,NA,NA,NA,NA,NA,"2007-07-24",43
"GLP003","MI","107001397",495,NA,NA,NA,"MIEXAM","Microscopic Examination",NA,NA,NA,NA,"NOT DONE","Organ/tissue was not examined",NA,"SMALL INTESTINE, DUODENUM",NA,NA,NA,NA,NA,NA,NA,NA,NA,"2007-07-24",43
"GLP003","MI","107001397",496,NA,NA,NA,"MIEXAM","Microscopic Examination",NA,NA,NA,NA,"NOT DONE","Organ/tissue was not examined",NA,"EPIDIDYMIS",NA,NA,NA,NA,"BILATERAL",NA,NA,NA,NA,"2007-07-24",43
"GLP003","MI","107001397",497,NA,NA,NA,"MIEXAM","Microscopic Examination",NA,NA,NA,NA,"NOT DONE","Organ/tissue was not examined",NA,"ESOPHAGUS",NA,NA,NA,NA,NA,NA,NA,NA,NA,"2007-07-24",43
"GLP003","MI","107001397",498,NA,NA,NA,"MIEXAM","Microscopic Examination",NA,NA,NA,NA,"NOT DONE","Organ/tissue was not examined",NA,"EYE",NA,NA,NA,NA,"BILATERAL",NA,NA,NA,NA,"2007-07-24",43
"GLP003","MI","107001397",499,NA,NA,NA,"MIEXAM","Microscopic Examination",NA,NA,NA,NA,"NOT DONE","Organ/tissue was not examined",NA,"GLAND, HARDERIAN",NA,NA,NA,NA,"BILATERAL",NA,NA,NA,NA,"2007-07-24",43
"GLP003","MI","107001397",500,NA,NA,NA,"MIEXAM","Microscopic Examination",NA,NA,NA,NA,"NOT DONE","Organ/tissue was not examined",NA,"HEART",NA,NA,NA,NA,NA,NA,NA,NA,NA,"2007-07-24",43
"GLP003","MI","107001397",501,NA,NA,NA,"MIEXAM","Microscopic Examination",NA,NA,NA,NA,"NOT DONE","Organ/tissue was not examined",NA,"SMALL INTESTINE, ILEUM",NA,NA,NA,NA,NA,NA,NA,NA,NA,"2007-07-24",43
"GLP003","MI","107001397",502,NA,NA,NA,"MIEXAM","Microscopic Examination",NA,NA,NA,NA,"NOT DONE","Organ/tissue was not examined",NA,"SMALL INTESTINE, JEJUNUM",NA,NA,NA,NA,NA,NA,NA,NA,NA,"2007-07-24",43
"GLP003","MI","107001397",503,NA,NA,NA,"MIEXAM","Microscopic Examination",NA,NA,NA,NA,"NOT DONE","Organ/tissue was not examined",NA,"KIDNEY",NA,NA,NA,NA,"BILATERAL",NA,NA,NA,NA,"2007-07-24",43
"GLP003","MI","107001397",504,NA,NA,NA,"MIEXAM","Microscopic Examination",NA,NA,NA,NA,"NOT DONE","Organ/tissue was not examined",NA,"LIVER",NA,NA,NA,NA,NA,NA,NA,NA,NA,"2007-07-24",43
"GLP003","MI","107001397",505,NA,NA,NA,"MIEXAM","Microscopic Examination",NA,NA,NA,NA,"NOT DONE","Organ/tissue was not examined",NA,"LUNG",NA,NA,NA,NA,NA,NA,NA,NA,NA,"2007-07-24",43
"GLP003","MI","107001397",506,NA,NA,NA,"MIEXAM","Microscopic Examination",NA,NA,NA,NA,"NOT DONE","Organ/tissue was not examined",NA,"MUSCLE, QUADRICEPS FEMORIS",NA,NA,NA,NA,NA,NA,NA,NA,NA,"2007-07-24",43
"GLP003","MI","107001397",507,NA,NA,NA,"MIEXAM","Microscopic Examination",NA,NA,NA,NA,"NOT DONE","Organ/tissue was not examined",NA,"GLAND, MAMMARY",NA,NA,NA,NA,NA,NA,NA,NA,NA,"2007-07-24",43
"GLP003","MI","107001397",508,NA,NA,NA,"MIEXAM","Microscopic Examination",NA,NA,NA,NA,"NOT DONE","Organ/tissue was not examined",NA,"LYMPH NODE, SUBMANDIBULAR",NA,NA,NA,NA,NA,NA,NA,NA,NA,"2007-07-24",43
"GLP003","MI","107001397",509,NA,NA,NA,"MIEXAM","Microscopic Examination",NA,NA,NA,NA,"NOT DONE","Organ/tissue was not examined",NA,"GLAND, SALIVARY, SUBMANDIBULAR",NA,NA,NA,NA,NA,NA,NA,NA,NA,"2007-07-24",43
"GLP003","MI","107001397",510,NA,NA,NA,"MIEXAM","Microscopic Examination",NA,NA,NA,NA,"NOT DONE","Organ/tissue was not examined",NA,"LYMPH NODE, MESENTERIC",NA,NA,NA,NA,NA,NA,NA,NA,NA,"2007-07-24",43
"GLP003","MI","107001397",511,NA,NA,NA,"MIEXAM","Microscopic Examination",NA,NA,NA,NA,"NOT DONE","Organ/tissue was not examined",NA,"NERVE, OPTIC",NA,NA,NA,NA,"BILATERAL",NA,NA,NA,NA,"2007-07-24",43
"GLP003","MI","107001397",512,NA,NA,NA,"MIEXAM","Microscopic Examination",NA,NA,NA,NA,"NOT DONE","Organ/tissue was not examined",NA,"PANCREAS",NA,NA,NA,NA,NA,NA,NA,NA,NA,"2007-07-24",43
"GLP003","MI","107001397",513,NA,NA,NA,"MIEXAM","Microscopic Examination",NA,NA,NA,NA,"NOT DONE","Organ/tissue was not examined",NA,"GLAND, PARATHYROID",NA,NA,NA,NA,NA,NA,NA,NA,NA,"2007-07-24",43
"GLP003","MI","107001397",514,NA,NA,NA,"MIEXAM","Microscopic Examination",NA,NA,NA,NA,"NOT DONE","Organ/tissue was not examined",NA,"GLAND, PITUITARY",NA,NA,NA,NA,NA,NA,NA,NA,NA,"2007-07-24",43
"GLP003","MI","107001397",515,NA,NA,NA,"MIEXAM","Microscopic Examination",NA,NA,NA,NA,"NOT DONE","Organ/tissue was not examined",NA,"GLAND, PROSTATE",NA,NA,NA,NA,NA,NA,NA,NA,NA,"2007-07-24",43
"GLP003","MI","107001397",516,NA,NA,NA,"MIEXAM","Microscopic Examination",NA,NA,NA,NA,"NOT DONE","Organ/tissue was not examined",NA,"NERVE, SCIATIC",NA,NA,NA,NA,NA,NA,NA,NA,NA,"2007-07-24",43
"GLP003","MI","107001397",517,NA,NA,NA,"MIEXAM","Microscopic Examination",NA,NA,NA,NA,"NOT DONE","Organ/tissue was not examined",NA,"GLAND, SEMINAL VESICLE",NA,NA,NA,NA,"BILATERAL",NA,NA,NA,NA,"2007-07-24",43
"GLP003","MI","107001397",518,NA,NA,NA,"MIEXAM","Microscopic Examination",NA,NA,NA,NA,"NOT DONE","Organ/tissue was not examined",NA,"SKIN/SUBCUTIS",NA,NA,NA,NA,NA,NA,NA,NA,NA,"2007-07-24",43
"GLP003","MI","107001397",519,NA,NA,NA,"MIEXAM","Microscopic Examination",NA,NA,NA,NA,"NOT DONE","Organ/tissue was not examined",NA,"SPINAL CORD",NA,NA,NA,NA,NA,NA,NA,NA,NA,"2007-07-24",43
"GLP003","MI","107001397",520,NA,NA,NA,"MIEXAM","Microscopic Examination",NA,NA,NA,NA,"NOT DONE","Organ/tissue was not examined",NA,"SPLEEN",NA,NA,NA,NA,NA,NA,NA,NA,NA,"2007-07-24",43
"GLP003","MI","107001397",521,NA,NA,NA,"MIEXAM","Microscopic Examination",NA,NA,NA,NA,"NOT DONE","Organ/tissue was not examined",NA,"STOMACH",NA,NA,NA,NA,NA,NA,NA,NA,NA,"2007-07-24",43
"GLP003","MI","107001397",522,NA,NA,NA,"MIEXAM","Microscopic Examination",NA,NA,NA,NA,"NOT DONE","Organ/tissue was not examined",NA,"SYSTEMIC NEOPLASMS",NA,NA,NA,NA,NA,NA,NA,NA,NA,"2007-07-24",43
"GLP003","MI","107001397",523,NA,NA,NA,"MIEXAM","Microscopic Examination",NA,NA,NA,NA,"NOT DONE","Organ/tissue was not examined",NA,"TESTIS",NA,NA,NA,NA,"BILATERAL",NA,NA,NA,NA,"2007-07-24",43
"GLP003","MI","107001397",524,NA,NA,NA,"MIEXAM","Microscopic Examination",NA,NA,NA,NA,"NOT DONE","Organ/tissue was not examined",NA,"THYMUS",NA,NA,NA,NA,NA,NA,NA,NA,NA,"2007-07-24",43
"GLP003","MI","107001397",525,NA,NA,NA,"MIEXAM","Microscopic Examination",NA,NA,NA,NA,"NOT DONE","Organ/tissue was not examined",NA,"GLAND, THYROID",NA,NA,NA,NA,NA,NA,NA,NA,NA,"2007-07-24",43
"GLP003","MI","107001397",526,NA,NA,NA,"MIEXAM","Microscopic Examination",NA,NA,NA,NA,"NOT DONE","Organ/tissue was not examined",NA,"TONGUE",NA,NA,NA,NA,NA,NA,NA,NA,NA,"2007-07-24",43
"GLP003","MI","107001397",527,NA,NA,NA,"MIEXAM","Microscopic Examination",NA,NA,NA,NA,"NOT DONE","Organ/tissue was not examined",NA,"TRACHEA",NA,NA,NA,NA,NA,NA,NA,NA,NA,"2007-07-24",43
"GLP003","MI","107001397",528,NA,NA,NA,"MIEXAM","Microscopic Examination",NA,NA,NA,NA,"NOT DONE","Organ/tissue was not examined",NA,"URINARY BLADDER",NA,NA,NA,NA,NA,NA,NA,NA,NA,"2007-07-24",43
"GLP003","MI","107001397",529,NA,NA,NA,"MIEXAM","Microscopic Examination",NA,NA,NA,NA,"NOT DONE","Organ/tissue was not examined",NA,"BONE MARROW SMEAR",NA,NA,NA,NA,NA,NA,NA,NA,NA,"2007-07-24",43
"GLP003","MI","107001467",531,NA,NA,NA,"MIEXAM","Microscopic Examination",NA,NA,NA,NA,"NOT DONE","Organ/tissue was not examined",NA,"ADIPOSE TISSUE",NA,NA,NA,NA,NA,NA,NA,NA,NA,"2007-07-24",43
"GLP003","MI","107001467",532,NA,NA,NA,"MIEXAM","Microscopic Examination",NA,"NORMAL","NORMAL",NA,NA,NA,NA,"GLAND, ADRENAL",NA,NA,NA,NA,"BILATERAL",NA,NA,NA,NA,"2007-07-24",43
"GLP003","MI","107001467",533,NA,NA,NA,"MIEXAM","Microscopic Examination",NA,NA,NA,NA,"NOT DONE","Organ/tissue was not examined",NA,"ARTERY, AORTA",NA,NA,NA,NA,NA,NA,NA,NA,NA,"2007-07-24",43
"GLP003","MI","107001467",534,NA,NA,NA,"MIEXAM","Microscopic Examination",NA,NA,NA,NA,"NOT DONE","Organ/tissue was not examined",NA,"BONE MARROW, FEMUR",NA,NA,NA,NA,NA,NA,NA,NA,NA,"2007-07-24",43
"GLP003","MI","107001467",535,NA,NA,NA,"MIEXAM","Microscopic Examination",NA,NA,NA,NA,"NOT DONE","Organ/tissue was not examined",NA,"BONE MARROW, STERNUM",NA,NA,NA,NA,NA,NA,NA,NA,NA,"2007-07-24",43
"GLP003","MI","107001467",536,NA,NA,NA,"MIEXAM","Microscopic Examination",NA,NA,NA,NA,"NOT DONE","Organ/tissue was not examined",NA,"BONE, FEMUR",NA,NA,NA,NA,NA,NA,NA,NA,NA,"2007-07-24",43
"GLP003","MI","107001467",537,NA,NA,NA,"MIEXAM","Microscopic Examination",NA,NA,NA,NA,"NOT DONE","Organ/tissue was not examined",NA,"BONE, STERNUM",NA,NA,NA,NA,NA,NA,NA,NA,NA,"2007-07-24",43
"GLP003","MI","107001467",538,NA,NA,NA,"MIEXAM","Microscopic Examination",NA,NA,NA,NA,"NOT DONE","Organ/tissue was not examined",NA,"BRAIN",NA,NA,NA,NA,NA,NA,NA,NA,NA,"2007-07-24",43
"GLP003","MI","107001467",539,NA,NA,NA,"MIEXAM","Microscopic Examination",NA,NA,NA,NA,"NOT DONE","Organ/tissue was not examined",NA,"ADIPOSE TISSUE, BROWN",NA,NA,NA,NA,NA,NA,NA,NA,NA,"2007-07-24",43
"GLP003","MI","107001467",540,NA,NA,NA,"MIEXAM","Microscopic Examination",NA,NA,NA,NA,"NOT DONE","Organ/tissue was not examined",NA,"LARGE INTESTINE, CECUM",NA,NA,NA,NA,NA,NA,NA,NA,NA,"2007-07-24",43
"GLP003","MI","107001467",541,NA,NA,NA,"MIEXAM","Microscopic Examination",NA,NA,NA,NA,"NOT DONE","Organ/tissue was not examined",NA,"LARGE INTESTINE, COLON",NA,NA,NA,NA,NA,NA,NA,NA,NA,"2007-07-24",43
"GLP003","MI","107001467",542,NA,NA,NA,"MIEXAM","Microscopic Examination",NA,NA,NA,NA,"NOT DONE","Organ/tissue was not examined",NA,"MUSCLE, DIAPHRAGM",NA,NA,NA,NA,NA,NA,NA,NA,NA,"2007-07-24",43
"GLP003","MI","107001467",543,NA,NA,NA,"MIEXAM","Microscopic Examination",NA,NA,NA,NA,"NOT DONE","Organ/tissue was not examined",NA,"SMALL INTESTINE, DUODENUM",NA,NA,NA,NA,NA,NA,NA,NA,NA,"2007-07-24",43
"GLP003","MI","107001467",544,NA,NA,NA,"MIEXAM","Microscopic Examination",NA,NA,NA,NA,"NOT DONE","Organ/tissue was not examined",NA,"EPIDIDYMIS",NA,NA,NA,NA,"BILATERAL",NA,NA,NA,NA,"2007-07-24",43
"GLP003","MI","107001467",545,NA,NA,NA,"MIEXAM","Microscopic Examination",NA,NA,NA,NA,"NOT DONE","Organ/tissue was not examined",NA,"ESOPHAGUS",NA,NA,NA,NA,NA,NA,NA,NA,NA,"2007-07-24",43
"GLP003","MI","107001467",546,NA,NA,NA,"MIEXAM","Microscopic Examination",NA,NA,NA,NA,"NOT DONE","Organ/tissue was not examined",NA,"EYE",NA,NA,NA,NA,"BILATERAL",NA,NA,NA,NA,"2007-07-24",43
"GLP003","MI","107001467",547,NA,NA,NA,"MIEXAM","Microscopic Examination",NA,NA,NA,NA,"NOT DONE","Organ/tissue was not examined",NA,"GLAND, HARDERIAN",NA,NA,NA,NA,"BILATERAL",NA,NA,NA,NA,"2007-07-24",43
"GLP003","MI","107001467",548,NA,NA,NA,"MIEXAM","Microscopic Examination",NA,NA,NA,NA,"NOT DONE","Organ/tissue was not examined",NA,"HEART",NA,NA,NA,NA,NA,NA,NA,NA,NA,"2007-07-24",43
"GLP003","MI","107001467",549,NA,NA,NA,"MIEXAM","Microscopic Examination",NA,NA,NA,NA,"NOT DONE","Organ/tissue was not examined",NA,"SMALL INTESTINE, ILEUM",NA,NA,NA,NA,NA,NA,NA,NA,NA,"2007-07-24",43
"GLP003","MI","107001467",550,NA,NA,NA,"MIEXAM","Microscopic Examination",NA,NA,NA,NA,"NOT DONE","Organ/tissue was not examined",NA,"SMALL INTESTINE, JEJUNUM",NA,NA,NA,NA,NA,NA,NA,NA,NA,"2007-07-24",43
"GLP003","MI","107001467",551,NA,NA,NA,"MIEXAM","Microscopic Examination",NA,NA,NA,NA,"NOT DONE","Organ/tissue was not examined",NA,"KIDNEY",NA,NA,NA,NA,"BILATERAL",NA,NA,NA,NA,"2007-07-24",43
"GLP003","MI","107001467",552,NA,NA,NA,"MIEXAM","Microscopic Examination",NA,NA,NA,NA,"NOT DONE","Organ/tissue was not examined",NA,"LIVER",NA,NA,NA,NA,NA,NA,NA,NA,NA,"2007-07-24",43
"GLP003","MI","107001467",553,NA,NA,NA,"MIEXAM","Microscopic Examination",NA,NA,NA,NA,"NOT DONE","Organ/tissue was not examined",NA,"LUNG",NA,NA,NA,NA,NA,NA,NA,NA,NA,"2007-07-24",43
"GLP003","MI","107001467",554,NA,NA,NA,"MIEXAM","Microscopic Examination",NA,NA,NA,NA,"NOT DONE","Organ/tissue was not examined",NA,"MUSCLE, QUADRICEPS FEMORIS",NA,NA,NA,NA,NA,NA,NA,NA,NA,"2007-07-24",43
"GLP003","MI","107001467",555,NA,NA,NA,"MIEXAM","Microscopic Examination",NA,NA,NA,NA,"NOT DONE","Organ/tissue was not examined",NA,"GLAND, MAMMARY",NA,NA,NA,NA,NA,NA,NA,NA,NA,"2007-07-24",43
"GLP003","MI","107001467",556,NA,NA,NA,"MIEXAM","Microscopic Examination",NA,NA,NA,NA,"NOT DONE","Organ/tissue was not examined",NA,"LYMPH NODE, SUBMANDIBULAR",NA,NA,NA,NA,NA,NA,NA,NA,NA,"2007-07-24",43
"GLP003","MI","107001467",557,NA,NA,NA,"MIEXAM","Microscopic Examination",NA,NA,NA,NA,"NOT DONE","Organ/tissue was not examined",NA,"GLAND, SALIVARY, SUBMANDIBULAR",NA,NA,NA,NA,NA,NA,NA,NA,NA,"2007-07-24",43
"GLP003","MI","107001467",558,NA,NA,NA,"MIEXAM","Microscopic Examination",NA,NA,NA,NA,"NOT DONE","Organ/tissue was not examined",NA,"LYMPH NODE, MESENTERIC",NA,NA,NA,NA,NA,NA,NA,NA,NA,"2007-07-24",43
"GLP003","MI","107001467",559,NA,NA,NA,"MIEXAM","Microscopic Examination",NA,NA,NA,NA,"NOT DONE","Organ/tissue was not examined",NA,"NERVE, OPTIC",NA,NA,NA,NA,"BILATERAL",NA,NA,NA,NA,"2007-07-24",43
"GLP003","MI","107001467",560,NA,NA,NA,"MIEXAM","Microscopic Examination",NA,NA,NA,NA,"NOT DONE","Organ/tissue was not examined",NA,"PANCREAS",NA,NA,NA,NA,NA,NA,NA,NA,NA,"2007-07-24",43
"GLP003","MI","107001467",561,NA,NA,NA,"MIEXAM","Microscopic Examination",NA,NA,NA,NA,"NOT DONE","Organ/tissue was not examined",NA,"GLAND, PARATHYROID",NA,NA,NA,NA,NA,NA,NA,NA,NA,"2007-07-24",43
"GLP003","MI","107001467",562,NA,NA,NA,"MIEXAM","Microscopic Examination",NA,NA,NA,NA,"NOT DONE","Organ/tissue was not examined",NA,"GLAND, PITUITARY",NA,NA,NA,NA,NA,NA,NA,NA,NA,"2007-07-24",43
"GLP003","MI","107001467",563,NA,NA,NA,"MIEXAM","Microscopic Examination",NA,NA,NA,NA,"NOT DONE","Organ/tissue was not examined",NA,"GLAND, PROSTATE",NA,NA,NA,NA,NA,NA,NA,NA,NA,"2007-07-24",43
"GLP003","MI","107001467",564,NA,NA,NA,"MIEXAM","Microscopic Examination",NA,NA,NA,NA,"NOT DONE","Organ/tissue was not examined",NA,"NERVE, SCIATIC",NA,NA,NA,NA,NA,NA,NA,NA,NA,"2007-07-24",43
"GLP003","MI","107001467",565,NA,NA,NA,"MIEXAM","Microscopic Examination",NA,NA,NA,NA,"NOT DONE","Organ/tissue was not examined",NA,"GLAND, SEMINAL VESICLE",NA,NA,NA,NA,"BILATERAL",NA,NA,NA,NA,"2007-07-24",43
"GLP003","MI","107001467",566,NA,NA,NA,"MIEXAM","Microscopic Examination",NA,NA,NA,NA,"NOT DONE","Organ/tissue was not examined",NA,"SKIN/SUBCUTIS",NA,NA,NA,NA,NA,NA,NA,NA,NA,"2007-07-24",43
"GLP003","MI","107001467",567,NA,NA,NA,"MIEXAM","Microscopic Examination",NA,NA,NA,NA,"NOT DONE","Organ/tissue was not examined",NA,"SPINAL CORD",NA,NA,NA,NA,NA,NA,NA,NA,NA,"2007-07-24",43
"GLP003","MI","107001467",568,NA,NA,NA,"MIEXAM","Microscopic Examination",NA,NA,NA,NA,"NOT DONE","Organ/tissue was not examined",NA,"SPLEEN",NA,NA,NA,NA,NA,NA,NA,NA,NA,"2007-07-24",43
"GLP003","MI","107001467",569,NA,NA,NA,"MIEXAM","Microscopic Examination",NA,NA,NA,NA,"NOT DONE","Organ/tissue was not examined",NA,"STOMACH",NA,NA,NA,NA,NA,NA,NA,NA,NA,"2007-07-24",43
"GLP003","MI","107001467",570,NA,NA,NA,"MIEXAM","Microscopic Examination",NA,NA,NA,NA,"NOT DONE","Organ/tissue was not examined",NA,"SYSTEMIC NEOPLASMS",NA,NA,NA,NA,NA,NA,NA,NA,NA,"2007-07-24",43
"GLP003","MI","107001467",571,NA,NA,NA,"MIEXAM","Microscopic Examination",NA,NA,NA,NA,"NOT DONE","Organ/tissue was not examined",NA,"TESTIS",NA,NA,NA,NA,"BILATERAL",NA,NA,NA,NA,"2007-07-24",43
"GLP003","MI","107001467",572,NA,NA,NA,"MIEXAM","Microscopic Examination",NA,NA,NA,NA,"NOT DONE","Organ/tissue was not examined",NA,"THYMUS",NA,NA,NA,NA,NA,NA,NA,NA,NA,"2007-07-24",43
"GLP003","MI","107001467",573,NA,NA,NA,"MIEXAM","Microscopic Examination",NA,NA,NA,NA,"NOT DONE","Organ/tissue was not examined",NA,"GLAND, THYROID",NA,NA,NA,NA,NA,NA,NA,NA,NA,"2007-07-24",43
"GLP003","MI","107001467",574,NA,NA,NA,"MIEXAM","Microscopic Examination",NA,NA,NA,NA,"NOT DONE","Organ/tissue was not examined",NA,"TONGUE",NA,NA,NA,NA,NA,NA,NA,NA,NA,"2007-07-24",43
"GLP003","MI","107001467",575,NA,NA,NA,"MIEXAM","Microscopic Examination",NA,NA,NA,NA,"NOT DONE","Organ/tissue was not examined",NA,"TRACHEA",NA,NA,NA,NA,NA,NA,NA,NA,NA,"2007-07-24",43
"GLP003","MI","107001467",576,NA,NA,NA,"MIEXAM","Microscopic Examination",NA,NA,NA,NA,"NOT DONE","Organ/tissue was not examined",NA,"URINARY BLADDER",NA,NA,NA,NA,NA,NA,NA,NA,NA,"2007-07-24",43
"GLP003","MI","107001467",577,NA,NA,NA,"MIEXAM","Microscopic Examination",NA,NA,NA,NA,"NOT DONE","Organ/tissue was not examined",NA,"BONE MARROW SMEAR",NA,NA,NA,NA,NA,NA,NA,NA,NA,"2007-07-24",43
"GLP003","MI","107001387",579,NA,NA,NA,"MIEXAM","Microscopic Examination",NA,NA,NA,NA,"NOT DONE","Organ/tissue was not examined",NA,"ADIPOSE TISSUE",NA,NA,NA,NA,NA,NA,NA,NA,NA,"2007-07-24",43
"GLP003","MI","107001387",580,NA,NA,NA,"MIEXAM","Microscopic Examination",NA,"NORMAL","NORMAL",NA,NA,NA,NA,"GLAND, ADRENAL",NA,NA,NA,NA,"BILATERAL",NA,NA,NA,NA,"2007-07-24",43
"GLP003","MI","107001387",581,NA,NA,NA,"MIEXAM","Microscopic Examination",NA,NA,NA,NA,"NOT DONE","Organ/tissue was not examined",NA,"ARTERY, AORTA",NA,NA,NA,NA,NA,NA,NA,NA,NA,"2007-07-24",43
"GLP003","MI","107001387",582,NA,NA,NA,"MIEXAM","Microscopic Examination",NA,NA,NA,NA,"NOT DONE","Organ/tissue was not examined",NA,"BONE MARROW, FEMUR",NA,NA,NA,NA,NA,NA,NA,NA,NA,"2007-07-24",43
"GLP003","MI","107001387",583,NA,NA,NA,"MIEXAM","Microscopic Examination",NA,NA,NA,NA,"NOT DONE","Organ/tissue was not examined",NA,"BONE MARROW, STERNUM",NA,NA,NA,NA,NA,NA,NA,NA,NA,"2007-07-24",43
"GLP003","MI","107001387",584,NA,NA,NA,"MIEXAM","Microscopic Examination",NA,NA,NA,NA,"NOT DONE","Organ/tissue was not examined",NA,"BONE, FEMUR",NA,NA,NA,NA,NA,NA,NA,NA,NA,"2007-07-24",43
"GLP003","MI","107001387",585,NA,NA,NA,"MIEXAM","Microscopic Examination",NA,NA,NA,NA,"NOT DONE","Organ/tissue was not examined",NA,"BONE, STERNUM",NA,NA,NA,NA,NA,NA,NA,NA,NA,"2007-07-24",43
"GLP003","MI","107001387",586,NA,NA,NA,"MIEXAM","Microscopic Examination",NA,NA,NA,NA,"NOT DONE","Organ/tissue was not examined",NA,"BRAIN",NA,NA,NA,NA,NA,NA,NA,NA,NA,"2007-07-24",43
"GLP003","MI","107001387",587,NA,NA,NA,"MIEXAM","Microscopic Examination",NA,NA,NA,NA,"NOT DONE","Organ/tissue was not examined",NA,"ADIPOSE TISSUE, BROWN",NA,NA,NA,NA,NA,NA,NA,NA,NA,"2007-07-24",43
"GLP003","MI","107001387",588,NA,NA,NA,"MIEXAM","Microscopic Examination",NA,NA,NA,NA,"NOT DONE","Organ/tissue was not examined",NA,"LARGE INTESTINE, CECUM",NA,NA,NA,NA,NA,NA,NA,NA,NA,"2007-07-24",43
"GLP003","MI","107001387",589,NA,NA,NA,"MIEXAM","Microscopic Examination",NA,NA,NA,NA,"NOT DONE","Organ/tissue was not examined",NA,"LARGE INTESTINE, COLON",NA,NA,NA,NA,NA,NA,NA,NA,NA,"2007-07-24",43
"GLP003","MI","107001387",590,NA,NA,NA,"MIEXAM","Microscopic Examination",NA,NA,NA,NA,"NOT DONE","Organ/tissue was not examined",NA,"MUSCLE, DIAPHRAGM",NA,NA,NA,NA,NA,NA,NA,NA,NA,"2007-07-24",43
"GLP003","MI","107001387",591,NA,NA,NA,"MIEXAM","Microscopic Examination",NA,NA,NA,NA,"NOT DONE","Organ/tissue was not examined",NA,"SMALL INTESTINE, DUODENUM",NA,NA,NA,NA,NA,NA,NA,NA,NA,"2007-07-24",43
"GLP003","MI","107001387",592,NA,NA,NA,"MIEXAM","Microscopic Examination",NA,NA,NA,NA,"NOT DONE","Organ/tissue was not examined",NA,"EPIDIDYMIS",NA,NA,NA,NA,"BILATERAL",NA,NA,NA,NA,"2007-07-24",43
"GLP003","MI","107001387",593,NA,NA,NA,"MIEXAM","Microscopic Examination",NA,NA,NA,NA,"NOT DONE","Organ/tissue was not examined",NA,"ESOPHAGUS",NA,NA,NA,NA,NA,NA,NA,NA,NA,"2007-07-24",43
"GLP003","MI","107001387",594,NA,NA,NA,"MIEXAM","Microscopic Examination",NA,NA,NA,NA,"NOT DONE","Organ/tissue was not examined",NA,"EYE",NA,NA,NA,NA,"BILATERAL",NA,NA,NA,NA,"2007-07-24",43
"GLP003","MI","107001387",595,NA,NA,NA,"MIEXAM","Microscopic Examination",NA,NA,NA,NA,"NOT DONE","Organ/tissue was not examined",NA,"GLAND, HARDERIAN",NA,NA,NA,NA,"BILATERAL",NA,NA,NA,NA,"2007-07-24",43
"GLP003","MI","107001387",596,NA,NA,NA,"MIEXAM","Microscopic Examination",NA,NA,NA,NA,"NOT DONE","Organ/tissue was not examined",NA,"HEART",NA,NA,NA,NA,NA,NA,NA,NA,NA,"2007-07-24",43
"GLP003","MI","107001387",597,NA,NA,NA,"MIEXAM","Microscopic Examination",NA,NA,NA,NA,"NOT DONE","Organ/tissue was not examined",NA,"SMALL INTESTINE, ILEUM",NA,NA,NA,NA,NA,NA,NA,NA,NA,"2007-07-24",43
"GLP003","MI","107001387",598,NA,NA,NA,"MIEXAM","Microscopic Examination",NA,NA,NA,NA,"NOT DONE","Organ/tissue was not examined",NA,"SMALL INTESTINE, JEJUNUM",NA,NA,NA,NA,NA,NA,NA,NA,NA,"2007-07-24",43
"GLP003","MI","107001387",599,NA,NA,NA,"MIEXAM","Microscopic Examination",NA,NA,NA,NA,"NOT DONE","Organ/tissue was not examined",NA,"KIDNEY",NA,NA,NA,NA,"BILATERAL",NA,NA,NA,NA,"2007-07-24",43
"GLP003","MI","107001387",600,NA,NA,NA,"MIEXAM","Microscopic Examination",NA,NA,NA,NA,"NOT DONE","Organ/tissue was not examined",NA,"LIVER",NA,NA,NA,NA,NA,NA,NA,NA,NA,"2007-07-24",43
"GLP003","MI","107001387",601,NA,NA,NA,"MIEXAM","Microscopic Examination",NA,NA,NA,NA,"NOT DONE","Organ/tissue was not examined",NA,"LUNG",NA,NA,NA,NA,NA,NA,NA,NA,NA,"2007-07-24",43
"GLP003","MI","107001387",602,NA,NA,NA,"MIEXAM","Microscopic Examination",NA,NA,NA,NA,"NOT DONE","Organ/tissue was not examined",NA,"MUSCLE, QUADRICEPS FEMORIS",NA,NA,NA,NA,NA,NA,NA,NA,NA,"2007-07-24",43
"GLP003","MI","107001387",603,NA,NA,NA,"MIEXAM","Microscopic Examination",NA,NA,NA,NA,"NOT DONE","Organ/tissue was not examined",NA,"GLAND, MAMMARY",NA,NA,NA,NA,NA,NA,NA,NA,NA,"2007-07-24",43
"GLP003","MI","107001387",604,NA,NA,NA,"MIEXAM","Microscopic Examination",NA,NA,NA,NA,"NOT DONE","Organ/tissue was not examined",NA,"LYMPH NODE, SUBMANDIBULAR",NA,NA,NA,NA,NA,NA,NA,NA,NA,"2007-07-24",43
"GLP003","MI","107001387",605,NA,NA,NA,"MIEXAM","Microscopic Examination",NA,NA,NA,NA,"NOT DONE","Organ/tissue was not examined",NA,"GLAND, SALIVARY, SUBMANDIBULAR",NA,NA,NA,NA,NA,NA,NA,NA,NA,"2007-07-24",43
"GLP003","MI","107001387",606,NA,NA,NA,"MIEXAM","Microscopic Examination",NA,NA,NA,NA,"NOT DONE","Organ/tissue was not examined",NA,"LYMPH NODE, MESENTERIC",NA,NA,NA,NA,NA,NA,NA,NA,NA,"2007-07-24",43
"GLP003","MI","107001387",607,NA,NA,NA,"MIEXAM","Microscopic Examination",NA,NA,NA,NA,"NOT DONE","Organ/tissue was not examined",NA,"NERVE, OPTIC",NA,NA,NA,NA,"BILATERAL",NA,NA,NA,NA,"2007-07-24",43
"GLP003","MI","107001387",608,NA,NA,NA,"MIEXAM","Microscopic Examination",NA,NA,NA,NA,"NOT DONE","Organ/tissue was not examined",NA,"PANCREAS",NA,NA,NA,NA,NA,NA,NA,NA,NA,"2007-07-24",43
"GLP003","MI","107001387",609,NA,NA,NA,"MIEXAM","Microscopic Examination",NA,NA,NA,NA,"NOT DONE","Organ/tissue was not examined",NA,"GLAND, PARATHYROID",NA,NA,NA,NA,NA,NA,NA,NA,NA,"2007-07-24",43
"GLP003","MI","107001387",610,NA,NA,NA,"MIEXAM","Microscopic Examination",NA,NA,NA,NA,"NOT DONE","Organ/tissue was not examined",NA,"GLAND, PITUITARY",NA,NA,NA,NA,NA,NA,NA,NA,NA,"2007-07-24",43
"GLP003","MI","107001387",611,NA,NA,NA,"MIEXAM","Microscopic Examination",NA,NA,NA,NA,"NOT DONE","Organ/tissue was not examined",NA,"GLAND, PROSTATE",NA,NA,NA,NA,NA,NA,NA,NA,NA,"2007-07-24",43
"GLP003","MI","107001387",612,NA,NA,NA,"MIEXAM","Microscopic Examination",NA,NA,NA,NA,"NOT DONE","Organ/tissue was not examined",NA,"NERVE, SCIATIC",NA,NA,NA,NA,NA,NA,NA,NA,NA,"2007-07-24",43
"GLP003","MI","107001387",613,NA,NA,NA,"MIEXAM","Microscopic Examination",NA,NA,NA,NA,"NOT DONE","Organ/tissue was not examined",NA,"GLAND, SEMINAL VESICLE",NA,NA,NA,NA,"BILATERAL",NA,NA,NA,NA,"2007-07-24",43
"GLP003","MI","107001387",614,NA,NA,NA,"MIEXAM","Microscopic Examination",NA,NA,NA,NA,"NOT DONE","Organ/tissue was not examined",NA,"SKIN/SUBCUTIS",NA,NA,NA,NA,NA,NA,NA,NA,NA,"2007-07-24",43
"GLP003","MI","107001387",615,NA,NA,NA,"MIEXAM","Microscopic Examination",NA,NA,NA,NA,"NOT DONE","Organ/tissue was not examined",NA,"SPINAL CORD",NA,NA,NA,NA,NA,NA,NA,NA,NA,"2007-07-24",43
"GLP003","MI","107001387",616,NA,NA,NA,"MIEXAM","Microscopic Examination",NA,NA,NA,NA,"NOT DONE","Organ/tissue was not examined",NA,"SPLEEN",NA,NA,NA,NA,NA,NA,NA,NA,NA,"2007-07-24",43
"GLP003","MI","107001387",617,NA,NA,NA,"MIEXAM","Microscopic Examination",NA,NA,NA,NA,"NOT DONE","Organ/tissue was not examined",NA,"STOMACH",NA,NA,NA,NA,NA,NA,NA,NA,NA,"2007-07-24",43
"GLP003","MI","107001387",618,NA,NA,NA,"MIEXAM","Microscopic Examination",NA,NA,NA,NA,"NOT DONE","Organ/tissue was not examined",NA,"SYSTEMIC NEOPLASMS",NA,NA,NA,NA,NA,NA,NA,NA,NA,"2007-07-24",43
"GLP003","MI","107001387",619,NA,NA,NA,"MIEXAM","Microscopic Examination",NA,NA,NA,NA,"NOT DONE","Organ/tissue was not examined",NA,"TESTIS",NA,NA,NA,NA,"BILATERAL",NA,NA,NA,NA,"2007-07-24",43
"GLP003","MI","107001387",620,NA,NA,NA,"MIEXAM","Microscopic Examination",NA,NA,NA,NA,"NOT DONE","Organ/tissue was not examined",NA,"THYMUS",NA,NA,NA,NA,NA,NA,NA,NA,NA,"2007-07-24",43
"GLP003","MI","107001387",621,NA,NA,NA,"MIEXAM","Microscopic Examination",NA,NA,NA,NA,"NOT DONE","Organ/tissue was not examined",NA,"GLAND, THYROID",NA,NA,NA,NA,NA,NA,NA,NA,NA,"2007-07-24",43
"GLP003","MI","107001387",622,NA,NA,NA,"MIEXAM","Microscopic Examination",NA,NA,NA,NA,"NOT DONE","Organ/tissue was not examined",NA,"TONGUE",NA,NA,NA,NA,NA,NA,NA,NA,NA,"2007-07-24",43
"GLP003","MI","107001387",623,NA,NA,NA,"MIEXAM","Microscopic Examination",NA,NA,NA,NA,"NOT DONE","Organ/tissue was not examined",NA,"TRACHEA",NA,NA,NA,NA,NA,NA,NA,NA,NA,"2007-07-24",43
"GLP003","MI","107001387",624,NA,NA,NA,"MIEXAM","Microscopic Examination",NA,NA,NA,NA,"NOT DONE","Organ/tissue was not examined",NA,"URINARY BLADDER",NA,NA,NA,NA,NA,NA,NA,NA,NA,"2007-07-24",43
"GLP003","MI","107001387",625,NA,NA,NA,"MIEXAM","Microscopic Examination",NA,NA,NA,NA,"NOT DONE","Organ/tissue was not examined",NA,"BONE MARROW SMEAR",NA,NA,NA,NA,NA,NA,NA,NA,NA,"2007-07-24",43
"GLP003","MI","107001384",627,NA,NA,NA,"MIEXAM","Microscopic Examination",NA,NA,NA,NA,"NOT DONE","Organ/tissue was not examined",NA,"ADIPOSE TISSUE",NA,NA,NA,NA,NA,NA,NA,NA,NA,"2007-07-24",43
"GLP003","MI","107001384",628,NA,NA,NA,"MIEXAM","Microscopic Examination",NA,"NORMAL","NORMAL",NA,NA,NA,NA,"GLAND, ADRENAL",NA,NA,NA,NA,"BILATERAL",NA,NA,NA,NA,"2007-07-24",43
"GLP003","MI","107001384",629,NA,NA,NA,"MIEXAM","Microscopic Examination",NA,NA,NA,NA,"NOT DONE","Organ/tissue was not examined",NA,"ARTERY, AORTA",NA,NA,NA,NA,NA,NA,NA,NA,NA,"2007-07-24",43
"GLP003","MI","107001384",630,NA,NA,NA,"MIEXAM","Microscopic Examination",NA,NA,NA,NA,"NOT DONE","Organ/tissue was not examined",NA,"BONE MARROW, FEMUR",NA,NA,NA,NA,NA,NA,NA,NA,NA,"2007-07-24",43
"GLP003","MI","107001384",631,NA,NA,NA,"MIEXAM","Microscopic Examination",NA,NA,NA,NA,"NOT DONE","Organ/tissue was not examined",NA,"BONE MARROW, STERNUM",NA,NA,NA,NA,NA,NA,NA,NA,NA,"2007-07-24",43
"GLP003","MI","107001384",632,NA,NA,NA,"MIEXAM","Microscopic Examination",NA,NA,NA,NA,"NOT DONE","Organ/tissue was not examined",NA,"BONE, FEMUR",NA,NA,NA,NA,NA,NA,NA,NA,NA,"2007-07-24",43
"GLP003","MI","107001384",633,NA,NA,NA,"MIEXAM","Microscopic Examination",NA,NA,NA,NA,"NOT DONE","Organ/tissue was not examined",NA,"BONE, STERNUM",NA,NA,NA,NA,NA,NA,NA,NA,NA,"2007-07-24",43
"GLP003","MI","107001384",634,NA,NA,NA,"MIEXAM","Microscopic Examination",NA,NA,NA,NA,"NOT DONE","Organ/tissue was not examined",NA,"BRAIN",NA,NA,NA,NA,NA,NA,NA,NA,NA,"2007-07-24",43
"GLP003","MI","107001384",635,NA,NA,NA,"MIEXAM","Microscopic Examination",NA,NA,NA,NA,"NOT DONE","Organ/tissue was not examined",NA,"ADIPOSE TISSUE, BROWN",NA,NA,NA,NA,NA,NA,NA,NA,NA,"2007-07-24",43
"GLP003","MI","107001384",636,NA,NA,NA,"MIEXAM","Microscopic Examination",NA,NA,NA,NA,"NOT DONE","Organ/tissue was not examined",NA,"LARGE INTESTINE, CECUM",NA,NA,NA,NA,NA,NA,NA,NA,NA,"2007-07-24",43
"GLP003","MI","107001384",637,NA,NA,NA,"MIEXAM","Microscopic Examination",NA,NA,NA,NA,"NOT DONE","Organ/tissue was not examined",NA,"LARGE INTESTINE, COLON",NA,NA,NA,NA,NA,NA,NA,NA,NA,"2007-07-24",43
"GLP003","MI","107001384",638,NA,NA,NA,"MIEXAM","Microscopic Examination",NA,NA,NA,NA,"NOT DONE","Organ/tissue was not examined",NA,"MUSCLE, DIAPHRAGM",NA,NA,NA,NA,NA,NA,NA,NA,NA,"2007-07-24",43
"GLP003","MI","107001384",639,NA,NA,NA,"MIEXAM","Microscopic Examination",NA,NA,NA,NA,"NOT DONE","Organ/tissue was not examined",NA,"SMALL INTESTINE, DUODENUM",NA,NA,NA,NA,NA,NA,NA,NA,NA,"2007-07-24",43
"GLP003","MI","107001384",640,NA,NA,NA,"MIEXAM","Microscopic Examination",NA,NA,NA,NA,"NOT DONE","Organ/tissue was not examined",NA,"EPIDIDYMIS",NA,NA,NA,NA,"BILATERAL",NA,NA,NA,NA,"2007-07-24",43
"GLP003","MI","107001384",641,NA,NA,NA,"MIEXAM","Microscopic Examination",NA,NA,NA,NA,"NOT DONE","Organ/tissue was not examined",NA,"ESOPHAGUS",NA,NA,NA,NA,NA,NA,NA,NA,NA,"2007-07-24",43
"GLP003","MI","107001384",642,NA,NA,NA,"MIEXAM","Microscopic Examination",NA,NA,NA,NA,"NOT DONE","Organ/tissue was not examined",NA,"EYE",NA,NA,NA,NA,"BILATERAL",NA,NA,NA,NA,"2007-07-24",43
"GLP003","MI","107001384",643,NA,NA,NA,"MIEXAM","Microscopic Examination",NA,NA,NA,NA,"NOT DONE","Organ/tissue was not examined",NA,"GLAND, HARDERIAN",NA,NA,NA,NA,"BILATERAL",NA,NA,NA,NA,"2007-07-24",43
"GLP003","MI","107001384",644,NA,NA,NA,"MIEXAM","Microscopic Examination",NA,NA,NA,NA,"NOT DONE","Organ/tissue was not examined",NA,"HEART",NA,NA,NA,NA,NA,NA,NA,NA,NA,"2007-07-24",43
"GLP003","MI","107001384",645,NA,NA,NA,"MIEXAM","Microscopic Examination",NA,NA,NA,NA,"NOT DONE","Organ/tissue was not examined",NA,"SMALL INTESTINE, ILEUM",NA,NA,NA,NA,NA,NA,NA,NA,NA,"2007-07-24",43
"GLP003","MI","107001384",646,NA,NA,NA,"MIEXAM","Microscopic Examination",NA,NA,NA,NA,"NOT DONE","Organ/tissue was not examined",NA,"SMALL INTESTINE, JEJUNUM",NA,NA,NA,NA,NA,NA,NA,NA,NA,"2007-07-24",43
"GLP003","MI","107001384",647,NA,NA,NA,"MIEXAM","Microscopic Examination",NA,NA,NA,NA,"NOT DONE","Organ/tissue was not examined",NA,"KIDNEY",NA,NA,NA,NA,"BILATERAL",NA,NA,NA,NA,"2007-07-24",43
"GLP003","MI","107001384",648,NA,NA,NA,"MIEXAM","Microscopic Examination",NA,NA,NA,NA,"NOT DONE","Organ/tissue was not examined",NA,"LIVER",NA,NA,NA,NA,NA,NA,NA,NA,NA,"2007-07-24",43
"GLP003","MI","107001384",649,NA,NA,NA,"MIEXAM","Microscopic Examination",NA,NA,NA,NA,"NOT DONE","Organ/tissue was not examined",NA,"LUNG",NA,NA,NA,NA,NA,NA,NA,NA,NA,"2007-07-24",43
"GLP003","MI","107001384",650,NA,NA,NA,"MIEXAM","Microscopic Examination",NA,NA,NA,NA,"NOT DONE","Organ/tissue was not examined",NA,"MUSCLE, QUADRICEPS FEMORIS",NA,NA,NA,NA,NA,NA,NA,NA,NA,"2007-07-24",43
"GLP003","MI","107001384",651,NA,NA,NA,"MIEXAM","Microscopic Examination",NA,NA,NA,NA,"NOT DONE","Organ/tissue was not examined",NA,"GLAND, MAMMARY",NA,NA,NA,NA,NA,NA,NA,NA,NA,"2007-07-24",43
"GLP003","MI","107001384",652,NA,NA,NA,"MIEXAM","Microscopic Examination",NA,NA,NA,NA,"NOT DONE","Organ/tissue was not examined",NA,"LYMPH NODE, SUBMANDIBULAR",NA,NA,NA,NA,NA,NA,NA,NA,NA,"2007-07-24",43
"GLP003","MI","107001384",653,NA,NA,NA,"MIEXAM","Microscopic Examination",NA,NA,NA,NA,"NOT DONE","Organ/tissue was not examined",NA,"GLAND, SALIVARY, SUBMANDIBULAR",NA,NA,NA,NA,NA,NA,NA,NA,NA,"2007-07-24",43
"GLP003","MI","107001384",654,NA,NA,NA,"MIEXAM","Microscopic Examination",NA,NA,NA,NA,"NOT DONE","Organ/tissue was not examined",NA,"LYMPH NODE, MESENTERIC",NA,NA,NA,NA,NA,NA,NA,NA,NA,"2007-07-24",43
"GLP003","MI","107001384",655,NA,NA,NA,"MIEXAM","Microscopic Examination",NA,NA,NA,NA,"NOT DONE","Organ/tissue was not examined",NA,"NERVE, OPTIC",NA,NA,NA,NA,"BILATERAL",NA,NA,NA,NA,"2007-07-24",43
"GLP003","MI","107001384",656,NA,NA,NA,"MIEXAM","Microscopic Examination",NA,NA,NA,NA,"NOT DONE","Organ/tissue was not examined",NA,"PANCREAS",NA,NA,NA,NA,NA,NA,NA,NA,NA,"2007-07-24",43
"GLP003","MI","107001384",657,NA,NA,NA,"MIEXAM","Microscopic Examination",NA,NA,NA,NA,"NOT DONE","Organ/tissue was not examined",NA,"GLAND, PARATHYROID",NA,NA,NA,NA,NA,NA,NA,NA,NA,"2007-07-24",43
"GLP003","MI","107001384",658,NA,NA,NA,"MIEXAM","Microscopic Examination",NA,NA,NA,NA,"NOT DONE","Organ/tissue was not examined",NA,"GLAND, PITUITARY",NA,NA,NA,NA,NA,NA,NA,NA,NA,"2007-07-24",43
"GLP003","MI","107001384",659,NA,NA,NA,"MIEXAM","Microscopic Examination",NA,NA,NA,NA,"NOT DONE","Organ/tissue was not examined",NA,"GLAND, PROSTATE",NA,NA,NA,NA,NA,NA,NA,NA,NA,"2007-07-24",43
"GLP003","MI","107001384",660,NA,NA,NA,"MIEXAM","Microscopic Examination",NA,NA,NA,NA,"NOT DONE","Organ/tissue was not examined",NA,"NERVE, SCIATIC",NA,NA,NA,NA,NA,NA,NA,NA,NA,"2007-07-24",43
"GLP003","MI","107001384",661,NA,NA,NA,"MIEXAM","Microscopic Examination",NA,NA,NA,NA,"NOT DONE","Organ/tissue was not examined",NA,"GLAND, SEMINAL VESICLE",NA,NA,NA,NA,"BILATERAL",NA,NA,NA,NA,"2007-07-24",43
"GLP003","MI","107001384",662,NA,NA,NA,"MIEXAM","Microscopic Examination",NA,NA,NA,NA,"NOT DONE","Organ/tissue was not examined",NA,"SKIN/SUBCUTIS",NA,NA,NA,NA,NA,NA,NA,NA,NA,"2007-07-24",43
"GLP003","MI","107001384",663,NA,NA,NA,"MIEXAM","Microscopic Examination",NA,NA,NA,NA,"NOT DONE","Organ/tissue was not examined",NA,"SPINAL CORD",NA,NA,NA,NA,NA,NA,NA,NA,NA,"2007-07-24",43
"GLP003","MI","107001384",664,NA,NA,NA,"MIEXAM","Microscopic Examination",NA,NA,NA,NA,"NOT DONE","Organ/tissue was not examined",NA,"SPLEEN",NA,NA,NA,NA,NA,NA,NA,NA,NA,"2007-07-24",43
"GLP003","MI","107001384",665,NA,NA,NA,"MIEXAM","Microscopic Examination",NA,NA,NA,NA,"NOT DONE","Organ/tissue was not examined",NA,"STOMACH",NA,NA,NA,NA,NA,NA,NA,NA,NA,"2007-07-24",43
"GLP003","MI","107001384",666,NA,NA,NA,"MIEXAM","Microscopic Examination",NA,NA,NA,NA,"NOT DONE","Organ/tissue was not examined",NA,"SYSTEMIC NEOPLASMS",NA,NA,NA,NA,NA,NA,NA,NA,NA,"2007-07-24",43
"GLP003","MI","107001384",667,NA,NA,NA,"MIEXAM","Microscopic Examination",NA,NA,NA,NA,"NOT DONE","Organ/tissue was not examined",NA,"TESTIS",NA,NA,NA,NA,"BILATERAL",NA,NA,NA,NA,"2007-07-24",43
"GLP003","MI","107001384",668,NA,NA,NA,"MIEXAM","Microscopic Examination",NA,NA,NA,NA,"NOT DONE","Organ/tissue was not examined",NA,"THYMUS",NA,NA,NA,NA,NA,NA,NA,NA,NA,"2007-07-24",43
"GLP003","MI","107001384",669,NA,NA,NA,"MIEXAM","Microscopic Examination",NA,NA,NA,NA,"NOT DONE","Organ/tissue was not examined",NA,"GLAND, THYROID",NA,NA,NA,NA,NA,NA,NA,NA,NA,"2007-07-24",43
"GLP003","MI","107001384",670,NA,NA,NA,"MIEXAM","Microscopic Examination",NA,NA,NA,NA,"NOT DONE","Organ/tissue was not examined",NA,"TONGUE",NA,NA,NA,NA,NA,NA,NA,NA,NA,"2007-07-24",43
"GLP003","MI","107001384",671,NA,NA,NA,"MIEXAM","Microscopic Examination",NA,NA,NA,NA,"NOT DONE","Organ/tissue was not examined",NA,"TRACHEA",NA,NA,NA,NA,NA,NA,NA,NA,NA,"2007-07-24",43
"GLP003","MI","107001384",672,NA,NA,NA,"MIEXAM","Microscopic Examination",NA,NA,NA,NA,"NOT DONE","Organ/tissue was not examined",NA,"URINARY BLADDER",NA,NA,NA,NA,NA,NA,NA,NA,NA,"2007-07-24",43
"GLP003","MI","107001384",673,NA,NA,NA,"MIEXAM","Microscopic Examination",NA,NA,NA,NA,"NOT DONE","Organ/tissue was not examined",NA,"BONE MARROW SMEAR",NA,NA,NA,NA,NA,NA,NA,NA,NA,"2007-07-24",43
"GLP003","MI","107001423",675,NA,NA,NA,"MIEXAM","Microscopic Examination",NA,NA,NA,NA,"NOT DONE","Organ/tissue was not examined",NA,"ADIPOSE TISSUE",NA,NA,NA,NA,NA,NA,NA,NA,NA,"2007-07-24",43
"GLP003","MI","107001423",676,NA,NA,NA,"MIEXAM","Microscopic Examination",NA,"NORMAL","NORMAL",NA,NA,NA,NA,"GLAND, ADRENAL",NA,NA,NA,NA,"BILATERAL",NA,NA,NA,NA,"2007-07-24",43
"GLP003","MI","107001423",677,NA,NA,NA,"MIEXAM","Microscopic Examination",NA,NA,NA,NA,"NOT DONE","Organ/tissue was not examined",NA,"ARTERY, AORTA",NA,NA,NA,NA,NA,NA,NA,NA,NA,"2007-07-24",43
"GLP003","MI","107001423",678,NA,NA,NA,"MIEXAM","Microscopic Examination",NA,NA,NA,NA,"NOT DONE","Organ/tissue was not examined",NA,"BONE MARROW, FEMUR",NA,NA,NA,NA,NA,NA,NA,NA,NA,"2007-07-24",43
"GLP003","MI","107001423",679,NA,NA,NA,"MIEXAM","Microscopic Examination",NA,NA,NA,NA,"NOT DONE","Organ/tissue was not examined",NA,"BONE MARROW, STERNUM",NA,NA,NA,NA,NA,NA,NA,NA,NA,"2007-07-24",43
"GLP003","MI","107001423",680,NA,NA,NA,"MIEXAM","Microscopic Examination",NA,NA,NA,NA,"NOT DONE","Organ/tissue was not examined",NA,"BONE, FEMUR",NA,NA,NA,NA,NA,NA,NA,NA,NA,"2007-07-24",43
"GLP003","MI","107001423",681,NA,NA,NA,"MIEXAM","Microscopic Examination",NA,NA,NA,NA,"NOT DONE","Organ/tissue was not examined",NA,"BONE, STERNUM",NA,NA,NA,NA,NA,NA,NA,NA,NA,"2007-07-24",43
"GLP003","MI","107001423",682,NA,NA,NA,"MIEXAM","Microscopic Examination",NA,NA,NA,NA,"NOT DONE","Organ/tissue was not examined",NA,"BRAIN",NA,NA,NA,NA,NA,NA,NA,NA,NA,"2007-07-24",43
"GLP003","MI","107001423",683,NA,NA,NA,"MIEXAM","Microscopic Examination",NA,NA,NA,NA,"NOT DONE","Organ/tissue was not examined",NA,"ADIPOSE TISSUE, BROWN",NA,NA,NA,NA,NA,NA,NA,NA,NA,"2007-07-24",43
"GLP003","MI","107001423",684,NA,NA,NA,"MIEXAM","Microscopic Examination",NA,NA,NA,NA,"NOT DONE","Organ/tissue was not examined",NA,"LARGE INTESTINE, CECUM",NA,NA,NA,NA,NA,NA,NA,NA,NA,"2007-07-24",43
"GLP003","MI","107001423",685,NA,NA,NA,"MIEXAM","Microscopic Examination",NA,NA,NA,NA,"NOT DONE","Organ/tissue was not examined",NA,"LARGE INTESTINE, COLON",NA,NA,NA,NA,NA,NA,NA,NA,NA,"2007-07-24",43
"GLP003","MI","107001423",686,NA,NA,NA,"MIEXAM","Microscopic Examination",NA,NA,NA,NA,"NOT DONE","Organ/tissue was not examined",NA,"MUSCLE, DIAPHRAGM",NA,NA,NA,NA,NA,NA,NA,NA,NA,"2007-07-24",43
"GLP003","MI","107001423",687,NA,NA,NA,"MIEXAM","Microscopic Examination",NA,NA,NA,NA,"NOT DONE","Organ/tissue was not examined",NA,"SMALL INTESTINE, DUODENUM",NA,NA,NA,NA,NA,NA,NA,NA,NA,"2007-07-24",43
"GLP003","MI","107001423",688,NA,NA,NA,"MIEXAM","Microscopic Examination",NA,NA,NA,NA,"NOT DONE","Organ/tissue was not examined",NA,"EPIDIDYMIS",NA,NA,NA,NA,"BILATERAL",NA,NA,NA,NA,"2007-07-24",43
"GLP003","MI","107001423",689,NA,NA,NA,"MIEXAM","Microscopic Examination",NA,NA,NA,NA,"NOT DONE","Organ/tissue was not examined",NA,"ESOPHAGUS",NA,NA,NA,NA,NA,NA,NA,NA,NA,"2007-07-24",43
"GLP003","MI","107001423",690,NA,NA,NA,"MIEXAM","Microscopic Examination",NA,NA,NA,NA,"NOT DONE","Organ/tissue was not examined",NA,"EYE",NA,NA,NA,NA,"BILATERAL",NA,NA,NA,NA,"2007-07-24",43
"GLP003","MI","107001423",691,NA,NA,NA,"MIEXAM","Microscopic Examination",NA,NA,NA,NA,"NOT DONE","Organ/tissue was not examined",NA,"GLAND, HARDERIAN",NA,NA,NA,NA,"BILATERAL",NA,NA,NA,NA,"2007-07-24",43
"GLP003","MI","107001423",692,NA,NA,NA,"MIEXAM","Microscopic Examination",NA,NA,NA,NA,"NOT DONE","Organ/tissue was not examined",NA,"HEART",NA,NA,NA,NA,NA,NA,NA,NA,NA,"2007-07-24",43
"GLP003","MI","107001423",693,NA,NA,NA,"MIEXAM","Microscopic Examination",NA,NA,NA,NA,"NOT DONE","Organ/tissue was not examined",NA,"SMALL INTESTINE, ILEUM",NA,NA,NA,NA,NA,NA,NA,NA,NA,"2007-07-24",43
"GLP003","MI","107001423",694,NA,NA,NA,"MIEXAM","Microscopic Examination",NA,NA,NA,NA,"NOT DONE","Organ/tissue was not examined",NA,"SMALL INTESTINE, JEJUNUM",NA,NA,NA,NA,NA,NA,NA,NA,NA,"2007-07-24",43
"GLP003","MI","107001423",695,NA,NA,NA,"MIEXAM","Microscopic Examination",NA,NA,NA,NA,"NOT DONE","Organ/tissue was not examined",NA,"KIDNEY",NA,NA,NA,NA,"BILATERAL",NA,NA,NA,NA,"2007-07-24",43
"GLP003","MI","107001423",696,NA,NA,NA,"MIEXAM","Microscopic Examination",NA,NA,NA,NA,"NOT DONE","Organ/tissue was not examined",NA,"LIVER",NA,NA,NA,NA,NA,NA,NA,NA,NA,"2007-07-24",43
"GLP003","MI","107001423",697,NA,NA,NA,"MIEXAM","Microscopic Examination",NA,NA,NA,NA,"NOT DONE","Organ/tissue was not examined",NA,"LUNG",NA,NA,NA,NA,NA,NA,NA,NA,NA,"2007-07-24",43
"GLP003","MI","107001423",698,NA,NA,NA,"MIEXAM","Microscopic Examination",NA,NA,NA,NA,"NOT DONE","Organ/tissue was not examined",NA,"MUSCLE, QUADRICEPS FEMORIS",NA,NA,NA,NA,NA,NA,NA,NA,NA,"2007-07-24",43
"GLP003","MI","107001423",699,NA,NA,NA,"MIEXAM","Microscopic Examination",NA,NA,NA,NA,"NOT DONE","Organ/tissue was not examined",NA,"GLAND, MAMMARY",NA,NA,NA,NA,NA,NA,NA,NA,NA,"2007-07-24",43
"GLP003","MI","107001423",700,NA,NA,NA,"MIEXAM","Microscopic Examination",NA,NA,NA,NA,"NOT DONE","Organ/tissue was not examined",NA,"LYMPH NODE, SUBMANDIBULAR",NA,NA,NA,NA,NA,NA,NA,NA,NA,"2007-07-24",43
"GLP003","MI","107001423",701,NA,NA,NA,"MIEXAM","Microscopic Examination",NA,NA,NA,NA,"NOT DONE","Organ/tissue was not examined",NA,"GLAND, SALIVARY, SUBMANDIBULAR",NA,NA,NA,NA,NA,NA,NA,NA,NA,"2007-07-24",43
"GLP003","MI","107001423",702,NA,NA,NA,"MIEXAM","Microscopic Examination",NA,NA,NA,NA,"NOT DONE","Organ/tissue was not examined",NA,"LYMPH NODE, MESENTERIC",NA,NA,NA,NA,NA,NA,NA,NA,NA,"2007-07-24",43
"GLP003","MI","107001423",703,NA,NA,NA,"MIEXAM","Microscopic Examination",NA,NA,NA,NA,"NOT DONE","Organ/tissue was not examined",NA,"NERVE, OPTIC",NA,NA,NA,NA,"BILATERAL",NA,NA,NA,NA,"2007-07-24",43
"GLP003","MI","107001423",704,NA,NA,NA,"MIEXAM","Microscopic Examination",NA,NA,NA,NA,"NOT DONE","Organ/tissue was not examined",NA,"PANCREAS",NA,NA,NA,NA,NA,NA,NA,NA,NA,"2007-07-24",43
"GLP003","MI","107001423",705,NA,NA,NA,"MIEXAM","Microscopic Examination",NA,NA,NA,NA,"NOT DONE","Organ/tissue was not examined",NA,"GLAND, PARATHYROID",NA,NA,NA,NA,NA,NA,NA,NA,NA,"2007-07-24",43
"GLP003","MI","107001423",706,NA,NA,NA,"MIEXAM","Microscopic Examination",NA,NA,NA,NA,"NOT DONE","Organ/tissue was not examined",NA,"GLAND, PITUITARY",NA,NA,NA,NA,NA,NA,NA,NA,NA,"2007-07-24",43
"GLP003","MI","107001423",707,NA,NA,NA,"MIEXAM","Microscopic Examination",NA,NA,NA,NA,"NOT DONE","Organ/tissue was not examined",NA,"GLAND, PROSTATE",NA,NA,NA,NA,NA,NA,NA,NA,NA,"2007-07-24",43
"GLP003","MI","107001423",708,NA,NA,NA,"MIEXAM","Microscopic Examination",NA,NA,NA,NA,"NOT DONE","Organ/tissue was not examined",NA,"NERVE, SCIATIC",NA,NA,NA,NA,NA,NA,NA,NA,NA,"2007-07-24",43
"GLP003","MI","107001423",709,NA,NA,NA,"MIEXAM","Microscopic Examination",NA,NA,NA,NA,"NOT DONE","Organ/tissue was not examined",NA,"GLAND, SEMINAL VESICLE",NA,NA,NA,NA,"BILATERAL",NA,NA,NA,NA,"2007-07-24",43
"GLP003","MI","107001423",710,NA,NA,NA,"MIEXAM","Microscopic Examination",NA,NA,NA,NA,"NOT DONE","Organ/tissue was not examined",NA,"SKIN/SUBCUTIS",NA,NA,NA,NA,NA,NA,NA,NA,NA,"2007-07-24",43
"GLP003","MI","107001423",711,NA,NA,NA,"MIEXAM","Microscopic Examination",NA,NA,NA,NA,"NOT DONE","Organ/tissue was not examined",NA,"SPINAL CORD",NA,NA,NA,NA,NA,NA,NA,NA,NA,"2007-07-24",43
"GLP003","MI","107001423",712,NA,NA,NA,"MIEXAM","Microscopic Examination",NA,NA,NA,NA,"NOT DONE","Organ/tissue was not examined",NA,"SPLEEN",NA,NA,NA,NA,NA,NA,NA,NA,NA,"2007-07-24",43
"GLP003","MI","107001423",713,NA,NA,NA,"MIEXAM","Microscopic Examination",NA,NA,NA,NA,"NOT DONE","Organ/tissue was not examined",NA,"STOMACH",NA,NA,NA,NA,NA,NA,NA,NA,NA,"2007-07-24",43
"GLP003","MI","107001423",714,NA,NA,NA,"MIEXAM","Microscopic Examination",NA,NA,NA,NA,"NOT DONE","Organ/tissue was not examined",NA,"SYSTEMIC NEOPLASMS",NA,NA,NA,NA,NA,NA,NA,NA,NA,"2007-07-24",43
"GLP003","MI","107001423",715,NA,NA,NA,"MIEXAM","Microscopic Examination",NA,NA,NA,NA,"NOT DONE","Organ/tissue was not examined",NA,"TESTIS",NA,NA,NA,NA,"BILATERAL",NA,NA,NA,NA,"2007-07-24",43
"GLP003","MI","107001423",716,NA,NA,NA,"MIEXAM","Microscopic Examination",NA,NA,NA,NA,"NOT DONE","Organ/tissue was not examined",NA,"THYMUS",NA,NA,NA,NA,NA,NA,NA,NA,NA,"2007-07-24",43
"GLP003","MI","107001423",717,NA,NA,NA,"MIEXAM","Microscopic Examination",NA,NA,NA,NA,"NOT DONE","Organ/tissue was not examined",NA,"GLAND, THYROID",NA,NA,NA,NA,NA,NA,NA,NA,NA,"2007-07-24",43
"GLP003","MI","107001423",718,NA,NA,NA,"MIEXAM","Microscopic Examination",NA,NA,NA,NA,"NOT DONE","Organ/tissue was not examined",NA,"TONGUE",NA,NA,NA,NA,NA,NA,NA,NA,NA,"2007-07-24",43
"GLP003","MI","107001423",719,NA,NA,NA,"MIEXAM","Microscopic Examination",NA,NA,NA,NA,"NOT DONE","Organ/tissue was not examined",NA,"TRACHEA",NA,NA,NA,NA,NA,NA,NA,NA,NA,"2007-07-24",43
"GLP003","MI","107001423",720,NA,NA,NA,"MIEXAM","Microscopic Examination",NA,NA,NA,NA,"NOT DONE","Organ/tissue was not examined",NA,"URINARY BLADDER",NA,NA,NA,NA,NA,NA,NA,NA,NA,"2007-07-24",43
"GLP003","MI","107001423",721,NA,NA,NA,"MIEXAM","Microscopic Examination",NA,NA,NA,NA,"NOT DONE","Organ/tissue was not examined",NA,"BONE MARROW SMEAR",NA,NA,NA,NA,NA,NA,NA,NA,NA,"2007-07-24",43
"GLP003","MI","107001529",723,NA,NA,NA,"MIEXAM","Microscopic Examination",NA,"NORMAL","NORMAL",NA,NA,NA,NA,"ADIPOSE TISSUE",NA,NA,NA,NA,NA,NA,NA,NA,NA,"2007-07-12",29
"GLP003","MI","107001529",724,NA,NA,NA,"MIEXAM","Microscopic Examination",NA,"NORMAL","NORMAL",NA,NA,NA,NA,"GLAND, ADRENAL",NA,NA,NA,NA,"BILATERAL",NA,NA,NA,NA,"2007-07-12",29
"GLP003","MI","107001529",725,NA,NA,NA,"MIEXAM","Microscopic Examination",NA,"NORMAL","NORMAL",NA,NA,NA,NA,"ARTERY, AORTA",NA,NA,NA,NA,NA,NA,NA,NA,NA,"2007-07-12",29
"GLP003","MI","107001529",726,NA,NA,NA,"MIEXAM","Microscopic Examination",NA,"NORMAL","NORMAL",NA,NA,NA,NA,"BONE MARROW, FEMUR",NA,NA,NA,NA,NA,NA,NA,NA,NA,"2007-07-12",29
"GLP003","MI","107001529",727,NA,NA,NA,"MIEXAM","Microscopic Examination",NA,"NORMAL","NORMAL",NA,NA,NA,NA,"BONE MARROW, STERNUM",NA,NA,NA,NA,NA,NA,NA,NA,NA,"2007-07-12",29
"GLP003","MI","107001529",728,NA,NA,NA,"MIEXAM","Microscopic Examination",NA,"NORMAL","NORMAL",NA,NA,NA,NA,"BONE, FEMUR",NA,NA,NA,NA,NA,NA,NA,NA,NA,"2007-07-12",29
"GLP003","MI","107001529",729,NA,NA,NA,"MIEXAM","Microscopic Examination",NA,"NORMAL","NORMAL",NA,NA,NA,NA,"BONE, STERNUM",NA,NA,NA,NA,NA,NA,NA,NA,NA,"2007-07-12",29
"GLP003","MI","107001529",730,NA,NA,NA,"MIEXAM","Microscopic Examination",NA,"NORMAL","NORMAL",NA,NA,NA,NA,"BRAIN",NA,NA,NA,NA,NA,NA,NA,NA,NA,"2007-07-12",29
"GLP003","MI","107001529",731,NA,NA,NA,"MIEXAM","Microscopic Examination",NA,"NORMAL","NORMAL",NA,NA,NA,NA,"ADIPOSE TISSUE, BROWN",NA,NA,NA,NA,NA,NA,NA,NA,NA,"2007-07-12",29
"GLP003","MI","107001529",732,NA,NA,NA,"MIEXAM","Microscopic Examination",NA,"NORMAL","NORMAL",NA,NA,NA,NA,"LARGE INTESTINE, CECUM",NA,NA,NA,NA,NA,NA,NA,NA,NA,"2007-07-12",29
"GLP003","MI","107001529",733,NA,NA,NA,"MIEXAM","Microscopic Examination",NA,"NORMAL","NORMAL",NA,NA,NA,NA,"CERVIX",NA,NA,NA,NA,NA,NA,NA,NA,NA,"2007-07-12",29
"GLP003","MI","107001529",734,NA,NA,NA,"MIEXAM","Microscopic Examination",NA,"NORMAL","NORMAL",NA,NA,NA,NA,"LARGE INTESTINE, COLON",NA,NA,NA,NA,NA,NA,NA,NA,NA,"2007-07-12",29
"GLP003","MI","107001529",735,NA,NA,NA,"MIEXAM","Microscopic Examination",NA,"NORMAL","NORMAL",NA,NA,NA,NA,"MUSCLE, DIAPHRAGM",NA,NA,NA,NA,NA,NA,NA,NA,NA,"2007-07-12",29
"GLP003","MI","107001529",736,NA,NA,NA,"MIEXAM","Microscopic Examination",NA,"NORMAL","NORMAL",NA,NA,NA,NA,"SMALL INTESTINE, DUODENUM",NA,NA,NA,NA,NA,NA,NA,NA,NA,"2007-07-12",29
"GLP003","MI","107001529",737,NA,NA,NA,"MIEXAM","Microscopic Examination",NA,"ESOPHAGUS:Regeneration: smooth muscle cell, focal, grade 2","Regeneration",NA,NA,NA,NA,"ESOPHAGUS",NA,NA,NA,NA,NA,NA,NA,"MILD",NA,"2007-07-12",29
"GLP003","MI","107001529",738,NA,NA,NA,"MIEXAM","Microscopic Examination",NA,"NORMAL","NORMAL",NA,NA,NA,NA,"EYE",NA,NA,NA,NA,"BILATERAL",NA,NA,NA,NA,"2007-07-12",29
"GLP003","MI","107001529",739,NA,NA,NA,"MIEXAM","Microscopic Examination",NA,"NORMAL","NORMAL",NA,NA,NA,NA,"GLAND, HARDERIAN",NA,NA,NA,NA,"BILATERAL",NA,NA,NA,NA,"2007-07-12",29
"GLP003","MI","107001529",740,NA,NA,NA,"MIEXAM","Microscopic Examination",NA,"NORMAL","NORMAL",NA,NA,NA,NA,"HEART",NA,NA,NA,NA,NA,NA,NA,NA,NA,"2007-07-12",29
"GLP003","MI","107001529",741,NA,NA,NA,"MIEXAM","Microscopic Examination",NA,"NORMAL","NORMAL",NA,NA,NA,NA,"SMALL INTESTINE, ILEUM",NA,NA,NA,NA,NA,NA,NA,NA,NA,"2007-07-12",29
"GLP003","MI","107001529",742,NA,NA,NA,"MIEXAM","Microscopic Examination",NA,"NORMAL","NORMAL",NA,NA,NA,NA,"SMALL INTESTINE, JEJUNUM",NA,NA,NA,NA,NA,NA,NA,NA,NA,"2007-07-12",29
"GLP003","MI","107001529",743,NA,NA,NA,"MIEXAM","Microscopic Examination",NA,"KIDNEYS:Dilatation: pelvis, bilateral, grade 3","Dilatation",NA,NA,NA,NA,"KIDNEY",NA,NA,NA,NA,"BILATERAL",NA,NA,"MODERATE",NA,"2007-07-12",29
"GLP003","MI","107001529",744,NA,NA,NA,"MIEXAM","Microscopic Examination",NA,"LIVER:Infiltration: mononuclear cell, multifocal, grade 1","Infiltration",NA,NA,NA,NA,"LIVER",NA,NA,NA,NA,NA,NA,NA,"MINIMAL",NA,"2007-07-12",29
"GLP003","MI","107001529",745,NA,NA,NA,"MIEXAM","Microscopic Examination",NA,"NORMAL","NORMAL",NA,NA,NA,NA,"LUNG",NA,NA,NA,NA,NA,NA,NA,NA,NA,"2007-07-12",29
"GLP003","MI","107001529",746,NA,NA,NA,"MIEXAM","Microscopic Examination",NA,"NORMAL","NORMAL",NA,NA,NA,NA,"MUSCLE, QUADRICEPS FEMORIS",NA,NA,NA,NA,NA,NA,NA,NA,NA,"2007-07-12",29
"GLP003","MI","107001529",747,NA,NA,NA,"MIEXAM","Microscopic Examination",NA,"NORMAL","NORMAL",NA,NA,NA,NA,"GLAND, MAMMARY",NA,NA,NA,NA,NA,NA,NA,NA,NA,"2007-07-12",29
"GLP003","MI","107001529",748,NA,NA,NA,"MIEXAM","Microscopic Examination",NA,NA,NA,NA,"NOT DONE","Organ/tissue was not examined",NA,"LYMPH NODE, SUBMANDIBULAR",NA,NA,NA,NA,NA,NA,NA,NA,NA,"2007-07-12",29
"GLP003","MI","107001529",749,NA,NA,NA,"MIEXAM","Microscopic Examination",NA,"NORMAL","NORMAL",NA,NA,NA,NA,"GLAND, SALIVARY, SUBMANDIBULAR",NA,NA,NA,NA,NA,NA,NA,NA,NA,"2007-07-12",29
"GLP003","MI","107001529",750,NA,NA,NA,"MIEXAM","Microscopic Examination",NA,"NORMAL","NORMAL",NA,NA,NA,NA,"LYMPH NODE, MESENTERIC",NA,NA,NA,NA,NA,NA,NA,NA,NA,"2007-07-12",29
"GLP003","MI","107001529",751,NA,NA,NA,"MIEXAM","Microscopic Examination",NA,"NORMAL","NORMAL",NA,NA,NA,NA,"NERVE, OPTIC",NA,NA,NA,NA,"BILATERAL",NA,NA,NA,NA,"2007-07-12",29
"GLP003","MI","107001529",752,NA,NA,NA,"MIEXAM","Microscopic Examination",NA,"NORMAL","NORMAL",NA,NA,NA,NA,"OVARY",NA,NA,NA,NA,"BILATERAL",NA,NA,NA,NA,"2007-07-12",29
"GLP003","MI","107001529",753,NA,NA,NA,"MIEXAM","Microscopic Examination",NA,"NORMAL","NORMAL",NA,NA,NA,NA,"PANCREAS",NA,NA,NA,NA,NA,NA,NA,NA,NA,"2007-07-12",29
"GLP003","MI","107001529",754,NA,NA,NA,"MIEXAM","Microscopic Examination",NA,"NORMAL","NORMAL",NA,NA,NA,NA,"GLAND, PARATHYROID",NA,NA,NA,NA,NA,NA,NA,NA,NA,"2007-07-12",29
"GLP003","MI","107001529",755,NA,NA,NA,"MIEXAM","Microscopic Examination",NA,"NORMAL","NORMAL",NA,NA,NA,NA,"GLAND, PITUITARY",NA,NA,NA,NA,NA,NA,NA,NA,NA,"2007-07-12",29
"GLP003","MI","107001529",756,NA,NA,NA,"MIEXAM","Microscopic Examination",NA,"NORMAL","NORMAL",NA,NA,NA,NA,"NERVE, SCIATIC",NA,NA,NA,NA,NA,NA,NA,NA,NA,"2007-07-12",29
"GLP003","MI","107001529",757,NA,NA,NA,"MIEXAM","Microscopic Examination",NA,"NORMAL","NORMAL",NA,NA,NA,NA,"SKIN/SUBCUTIS",NA,NA,NA,NA,NA,NA,NA,NA,NA,"2007-07-12",29
"GLP003","MI","107001529",758,NA,NA,NA,"MIEXAM","Microscopic Examination",NA,"NORMAL","NORMAL",NA,NA,NA,NA,"SPINAL CORD",NA,NA,NA,NA,NA,NA,NA,NA,NA,"2007-07-12",29
"GLP003","MI","107001529",759,NA,NA,NA,"MIEXAM","Microscopic Examination",NA,"NORMAL","NORMAL",NA,NA,NA,NA,"SPLEEN",NA,NA,NA,NA,NA,NA,NA,NA,NA,"2007-07-12",29
"GLP003","MI","107001529",760,NA,NA,NA,"MIEXAM","Microscopic Examination",NA,"NORMAL","NORMAL",NA,NA,NA,NA,"STOMACH",NA,NA,NA,NA,NA,NA,NA,NA,NA,"2007-07-12",29
"GLP003","MI","107001529",761,NA,NA,NA,"MIEXAM","Microscopic Examination",NA,NA,NA,NA,"NOT DONE","Organ/tissue was not examined",NA,"SYSTEMIC NEOPLASMS",NA,NA,NA,NA,NA,NA,NA,NA,NA,"2007-07-12",29
"GLP003","MI","107001529",762,NA,NA,NA,"MIEXAM","Microscopic Examination",NA,"NORMAL","NORMAL",NA,NA,NA,NA,"THYMUS",NA,NA,NA,NA,NA,NA,NA,NA,NA,"2007-07-12",29
"GLP003","MI","107001529",763,NA,NA,NA,"MIEXAM","Microscopic Examination",NA,"NORMAL","NORMAL",NA,NA,NA,NA,"GLAND, THYROID",NA,NA,NA,NA,NA,NA,NA,NA,NA,"2007-07-12",29
"GLP003","MI","107001529",764,NA,NA,NA,"MIEXAM","Microscopic Examination",NA,"NORMAL","NORMAL",NA,NA,NA,NA,"TONGUE",NA,NA,NA,NA,NA,NA,NA,NA,NA,"2007-07-12",29
"GLP003","MI","107001529",765,NA,NA,NA,"MIEXAM","Microscopic Examination",NA,"NORMAL","NORMAL",NA,NA,NA,NA,"TRACHEA",NA,NA,NA,NA,NA,NA,NA,NA,NA,"2007-07-12",29
"GLP003","MI","107001529",766,NA,NA,NA,"MIEXAM","Microscopic Examination",NA,"NORMAL","NORMAL",NA,NA,NA,NA,"URINARY BLADDER",NA,NA,NA,NA,NA,NA,NA,NA,NA,"2007-07-12",29
"GLP003","MI","107001529",767,NA,NA,NA,"MIEXAM","Microscopic Examination",NA,"NORMAL","NORMAL",NA,NA,NA,NA,"UTERUS",NA,NA,NA,NA,NA,NA,NA,NA,NA,"2007-07-12",29
"GLP003","MI","107001529",768,NA,NA,NA,"MIEXAM","Microscopic Examination",NA,"NORMAL","NORMAL",NA,NA,NA,NA,"VAGINA",NA,NA,NA,NA,NA,NA,NA,NA,NA,"2007-07-12",29
"GLP003","MI","107001529",769,NA,NA,NA,"MIEXAM","Microscopic Examination",NA,NA,NA,NA,"NOT DONE","Organ/tissue was not examined",NA,"BONE MARROW SMEAR",NA,NA,NA,NA,NA,NA,NA,NA,NA,"2007-07-12",29
"GLP003","MI","107001528",771,NA,NA,NA,"MIEXAM","Microscopic Examination",NA,"NORMAL","NORMAL",NA,NA,NA,NA,"ADIPOSE TISSUE",NA,NA,NA,NA,NA,NA,NA,NA,NA,"2007-07-12",29
"GLP003","MI","107001528",772,NA,NA,NA,"MIEXAM","Microscopic Examination",NA,"NORMAL","NORMAL",NA,NA,NA,NA,"GLAND, ADRENAL",NA,NA,NA,NA,"BILATERAL",NA,NA,NA,NA,"2007-07-12",29
"GLP003","MI","107001528",773,NA,NA,NA,"MIEXAM","Microscopic Examination",NA,"NORMAL","NORMAL",NA,NA,NA,NA,"ARTERY, AORTA",NA,NA,NA,NA,NA,NA,NA,NA,NA,"2007-07-12",29
"GLP003","MI","107001528",774,NA,NA,NA,"MIEXAM","Microscopic Examination",NA,"NORMAL","NORMAL",NA,NA,NA,NA,"BONE MARROW, FEMUR",NA,NA,NA,NA,NA,NA,NA,NA,NA,"2007-07-12",29
"GLP003","MI","107001528",775,NA,NA,NA,"MIEXAM","Microscopic Examination",NA,"NORMAL","NORMAL",NA,NA,NA,NA,"BONE MARROW, STERNUM",NA,NA,NA,NA,NA,NA,NA,NA,NA,"2007-07-12",29
"GLP003","MI","107001528",776,NA,NA,NA,"MIEXAM","Microscopic Examination",NA,"NORMAL","NORMAL",NA,NA,NA,NA,"BONE, FEMUR",NA,NA,NA,NA,NA,NA,NA,NA,NA,"2007-07-12",29
"GLP003","MI","107001528",777,NA,NA,NA,"MIEXAM","Microscopic Examination",NA,"NORMAL","NORMAL",NA,NA,NA,NA,"BONE, STERNUM",NA,NA,NA,NA,NA,NA,NA,NA,NA,"2007-07-12",29
"GLP003","MI","107001528",778,NA,NA,NA,"MIEXAM","Microscopic Examination",NA,"NORMAL","NORMAL",NA,NA,NA,NA,"BRAIN",NA,NA,NA,NA,NA,NA,NA,NA,NA,"2007-07-12",29
"GLP003","MI","107001528",779,NA,NA,NA,"MIEXAM","Microscopic Examination",NA,"NORMAL","NORMAL",NA,NA,NA,NA,"ADIPOSE TISSUE, BROWN",NA,NA,NA,NA,NA,NA,NA,NA,NA,"2007-07-12",29
"GLP003","MI","107001528",780,NA,NA,NA,"MIEXAM","Microscopic Examination",NA,"NORMAL","NORMAL",NA,NA,NA,NA,"LARGE INTESTINE, CECUM",NA,NA,NA,NA,NA,NA,NA,NA,NA,"2007-07-12",29
"GLP003","MI","107001528",781,NA,NA,NA,"MIEXAM","Microscopic Examination",NA,"NORMAL","NORMAL",NA,NA,NA,NA,"CERVIX",NA,NA,NA,NA,NA,NA,NA,NA,NA,"2007-07-12",29
"GLP003","MI","107001528",782,NA,NA,NA,"MIEXAM","Microscopic Examination",NA,"NORMAL","NORMAL",NA,NA,NA,NA,"LARGE INTESTINE, COLON",NA,NA,NA,NA,NA,NA,NA,NA,NA,"2007-07-12",29
"GLP003","MI","107001528",783,NA,NA,NA,"MIEXAM","Microscopic Examination",NA,"NORMAL","NORMAL",NA,NA,NA,NA,"MUSCLE, DIAPHRAGM",NA,NA,NA,NA,NA,NA,NA,NA,NA,"2007-07-12",29
"GLP003","MI","107001528",784,NA,NA,NA,"MIEXAM","Microscopic Examination",NA,"NORMAL","NORMAL",NA,NA,NA,NA,"SMALL INTESTINE, DUODENUM",NA,NA,NA,NA,NA,NA,NA,NA,NA,"2007-07-12",29
"GLP003","MI","107001528",785,NA,NA,NA,"MIEXAM","Microscopic Examination",NA,"NORMAL","NORMAL",NA,NA,NA,NA,"ESOPHAGUS",NA,NA,NA,NA,NA,NA,NA,NA,NA,"2007-07-12",29
"GLP003","MI","107001528",786,NA,NA,NA,"MIEXAM","Microscopic Examination",NA,"NORMAL","NORMAL",NA,NA,NA,NA,"EYE",NA,NA,NA,NA,"BILATERAL",NA,NA,NA,NA,"2007-07-12",29
"GLP003","MI","107001528",787,NA,NA,NA,"MIEXAM","Microscopic Examination",NA,"NORMAL","NORMAL",NA,NA,NA,NA,"GLAND, HARDERIAN",NA,NA,NA,NA,"BILATERAL",NA,NA,NA,NA,"2007-07-12",29
"GLP003","MI","107001528",788,NA,NA,NA,"MIEXAM","Microscopic Examination",NA,"NORMAL","NORMAL",NA,NA,NA,NA,"HEART",NA,NA,NA,NA,NA,NA,NA,NA,NA,"2007-07-12",29
"GLP003","MI","107001528",789,NA,NA,NA,"MIEXAM","Microscopic Examination",NA,"NORMAL","NORMAL",NA,NA,NA,NA,"SMALL INTESTINE, ILEUM",NA,NA,NA,NA,NA,NA,NA,NA,NA,"2007-07-12",29
"GLP003","MI","107001528",790,NA,NA,NA,"MIEXAM","Microscopic Examination",NA,"NORMAL","NORMAL",NA,NA,NA,NA,"SMALL INTESTINE, JEJUNUM",NA,NA,NA,NA,NA,NA,NA,NA,NA,"2007-07-12",29
"GLP003","MI","107001528",791,NA,NA,NA,"MIEXAM","Microscopic Examination",NA,"NORMAL","NORMAL",NA,NA,NA,NA,"KIDNEY",NA,NA,NA,NA,"BILATERAL",NA,NA,NA,NA,"2007-07-12",29
"GLP003","MI","107001528",792,NA,NA,NA,"MIEXAM","Microscopic Examination",NA,"LIVER:Infiltration: mononuclear cell, multifocal, grade 1","Infiltration",NA,NA,NA,NA,"LIVER",NA,NA,NA,NA,NA,NA,NA,"MINIMAL",NA,"2007-07-12",29
"GLP003","MI","107001528",793,NA,NA,NA,"MIEXAM","Microscopic Examination",NA,"NORMAL","NORMAL",NA,NA,NA,NA,"LUNG",NA,NA,NA,NA,NA,NA,NA,NA,NA,"2007-07-12",29
"GLP003","MI","107001528",794,NA,NA,NA,"MIEXAM","Microscopic Examination",NA,"NORMAL","NORMAL",NA,NA,NA,NA,"MUSCLE, QUADRICEPS FEMORIS",NA,NA,NA,NA,NA,NA,NA,NA,NA,"2007-07-12",29
"GLP003","MI","107001528",795,NA,NA,NA,"MIEXAM","Microscopic Examination",NA,"NORMAL","NORMAL",NA,NA,NA,NA,"GLAND, MAMMARY",NA,NA,NA,NA,NA,NA,NA,NA,NA,"2007-07-12",29
"GLP003","MI","107001528",796,NA,NA,NA,"MIEXAM","Microscopic Examination",NA,"NORMAL","NORMAL",NA,NA,NA,NA,"LYMPH NODE, SUBMANDIBULAR",NA,NA,NA,NA,NA,NA,NA,NA,NA,"2007-07-12",29
"GLP003","MI","107001528",797,NA,NA,NA,"MIEXAM","Microscopic Examination",NA,"NORMAL","NORMAL",NA,NA,NA,NA,"GLAND, SALIVARY, SUBMANDIBULAR",NA,NA,NA,NA,NA,NA,NA,NA,NA,"2007-07-12",29
"GLP003","MI","107001528",798,NA,NA,NA,"MIEXAM","Microscopic Examination",NA,"NORMAL","NORMAL",NA,NA,NA,NA,"LYMPH NODE, MESENTERIC",NA,NA,NA,NA,NA,NA,NA,NA,NA,"2007-07-12",29
"GLP003","MI","107001528",799,NA,NA,NA,"MIEXAM","Microscopic Examination",NA,"NORMAL","NORMAL",NA,NA,NA,NA,"NERVE, OPTIC",NA,NA,NA,NA,"BILATERAL",NA,NA,NA,NA,"2007-07-12",29
"GLP003","MI","107001528",800,NA,NA,NA,"MIEXAM","Microscopic Examination",NA,"NORMAL","NORMAL",NA,NA,NA,NA,"OVARY",NA,NA,NA,NA,"BILATERAL",NA,NA,NA,NA,"2007-07-12",29
"GLP003","MI","107001528",801,NA,NA,NA,"MIEXAM","Microscopic Examination",NA,"NORMAL","NORMAL",NA,NA,NA,NA,"PANCREAS",NA,NA,NA,NA,NA,NA,NA,NA,NA,"2007-07-12",29
"GLP003","MI","107001528",802,NA,NA,NA,"MIEXAM","Microscopic Examination",NA,"NORMAL","NORMAL",NA,NA,NA,NA,"GLAND, PARATHYROID",NA,NA,NA,NA,NA,NA,NA,NA,NA,"2007-07-12",29
"GLP003","MI","107001528",803,NA,NA,NA,"MIEXAM","Microscopic Examination",NA,"NORMAL","NORMAL",NA,NA,NA,NA,"GLAND, PITUITARY",NA,NA,NA,NA,NA,NA,NA,NA,NA,"2007-07-12",29
"GLP003","MI","107001528",804,NA,NA,NA,"MIEXAM","Microscopic Examination",NA,"NORMAL","NORMAL",NA,NA,NA,NA,"NERVE, SCIATIC",NA,NA,NA,NA,NA,NA,NA,NA,NA,"2007-07-12",29
"GLP003","MI","107001528",805,NA,NA,NA,"MIEXAM","Microscopic Examination",NA,"NORMAL","NORMAL",NA,NA,NA,NA,"SKIN/SUBCUTIS",NA,NA,NA,NA,NA,NA,NA,NA,NA,"2007-07-12",29
"GLP003","MI","107001528",806,NA,NA,NA,"MIEXAM","Microscopic Examination",NA,"NORMAL","NORMAL",NA,NA,NA,NA,"SPINAL CORD",NA,NA,NA,NA,NA,NA,NA,NA,NA,"2007-07-12",29
"GLP003","MI","107001528",807,NA,NA,NA,"MIEXAM","Microscopic Examination",NA,"NORMAL","NORMAL",NA,NA,NA,NA,"SPLEEN",NA,NA,NA,NA,NA,NA,NA,NA,NA,"2007-07-12",29
"GLP003","MI","107001528",808,NA,NA,NA,"MIEXAM","Microscopic Examination",NA,"NORMAL","NORMAL",NA,NA,NA,NA,"STOMACH",NA,NA,NA,NA,NA,NA,NA,NA,NA,"2007-07-12",29
"GLP003","MI","107001528",809,NA,NA,NA,"MIEXAM","Microscopic Examination",NA,NA,NA,NA,"NOT DONE","Organ/tissue was not examined",NA,"SYSTEMIC NEOPLASMS",NA,NA,NA,NA,NA,NA,NA,NA,NA,"2007-07-12",29
"GLP003","MI","107001528",810,NA,NA,NA,"MIEXAM","Microscopic Examination",NA,"NORMAL","NORMAL",NA,NA,NA,NA,"THYMUS",NA,NA,NA,NA,NA,NA,NA,NA,NA,"2007-07-12",29
"GLP003","MI","107001528",811,NA,NA,NA,"MIEXAM","Microscopic Examination",NA,"NORMAL","NORMAL",NA,NA,NA,NA,"GLAND, THYROID",NA,NA,NA,NA,NA,NA,NA,NA,NA,"2007-07-12",29
"GLP003","MI","107001528",812,NA,NA,NA,"MIEXAM","Microscopic Examination",NA,"NORMAL","NORMAL",NA,NA,NA,NA,"TONGUE",NA,NA,NA,NA,NA,NA,NA,NA,NA,"2007-07-12",29
"GLP003","MI","107001528",813,NA,NA,NA,"MIEXAM","Microscopic Examination",NA,"NORMAL","NORMAL",NA,NA,NA,NA,"TRACHEA",NA,NA,NA,NA,NA,NA,NA,NA,NA,"2007-07-12",29
"GLP003","MI","107001528",814,NA,NA,NA,"MIEXAM","Microscopic Examination",NA,"NORMAL","NORMAL",NA,NA,NA,NA,"URINARY BLADDER",NA,NA,NA,NA,NA,NA,NA,NA,NA,"2007-07-12",29
"GLP003","MI","107001528",815,NA,NA,NA,"MIEXAM","Microscopic Examination",NA,"NORMAL","NORMAL",NA,NA,NA,NA,"UTERUS",NA,NA,NA,NA,NA,NA,NA,NA,NA,"2007-07-12",29
"GLP003","MI","107001528",816,NA,NA,NA,"MIEXAM","Microscopic Examination",NA,"NORMAL","NORMAL",NA,NA,NA,NA,"VAGINA",NA,NA,NA,NA,NA,NA,NA,NA,NA,"2007-07-12",29
"GLP003","MI","107001528",817,NA,NA,NA,"MIEXAM","Microscopic Examination",NA,NA,NA,NA,"NOT DONE","Organ/tissue was not examined",NA,"BONE MARROW SMEAR",NA,NA,NA,NA,NA,NA,NA,NA,NA,"2007-07-12",29
"GLP003","MI","107001576",819,NA,NA,NA,"MIEXAM","Microscopic Examination",NA,"NORMAL","NORMAL",NA,NA,NA,NA,"ADIPOSE TISSUE",NA,NA,NA,NA,NA,NA,NA,NA,NA,"2007-07-12",29
"GLP003","MI","107001576",820,NA,NA,NA,"MIEXAM","Microscopic Examination",NA,"NORMAL","NORMAL",NA,NA,NA,NA,"GLAND, ADRENAL",NA,NA,NA,NA,"BILATERAL",NA,NA,NA,NA,"2007-07-12",29
"GLP003","MI","107001576",821,NA,NA,NA,"MIEXAM","Microscopic Examination",NA,"NORMAL","NORMAL",NA,NA,NA,NA,"ARTERY, AORTA",NA,NA,NA,NA,NA,NA,NA,NA,NA,"2007-07-12",29
"GLP003","MI","107001576",822,NA,NA,NA,"MIEXAM","Microscopic Examination",NA,"NORMAL","NORMAL",NA,NA,NA,NA,"BONE MARROW, FEMUR",NA,NA,NA,NA,NA,NA,NA,NA,NA,"2007-07-12",29
"GLP003","MI","107001576",823,NA,NA,NA,"MIEXAM","Microscopic Examination",NA,"NORMAL","NORMAL",NA,NA,NA,NA,"BONE MARROW, STERNUM",NA,NA,NA,NA,NA,NA,NA,NA,NA,"2007-07-12",29
"GLP003","MI","107001576",824,NA,NA,NA,"MIEXAM","Microscopic Examination",NA,"NORMAL","NORMAL",NA,NA,NA,NA,"BONE, FEMUR",NA,NA,NA,NA,NA,NA,NA,NA,NA,"2007-07-12",29
"GLP003","MI","107001576",825,NA,NA,NA,"MIEXAM","Microscopic Examination",NA,"NORMAL","NORMAL",NA,NA,NA,NA,"BONE, STERNUM",NA,NA,NA,NA,NA,NA,NA,NA,NA,"2007-07-12",29
"GLP003","MI","107001576",826,NA,NA,NA,"MIEXAM","Microscopic Examination",NA,"NORMAL","NORMAL",NA,NA,NA,NA,"BRAIN",NA,NA,NA,NA,NA,NA,NA,NA,NA,"2007-07-12",29
"GLP003","MI","107001576",827,NA,NA,NA,"MIEXAM","Microscopic Examination",NA,"NORMAL","NORMAL",NA,NA,NA,NA,"ADIPOSE TISSUE, BROWN",NA,NA,NA,NA,NA,NA,NA,NA,NA,"2007-07-12",29
"GLP003","MI","107001576",828,NA,NA,NA,"MIEXAM","Microscopic Examination",NA,"NORMAL","NORMAL",NA,NA,NA,NA,"LARGE INTESTINE, CECUM",NA,NA,NA,NA,NA,NA,NA,NA,NA,"2007-07-12",29
"GLP003","MI","107001576",829,NA,NA,NA,"MIEXAM","Microscopic Examination",NA,"NORMAL","NORMAL",NA,NA,NA,NA,"CERVIX",NA,NA,NA,NA,NA,NA,NA,NA,NA,"2007-07-12",29
"GLP003","MI","107001576",830,NA,NA,NA,"MIEXAM","Microscopic Examination",NA,"NORMAL","NORMAL",NA,NA,NA,NA,"LARGE INTESTINE, COLON",NA,NA,NA,NA,NA,NA,NA,NA,NA,"2007-07-12",29
"GLP003","MI","107001576",831,NA,NA,NA,"MIEXAM","Microscopic Examination",NA,"NORMAL","NORMAL",NA,NA,NA,NA,"MUSCLE, DIAPHRAGM",NA,NA,NA,NA,NA,NA,NA,NA,NA,"2007-07-12",29
"GLP003","MI","107001576",832,NA,NA,NA,"MIEXAM","Microscopic Examination",NA,"NORMAL","NORMAL",NA,NA,NA,NA,"SMALL INTESTINE, DUODENUM",NA,NA,NA,NA,NA,NA,NA,NA,NA,"2007-07-12",29
"GLP003","MI","107001576",833,NA,NA,NA,"MIEXAM","Microscopic Examination",NA,"NORMAL","NORMAL",NA,NA,NA,NA,"ESOPHAGUS",NA,NA,NA,NA,NA,NA,NA,NA,NA,"2007-07-12",29
"GLP003","MI","107001576",834,NA,NA,NA,"MIEXAM","Microscopic Examination",NA,"NORMAL","NORMAL",NA,NA,NA,NA,"EYE",NA,NA,NA,NA,"BILATERAL",NA,NA,NA,NA,"2007-07-12",29
"GLP003","MI","107001576",835,NA,NA,NA,"MIEXAM","Microscopic Examination",NA,"NORMAL","NORMAL",NA,NA,NA,NA,"GLAND, HARDERIAN",NA,NA,NA,NA,"BILATERAL",NA,NA,NA,NA,"2007-07-12",29
"GLP003","MI","107001576",836,NA,NA,NA,"MIEXAM","Microscopic Examination",NA,"NORMAL","NORMAL",NA,NA,NA,NA,"HEART",NA,NA,NA,NA,NA,NA,NA,NA,NA,"2007-07-12",29
"GLP003","MI","107001576",837,NA,NA,NA,"MIEXAM","Microscopic Examination",NA,"NORMAL","NORMAL",NA,NA,NA,NA,"SMALL INTESTINE, ILEUM",NA,NA,NA,NA,NA,NA,NA,NA,NA,"2007-07-12",29
"GLP003","MI","107001576",838,NA,NA,NA,"MIEXAM","Microscopic Examination",NA,"NORMAL","NORMAL",NA,NA,NA,NA,"SMALL INTESTINE, JEJUNUM",NA,NA,NA,NA,NA,NA,NA,NA,NA,"2007-07-12",29
"GLP003","MI","107001576",839,NA,NA,NA,"MIEXAM","Microscopic Examination",NA,"KIDNEYS:Mineralization, multifocal, bilateral, grade 1","Mineralization",NA,NA,NA,NA,"KIDNEY",NA,NA,NA,NA,"BILATERAL",NA,NA,"MINIMAL",NA,"2007-07-12",29
"GLP003","MI","107001576",840,NA,NA,NA,"MIEXAM","Microscopic Examination",NA,"KIDNEYS:Vacuolation: tubular epithelium, focal, unilateral, grade 1","Vacuolation",NA,NA,NA,NA,"KIDNEY",NA,NA,NA,NA,"BILATERAL",NA,NA,"MINIMAL",NA,"2007-07-12",29
"GLP003","MI","107001576",841,NA,NA,NA,"MIEXAM","Microscopic Examination",NA,"NORMAL","NORMAL",NA,NA,NA,NA,"LIVER",NA,NA,NA,NA,NA,NA,NA,NA,NA,"2007-07-12",29
"GLP003","MI","107001576",842,NA,NA,NA,"MIEXAM","Microscopic Examination",NA,"NORMAL","NORMAL",NA,NA,NA,NA,"LUNG",NA,NA,NA,NA,NA,NA,NA,NA,NA,"2007-07-12",29
"GLP003","MI","107001576",843,NA,NA,NA,"MIEXAM","Microscopic Examination",NA,"NORMAL","NORMAL",NA,NA,NA,NA,"MUSCLE, QUADRICEPS FEMORIS",NA,NA,NA,NA,NA,NA,NA,NA,NA,"2007-07-12",29
"GLP003","MI","107001576",844,NA,NA,NA,"MIEXAM","Microscopic Examination",NA,"NORMAL","NORMAL",NA,NA,NA,NA,"GLAND, MAMMARY",NA,NA,NA,NA,NA,NA,NA,NA,NA,"2007-07-12",29
"GLP003","MI","107001576",845,NA,NA,NA,"MIEXAM","Microscopic Examination",NA,"NORMAL","NORMAL",NA,NA,NA,NA,"LYMPH NODE, SUBMANDIBULAR",NA,NA,NA,NA,NA,NA,NA,NA,NA,"2007-07-12",29
"GLP003","MI","107001576",846,NA,NA,NA,"MIEXAM","Microscopic Examination",NA,"NORMAL","NORMAL",NA,NA,NA,NA,"GLAND, SALIVARY, SUBMANDIBULAR",NA,NA,NA,NA,NA,NA,NA,NA,NA,"2007-07-12",29
"GLP003","MI","107001576",847,NA,NA,NA,"MIEXAM","Microscopic Examination",NA,"NORMAL","NORMAL",NA,NA,NA,NA,"LYMPH NODE, MESENTERIC",NA,NA,NA,NA,NA,NA,NA,NA,NA,"2007-07-12",29
"GLP003","MI","107001576",848,NA,NA,NA,"MIEXAM","Microscopic Examination",NA,"NORMAL","NORMAL",NA,NA,NA,NA,"NERVE, OPTIC",NA,NA,NA,NA,"BILATERAL",NA,NA,NA,NA,"2007-07-12",29
"GLP003","MI","107001576",849,NA,NA,NA,"MIEXAM","Microscopic Examination",NA,"NORMAL","NORMAL",NA,NA,NA,NA,"OVARY",NA,NA,NA,NA,"BILATERAL",NA,NA,NA,NA,"2007-07-12",29
"GLP003","MI","107001576",850,NA,NA,NA,"MIEXAM","Microscopic Examination",NA,"NORMAL","NORMAL",NA,NA,NA,NA,"PANCREAS",NA,NA,NA,NA,NA,NA,NA,NA,NA,"2007-07-12",29
"GLP003","MI","107001576",851,NA,NA,NA,"MIEXAM","Microscopic Examination",NA,"NORMAL","NORMAL",NA,NA,NA,NA,"GLAND, PARATHYROID",NA,NA,NA,NA,NA,NA,NA,NA,NA,"2007-07-12",29
"GLP003","MI","107001576",852,NA,NA,NA,"MIEXAM","Microscopic Examination",NA,"NORMAL","NORMAL",NA,NA,NA,NA,"GLAND, PITUITARY",NA,NA,NA,NA,NA,NA,NA,NA,NA,"2007-07-12",29
"GLP003","MI","107001576",853,NA,NA,NA,"MIEXAM","Microscopic Examination",NA,"NORMAL","NORMAL",NA,NA,NA,NA,"NERVE, SCIATIC",NA,NA,NA,NA,NA,NA,NA,NA,NA,"2007-07-12",29
"GLP003","MI","107001576",854,NA,NA,NA,"MIEXAM","Microscopic Examination",NA,"NORMAL","NORMAL",NA,NA,NA,NA,"SKIN/SUBCUTIS",NA,NA,NA,NA,NA,NA,NA,NA,NA,"2007-07-12",29
"GLP003","MI","107001576",855,NA,NA,NA,"MIEXAM","Microscopic Examination",NA,"NORMAL","NORMAL",NA,NA,NA,NA,"SPINAL CORD",NA,NA,NA,NA,NA,NA,NA,NA,NA,"2007-07-12",29
"GLP003","MI","107001576",856,NA,NA,NA,"MIEXAM","Microscopic Examination",NA,"NORMAL","NORMAL",NA,NA,NA,NA,"SPLEEN",NA,NA,NA,NA,NA,NA,NA,NA,NA,"2007-07-12",29
"GLP003","MI","107001576",857,NA,NA,NA,"MIEXAM","Microscopic Examination",NA,"NORMAL","NORMAL",NA,NA,NA,NA,"STOMACH",NA,NA,NA,NA,NA,NA,NA,NA,NA,"2007-07-12",29
"GLP003","MI","107001576",858,NA,NA,NA,"MIEXAM","Microscopic Examination",NA,NA,NA,NA,"NOT DONE","Organ/tissue was not examined",NA,"SYSTEMIC NEOPLASMS",NA,NA,NA,NA,NA,NA,NA,NA,NA,"2007-07-12",29
"GLP003","MI","107001576",859,NA,NA,NA,"MIEXAM","Microscopic Examination",NA,"NORMAL","NORMAL",NA,NA,NA,NA,"THYMUS",NA,NA,NA,NA,NA,NA,NA,NA,NA,"2007-07-12",29
"GLP003","MI","107001576",860,NA,NA,NA,"MIEXAM","Microscopic Examination",NA,"NORMAL","NORMAL",NA,NA,NA,NA,"GLAND, THYROID",NA,NA,NA,NA,NA,NA,NA,NA,NA,"2007-07-12",29
"GLP003","MI","107001576",861,NA,NA,NA,"MIEXAM","Microscopic Examination",NA,"NORMAL","NORMAL",NA,NA,NA,NA,"TONGUE",NA,NA,NA,NA,NA,NA,NA,NA,NA,"2007-07-12",29
"GLP003","MI","107001576",862,NA,NA,NA,"MIEXAM","Microscopic Examination",NA,"NORMAL","NORMAL",NA,NA,NA,NA,"TRACHEA",NA,NA,NA,NA,NA,NA,NA,NA,NA,"2007-07-12",29
"GLP003","MI","107001576",863,NA,NA,NA,"MIEXAM","Microscopic Examination",NA,"NORMAL","NORMAL",NA,NA,NA,NA,"URINARY BLADDER",NA,NA,NA,NA,NA,NA,NA,NA,NA,"2007-07-12",29
"GLP003","MI","107001576",864,NA,NA,NA,"MIEXAM","Microscopic Examination",NA,"NORMAL","NORMAL",NA,NA,NA,NA,"UTERUS",NA,NA,NA,NA,NA,NA,NA,NA,NA,"2007-07-12",29
"GLP003","MI","107001576",865,NA,NA,NA,"MIEXAM","Microscopic Examination",NA,"NORMAL","NORMAL",NA,NA,NA,NA,"VAGINA",NA,NA,NA,NA,NA,NA,NA,NA,NA,"2007-07-12",29
"GLP003","MI","107001576",866,NA,NA,NA,"MIEXAM","Microscopic Examination",NA,NA,NA,NA,"NOT DONE","Organ/tissue was not examined",NA,"BONE MARROW SMEAR",NA,NA,NA,NA,NA,NA,NA,NA,NA,"2007-07-12",29
"GLP003","MI","107001616",868,NA,NA,NA,"MIEXAM","Microscopic Examination",NA,"NORMAL","NORMAL",NA,NA,NA,NA,"ADIPOSE TISSUE",NA,NA,NA,NA,NA,NA,NA,NA,NA,"2007-07-12",29
"GLP003","MI","107001616",869,NA,NA,NA,"MIEXAM","Microscopic Examination",NA,"NORMAL","NORMAL",NA,NA,NA,NA,"GLAND, ADRENAL",NA,NA,NA,NA,"BILATERAL",NA,NA,NA,NA,"2007-07-12",29
"GLP003","MI","107001616",870,NA,NA,NA,"MIEXAM","Microscopic Examination",NA,"NORMAL","NORMAL",NA,NA,NA,NA,"ARTERY, AORTA",NA,NA,NA,NA,NA,NA,NA,NA,NA,"2007-07-12",29
"GLP003","MI","107001616",871,NA,NA,NA,"MIEXAM","Microscopic Examination",NA,"NORMAL","NORMAL",NA,NA,NA,NA,"BONE MARROW, FEMUR",NA,NA,NA,NA,NA,NA,NA,NA,NA,"2007-07-12",29
"GLP003","MI","107001616",872,NA,NA,NA,"MIEXAM","Microscopic Examination",NA,"NORMAL","NORMAL",NA,NA,NA,NA,"BONE MARROW, STERNUM",NA,NA,NA,NA,NA,NA,NA,NA,NA,"2007-07-12",29
"GLP003","MI","107001616",873,NA,NA,NA,"MIEXAM","Microscopic Examination",NA,"NORMAL","NORMAL",NA,NA,NA,NA,"BONE, FEMUR",NA,NA,NA,NA,NA,NA,NA,NA,NA,"2007-07-12",29
"GLP003","MI","107001616",874,NA,NA,NA,"MIEXAM","Microscopic Examination",NA,"NORMAL","NORMAL",NA,NA,NA,NA,"BONE, STERNUM",NA,NA,NA,NA,NA,NA,NA,NA,NA,"2007-07-12",29
"GLP003","MI","107001616",875,NA,NA,NA,"MIEXAM","Microscopic Examination",NA,"NORMAL","NORMAL",NA,NA,NA,NA,"BRAIN",NA,NA,NA,NA,NA,NA,NA,NA,NA,"2007-07-12",29
"GLP003","MI","107001616",876,NA,NA,NA,"MIEXAM","Microscopic Examination",NA,"NORMAL","NORMAL",NA,NA,NA,NA,"ADIPOSE TISSUE, BROWN",NA,NA,NA,NA,NA,NA,NA,NA,NA,"2007-07-12",29
"GLP003","MI","107001616",877,NA,NA,NA,"MIEXAM","Microscopic Examination",NA,"NORMAL","NORMAL",NA,NA,NA,NA,"LARGE INTESTINE, CECUM",NA,NA,NA,NA,NA,NA,NA,NA,NA,"2007-07-12",29
"GLP003","MI","107001616",878,NA,NA,NA,"MIEXAM","Microscopic Examination",NA,"NORMAL","NORMAL",NA,NA,NA,NA,"CERVIX",NA,NA,NA,NA,NA,NA,NA,NA,NA,"2007-07-12",29
"GLP003","MI","107001616",879,NA,NA,NA,"MIEXAM","Microscopic Examination",NA,"NORMAL","NORMAL",NA,NA,NA,NA,"LARGE INTESTINE, COLON",NA,NA,NA,NA,NA,NA,NA,NA,NA,"2007-07-12",29
"GLP003","MI","107001616",880,NA,NA,NA,"MIEXAM","Microscopic Examination",NA,"NORMAL","NORMAL",NA,NA,NA,NA,"MUSCLE, DIAPHRAGM",NA,NA,NA,NA,NA,NA,NA,NA,NA,"2007-07-12",29
"GLP003","MI","107001616",881,NA,NA,NA,"MIEXAM","Microscopic Examination",NA,"NORMAL","NORMAL",NA,NA,NA,NA,"SMALL INTESTINE, DUODENUM",NA,NA,NA,NA,NA,NA,NA,NA,NA,"2007-07-12",29
"GLP003","MI","107001616",882,NA,NA,NA,"MIEXAM","Microscopic Examination",NA,"NORMAL","NORMAL",NA,NA,NA,NA,"ESOPHAGUS",NA,NA,NA,NA,NA,NA,NA,NA,NA,"2007-07-12",29
"GLP003","MI","107001616",883,NA,NA,NA,"MIEXAM","Microscopic Examination",NA,"NORMAL","NORMAL",NA,NA,NA,NA,"EYE",NA,NA,NA,NA,"BILATERAL",NA,NA,NA,NA,"2007-07-12",29
"GLP003","MI","107001616",884,NA,NA,NA,"MIEXAM","Microscopic Examination",NA,"NORMAL","NORMAL",NA,NA,NA,NA,"GLAND, HARDERIAN",NA,NA,NA,NA,"BILATERAL",NA,NA,NA,NA,"2007-07-12",29
"GLP003","MI","107001616",885,NA,NA,NA,"MIEXAM","Microscopic Examination",NA,"NORMAL","NORMAL",NA,NA,NA,NA,"HEART",NA,NA,NA,NA,NA,NA,NA,NA,NA,"2007-07-12",29
"GLP003","MI","107001616",886,NA,NA,NA,"MIEXAM","Microscopic Examination",NA,"NORMAL","NORMAL",NA,NA,NA,NA,"SMALL INTESTINE, ILEUM",NA,NA,NA,NA,NA,NA,NA,NA,NA,"2007-07-12",29
"GLP003","MI","107001616",887,NA,NA,NA,"MIEXAM","Microscopic Examination",NA,"NORMAL","NORMAL",NA,NA,NA,NA,"SMALL INTESTINE, JEJUNUM",NA,NA,NA,NA,NA,NA,NA,NA,NA,"2007-07-12",29
"GLP003","MI","107001616",888,NA,NA,NA,"MIEXAM","Microscopic Examination",NA,"KIDNEYS:Vacuolation: tubular epithelium, focal, unilateral, grade 1","Vacuolation",NA,NA,NA,NA,"KIDNEY",NA,NA,NA,NA,"BILATERAL",NA,NA,"MINIMAL",NA,"2007-07-12",29
"GLP003","MI","107001616",889,NA,NA,NA,"MIEXAM","Microscopic Examination",NA,"NORMAL","NORMAL",NA,NA,NA,NA,"LIVER",NA,NA,NA,NA,NA,NA,NA,NA,NA,"2007-07-12",29
"GLP003","MI","107001616",890,NA,NA,NA,"MIEXAM","Microscopic Examination",NA,"NORMAL","NORMAL",NA,NA,NA,NA,"LUNG",NA,NA,NA,NA,NA,NA,NA,NA,NA,"2007-07-12",29
"GLP003","MI","107001616",891,NA,NA,NA,"MIEXAM","Microscopic Examination",NA,"NORMAL","NORMAL",NA,NA,NA,NA,"MUSCLE, QUADRICEPS FEMORIS",NA,NA,NA,NA,NA,NA,NA,NA,NA,"2007-07-12",29
"GLP003","MI","107001616",892,NA,NA,NA,"MIEXAM","Microscopic Examination",NA,"NORMAL","NORMAL",NA,NA,NA,NA,"GLAND, MAMMARY",NA,NA,NA,NA,NA,NA,NA,NA,NA,"2007-07-12",29
"GLP003","MI","107001616",893,NA,NA,NA,"MIEXAM","Microscopic Examination",NA,"NORMAL","NORMAL",NA,NA,NA,NA,"LYMPH NODE, SUBMANDIBULAR",NA,NA,NA,NA,NA,NA,NA,NA,NA,"2007-07-12",29
"GLP003","MI","107001616",894,NA,NA,NA,"MIEXAM","Microscopic Examination",NA,"NORMAL","NORMAL",NA,NA,NA,NA,"GLAND, SALIVARY, SUBMANDIBULAR",NA,NA,NA,NA,NA,NA,NA,NA,NA,"2007-07-12",29
"GLP003","MI","107001616",895,NA,NA,NA,"MIEXAM","Microscopic Examination",NA,"NORMAL","NORMAL",NA,NA,NA,NA,"LYMPH NODE, MESENTERIC",NA,NA,NA,NA,NA,NA,NA,NA,NA,"2007-07-12",29
"GLP003","MI","107001616",896,NA,NA,NA,"MIEXAM","Microscopic Examination",NA,"NORMAL","NORMAL",NA,NA,NA,NA,"NERVE, OPTIC",NA,NA,NA,NA,"BILATERAL",NA,NA,NA,NA,"2007-07-12",29
"GLP003","MI","107001616",897,NA,NA,NA,"MIEXAM","Microscopic Examination",NA,"NORMAL","NORMAL",NA,NA,NA,NA,"OVARY",NA,NA,NA,NA,"BILATERAL",NA,NA,NA,NA,"2007-07-12",29
"GLP003","MI","107001616",898,NA,NA,NA,"MIEXAM","Microscopic Examination",NA,"NORMAL","NORMAL",NA,NA,NA,NA,"PANCREAS",NA,NA,NA,NA,NA,NA,NA,NA,NA,"2007-07-12",29
"GLP003","MI","107001616",899,NA,NA,NA,"MIEXAM","Microscopic Examination",NA,"NORMAL","NORMAL",NA,NA,NA,NA,"GLAND, PARATHYROID",NA,NA,NA,NA,NA,NA,NA,NA,NA,"2007-07-12",29
"GLP003","MI","107001616",900,NA,NA,NA,"MIEXAM","Microscopic Examination",NA,"NORMAL","NORMAL",NA,NA,NA,NA,"GLAND, PITUITARY",NA,NA,NA,NA,NA,NA,NA,NA,NA,"2007-07-12",29
"GLP003","MI","107001616",901,NA,NA,NA,"MIEXAM","Microscopic Examination",NA,"NORMAL","NORMAL",NA,NA,NA,NA,"NERVE, SCIATIC",NA,NA,NA,NA,NA,NA,NA,NA,NA,"2007-07-12",29
"GLP003","MI","107001616",902,NA,NA,NA,"MIEXAM","Microscopic Examination",NA,"NORMAL","NORMAL",NA,NA,NA,NA,"SKIN/SUBCUTIS",NA,NA,NA,NA,NA,NA,NA,NA,NA,"2007-07-12",29
"GLP003","MI","107001616",903,NA,NA,NA,"MIEXAM","Microscopic Examination",NA,"NORMAL","NORMAL",NA,NA,NA,NA,"SPINAL CORD",NA,NA,NA,NA,NA,NA,NA,NA,NA,"2007-07-12",29
"GLP003","MI","107001616",904,NA,NA,NA,"MIEXAM","Microscopic Examination",NA,"NORMAL","NORMAL",NA,NA,NA,NA,"SPLEEN",NA,NA,NA,NA,NA,NA,NA,NA,NA,"2007-07-12",29
"GLP003","MI","107001616",905,NA,NA,NA,"MIEXAM","Microscopic Examination",NA,"NORMAL","NORMAL",NA,NA,NA,NA,"STOMACH",NA,NA,NA,NA,NA,NA,NA,NA,NA,"2007-07-12",29
"GLP003","MI","107001616",906,NA,NA,NA,"MIEXAM","Microscopic Examination",NA,NA,NA,NA,"NOT DONE","Organ/tissue was not examined",NA,"SYSTEMIC NEOPLASMS",NA,NA,NA,NA,NA,NA,NA,NA,NA,"2007-07-12",29
"GLP003","MI","107001616",907,NA,NA,NA,"MIEXAM","Microscopic Examination",NA,"NORMAL","NORMAL",NA,NA,NA,NA,"THYMUS",NA,NA,NA,NA,NA,NA,NA,NA,NA,"2007-07-12",29
"GLP003","MI","107001616",908,NA,NA,NA,"MIEXAM","Microscopic Examination",NA,"NORMAL","NORMAL",NA,NA,NA,NA,"GLAND, THYROID",NA,NA,NA,NA,NA,NA,NA,NA,NA,"2007-07-12",29
"GLP003","MI","107001616",909,NA,NA,NA,"MIEXAM","Microscopic Examination",NA,"NORMAL","NORMAL",NA,NA,NA,NA,"TONGUE",NA,NA,NA,NA,NA,NA,NA,NA,NA,"2007-07-12",29
"GLP003","MI","107001616",910,NA,NA,NA,"MIEXAM","Microscopic Examination",NA,"NORMAL","NORMAL",NA,NA,NA,NA,"TRACHEA",NA,NA,NA,NA,NA,NA,NA,NA,NA,"2007-07-12",29
"GLP003","MI","107001616",911,NA,NA,NA,"MIEXAM","Microscopic Examination",NA,"NORMAL","NORMAL",NA,NA,NA,NA,"URINARY BLADDER",NA,NA,NA,NA,NA,NA,NA,NA,NA,"2007-07-12",29
"GLP003","MI","107001616",912,NA,NA,NA,"MIEXAM","Microscopic Examination",NA,"NORMAL","NORMAL",NA,NA,NA,NA,"UTERUS",NA,NA,NA,NA,NA,NA,NA,NA,NA,"2007-07-12",29
"GLP003","MI","107001616",913,NA,NA,NA,"MIEXAM","Microscopic Examination",NA,"NORMAL","NORMAL",NA,NA,NA,NA,"VAGINA",NA,NA,NA,NA,NA,NA,NA,NA,NA,"2007-07-12",29
"GLP003","MI","107001616",914,NA,NA,NA,"MIEXAM","Microscopic Examination",NA,NA,NA,NA,"NOT DONE","Organ/tissue was not examined",NA,"BONE MARROW SMEAR",NA,NA,NA,NA,NA,NA,NA,NA,NA,"2007-07-12",29
"GLP003","MI","107001500",916,NA,NA,NA,"MIEXAM","Microscopic Examination",NA,"NORMAL","NORMAL",NA,NA,NA,NA,"ADIPOSE TISSUE",NA,NA,NA,NA,NA,NA,NA,NA,NA,"2007-07-12",29
"GLP003","MI","107001500",917,NA,NA,NA,"MIEXAM","Microscopic Examination",NA,"NORMAL","NORMAL",NA,NA,NA,NA,"GLAND, ADRENAL",NA,NA,NA,NA,"BILATERAL",NA,NA,NA,NA,"2007-07-12",29
"GLP003","MI","107001500",918,NA,NA,NA,"MIEXAM","Microscopic Examination",NA,"NORMAL","NORMAL",NA,NA,NA,NA,"ARTERY, AORTA",NA,NA,NA,NA,NA,NA,NA,NA,NA,"2007-07-12",29
"GLP003","MI","107001500",919,NA,NA,NA,"MIEXAM","Microscopic Examination",NA,"NORMAL","NORMAL",NA,NA,NA,NA,"BONE MARROW, FEMUR",NA,NA,NA,NA,NA,NA,NA,NA,NA,"2007-07-12",29
"GLP003","MI","107001500",920,NA,NA,NA,"MIEXAM","Microscopic Examination",NA,"NORMAL","NORMAL",NA,NA,NA,NA,"BONE MARROW, STERNUM",NA,NA,NA,NA,NA,NA,NA,NA,NA,"2007-07-12",29
"GLP003","MI","107001500",921,NA,NA,NA,"MIEXAM","Microscopic Examination",NA,"NORMAL","NORMAL",NA,NA,NA,NA,"BONE, FEMUR",NA,NA,NA,NA,NA,NA,NA,NA,NA,"2007-07-12",29
"GLP003","MI","107001500",922,NA,NA,NA,"MIEXAM","Microscopic Examination",NA,"NORMAL","NORMAL",NA,NA,NA,NA,"BONE, STERNUM",NA,NA,NA,NA,NA,NA,NA,NA,NA,"2007-07-12",29
"GLP003","MI","107001500",923,NA,NA,NA,"MIEXAM","Microscopic Examination",NA,"NORMAL","NORMAL",NA,NA,NA,NA,"BRAIN",NA,NA,NA,NA,NA,NA,NA,NA,NA,"2007-07-12",29
"GLP003","MI","107001500",924,NA,NA,NA,"MIEXAM","Microscopic Examination",NA,"NORMAL","NORMAL",NA,NA,NA,NA,"ADIPOSE TISSUE, BROWN",NA,NA,NA,NA,NA,NA,NA,NA,NA,"2007-07-12",29
"GLP003","MI","107001500",925,NA,NA,NA,"MIEXAM","Microscopic Examination",NA,"NORMAL","NORMAL",NA,NA,NA,NA,"LARGE INTESTINE, CECUM",NA,NA,NA,NA,NA,NA,NA,NA,NA,"2007-07-12",29
"GLP003","MI","107001500",926,NA,NA,NA,"MIEXAM","Microscopic Examination",NA,"NORMAL","NORMAL",NA,NA,NA,NA,"CERVIX",NA,NA,NA,NA,NA,NA,NA,NA,NA,"2007-07-12",29
"GLP003","MI","107001500",927,NA,NA,NA,"MIEXAM","Microscopic Examination",NA,"NORMAL","NORMAL",NA,NA,NA,NA,"LARGE INTESTINE, COLON",NA,NA,NA,NA,NA,NA,NA,NA,NA,"2007-07-12",29
"GLP003","MI","107001500",928,NA,NA,NA,"MIEXAM","Microscopic Examination",NA,"NORMAL","NORMAL",NA,NA,NA,NA,"MUSCLE, DIAPHRAGM",NA,NA,NA,NA,NA,NA,NA,NA,NA,"2007-07-12",29
"GLP003","MI","107001500",929,NA,NA,NA,"MIEXAM","Microscopic Examination",NA,"NORMAL","NORMAL",NA,NA,NA,NA,"SMALL INTESTINE, DUODENUM",NA,NA,NA,NA,NA,NA,NA,NA,NA,"2007-07-12",29
"GLP003","MI","107001500",930,NA,NA,NA,"MIEXAM","Microscopic Examination",NA,"NORMAL","NORMAL",NA,NA,NA,NA,"ESOPHAGUS",NA,NA,NA,NA,NA,NA,NA,NA,NA,"2007-07-12",29
"GLP003","MI","107001500",931,NA,NA,NA,"MIEXAM","Microscopic Examination",NA,"NORMAL","NORMAL",NA,NA,NA,NA,"EYE",NA,NA,NA,NA,"BILATERAL",NA,NA,NA,NA,"2007-07-12",29
"GLP003","MI","107001500",932,NA,NA,NA,"MIEXAM","Microscopic Examination",NA,"NORMAL","NORMAL",NA,NA,NA,NA,"GLAND, HARDERIAN",NA,NA,NA,NA,"BILATERAL",NA,NA,NA,NA,"2007-07-12",29
"GLP003","MI","107001500",933,NA,NA,NA,"MIEXAM","Microscopic Examination",NA,"NORMAL","NORMAL",NA,NA,NA,NA,"HEART",NA,NA,NA,NA,NA,NA,NA,NA,NA,"2007-07-12",29
"GLP003","MI","107001500",934,NA,NA,NA,"MIEXAM","Microscopic Examination",NA,"NORMAL","NORMAL",NA,NA,NA,NA,"SMALL INTESTINE, ILEUM",NA,NA,NA,NA,NA,NA,NA,NA,NA,"2007-07-12",29
"GLP003","MI","107001500",935,NA,NA,NA,"MIEXAM","Microscopic Examination",NA,"NORMAL","NORMAL",NA,NA,NA,NA,"SMALL INTESTINE, JEJUNUM",NA,NA,NA,NA,NA,NA,NA,NA,NA,"2007-07-12",29
"GLP003","MI","107001500",936,NA,NA,NA,"MIEXAM","Microscopic Examination",NA,"KIDNEYS:Vacuolation: tubular epithelium, focal, unilateral, grade 1","Vacuolation",NA,NA,NA,NA,"KIDNEY",NA,NA,NA,NA,"BILATERAL",NA,NA,"MINIMAL",NA,"2007-07-12",29
"GLP003","MI","107001500",937,NA,NA,NA,"MIEXAM","Microscopic Examination",NA,"LIVER:Infiltration: mononuclear cell, multifocal, grade 1","Infiltration",NA,NA,NA,NA,"LIVER",NA,NA,NA,NA,NA,NA,NA,"MINIMAL",NA,"2007-07-12",29
"GLP003","MI","107001500",938,NA,NA,NA,"MIEXAM","Microscopic Examination",NA,"NORMAL","NORMAL",NA,NA,NA,NA,"LUNG",NA,NA,NA,NA,NA,NA,NA,NA,NA,"2007-07-12",29
"GLP003","MI","107001500",939,NA,NA,NA,"MIEXAM","Microscopic Examination",NA,"NORMAL","NORMAL",NA,NA,NA,NA,"MUSCLE, QUADRICEPS FEMORIS",NA,NA,NA,NA,NA,NA,NA,NA,NA,"2007-07-12",29
"GLP003","MI","107001500",940,NA,NA,NA,"MIEXAM","Microscopic Examination",NA,"NORMAL","NORMAL",NA,NA,NA,NA,"GLAND, MAMMARY",NA,NA,NA,NA,NA,NA,NA,NA,NA,"2007-07-12",29
"GLP003","MI","107001500",941,NA,NA,NA,"MIEXAM","Microscopic Examination",NA,"NORMAL","NORMAL",NA,NA,NA,NA,"LYMPH NODE, SUBMANDIBULAR",NA,NA,NA,NA,NA,NA,NA,NA,NA,"2007-07-12",29
"GLP003","MI","107001500",942,NA,NA,NA,"MIEXAM","Microscopic Examination",NA,"NORMAL","NORMAL",NA,NA,NA,NA,"GLAND, SALIVARY, SUBMANDIBULAR",NA,NA,NA,NA,NA,NA,NA,NA,NA,"2007-07-12",29
"GLP003","MI","107001500",943,NA,NA,NA,"MIEXAM","Microscopic Examination",NA,"NORMAL","NORMAL",NA,NA,NA,NA,"LYMPH NODE, MESENTERIC",NA,NA,NA,NA,NA,NA,NA,NA,NA,"2007-07-12",29
"GLP003","MI","107001500",944,NA,NA,NA,"MIEXAM","Microscopic Examination",NA,"NORMAL","NORMAL",NA,NA,NA,NA,"NERVE, OPTIC",NA,NA,NA,NA,"BILATERAL",NA,NA,NA,NA,"2007-07-12",29
"GLP003","MI","107001500",945,NA,NA,NA,"MIEXAM","Microscopic Examination",NA,"NORMAL","NORMAL",NA,NA,NA,NA,"OVARY",NA,NA,NA,NA,"BILATERAL",NA,NA,NA,NA,"2007-07-12",29
"GLP003","MI","107001500",946,NA,NA,NA,"MIEXAM","Microscopic Examination",NA,"NORMAL","NORMAL",NA,NA,NA,NA,"PANCREAS",NA,NA,NA,NA,NA,NA,NA,NA,NA,"2007-07-12",29
"GLP003","MI","107001500",947,NA,NA,NA,"MIEXAM","Microscopic Examination",NA,"NORMAL","NORMAL",NA,NA,NA,NA,"GLAND, PARATHYROID",NA,NA,NA,NA,NA,NA,NA,NA,NA,"2007-07-12",29
"GLP003","MI","107001500",948,NA,NA,NA,"MIEXAM","Microscopic Examination",NA,"NORMAL","NORMAL",NA,NA,NA,NA,"GLAND, PITUITARY",NA,NA,NA,NA,NA,NA,NA,NA,NA,"2007-07-12",29
"GLP003","MI","107001500",949,NA,NA,NA,"MIEXAM","Microscopic Examination",NA,"NORMAL","NORMAL",NA,NA,NA,NA,"NERVE, SCIATIC",NA,NA,NA,NA,NA,NA,NA,NA,NA,"2007-07-12",29
"GLP003","MI","107001500",950,NA,NA,NA,"MIEXAM","Microscopic Examination",NA,"NORMAL","NORMAL",NA,NA,NA,NA,"SKIN/SUBCUTIS",NA,NA,NA,NA,NA,NA,NA,NA,NA,"2007-07-12",29
"GLP003","MI","107001500",951,NA,NA,NA,"MIEXAM","Microscopic Examination",NA,"NORMAL","NORMAL",NA,NA,NA,NA,"SPINAL CORD",NA,NA,NA,NA,NA,NA,NA,NA,NA,"2007-07-12",29
"GLP003","MI","107001500",952,NA,NA,NA,"MIEXAM","Microscopic Examination",NA,"NORMAL","NORMAL",NA,NA,NA,NA,"SPLEEN",NA,NA,NA,NA,NA,NA,NA,NA,NA,"2007-07-12",29
"GLP003","MI","107001500",953,NA,NA,NA,"MIEXAM","Microscopic Examination",NA,"NORMAL","NORMAL",NA,NA,NA,NA,"STOMACH",NA,NA,NA,NA,NA,NA,NA,NA,NA,"2007-07-12",29
"GLP003","MI","107001500",954,NA,NA,NA,"MIEXAM","Microscopic Examination",NA,NA,NA,NA,"NOT DONE","Organ/tissue was not examined",NA,"SYSTEMIC NEOPLASMS",NA,NA,NA,NA,NA,NA,NA,NA,NA,"2007-07-12",29
"GLP003","MI","107001500",955,NA,NA,NA,"MIEXAM","Microscopic Examination",NA,"NORMAL","NORMAL",NA,NA,NA,NA,"THYMUS",NA,NA,NA,NA,NA,NA,NA,NA,NA,"2007-07-12",29
"GLP003","MI","107001500",956,NA,NA,NA,"MIEXAM","Microscopic Examination",NA,"NORMAL","NORMAL",NA,NA,NA,NA,"GLAND, THYROID",NA,NA,NA,NA,NA,NA,NA,NA,NA,"2007-07-12",29
"GLP003","MI","107001500",957,NA,NA,NA,"MIEXAM","Microscopic Examination",NA,"NORMAL","NORMAL",NA,NA,NA,NA,"TONGUE",NA,NA,NA,NA,NA,NA,NA,NA,NA,"2007-07-12",29
"GLP003","MI","107001500",958,NA,NA,NA,"MIEXAM","Microscopic Examination",NA,"NORMAL","NORMAL",NA,NA,NA,NA,"TRACHEA",NA,NA,NA,NA,NA,NA,NA,NA,NA,"2007-07-12",29
"GLP003","MI","107001500",959,NA,NA,NA,"MIEXAM","Microscopic Examination",NA,"NORMAL","NORMAL",NA,NA,NA,NA,"URINARY BLADDER",NA,NA,NA,NA,NA,NA,NA,NA,NA,"2007-07-12",29
"GLP003","MI","107001500",960,NA,NA,NA,"MIEXAM","Microscopic Examination",NA,"NORMAL","NORMAL",NA,NA,NA,NA,"UTERUS",NA,NA,NA,NA,NA,NA,NA,NA,NA,"2007-07-12",29
"GLP003","MI","107001500",961,NA,NA,NA,"MIEXAM","Microscopic Examination",NA,"NORMAL","NORMAL",NA,NA,NA,NA,"VAGINA",NA,NA,NA,NA,NA,NA,NA,NA,NA,"2007-07-12",29
"GLP003","MI","107001500",962,NA,NA,NA,"MIEXAM","Microscopic Examination",NA,NA,NA,NA,"NOT DONE","Organ/tissue was not examined",NA,"BONE MARROW SMEAR",NA,NA,NA,NA,NA,NA,NA,NA,NA,"2007-07-12",29
"GLP003","MI","107001535",964,NA,NA,NA,"MIEXAM","Microscopic Examination",NA,"NORMAL","NORMAL",NA,NA,NA,NA,"ADIPOSE TISSUE",NA,NA,NA,NA,NA,NA,NA,NA,NA,"2007-07-13",30
"GLP003","MI","107001535",965,NA,NA,NA,"MIEXAM","Microscopic Examination",NA,"NORMAL","NORMAL",NA,NA,NA,NA,"GLAND, ADRENAL",NA,NA,NA,NA,"BILATERAL",NA,NA,NA,NA,"2007-07-13",30
"GLP003","MI","107001535",966,NA,NA,NA,"MIEXAM","Microscopic Examination",NA,"NORMAL","NORMAL",NA,NA,NA,NA,"ARTERY, AORTA",NA,NA,NA,NA,NA,NA,NA,NA,NA,"2007-07-13",30
"GLP003","MI","107001535",967,NA,NA,NA,"MIEXAM","Microscopic Examination",NA,"NORMAL","NORMAL",NA,NA,NA,NA,"BONE MARROW, FEMUR",NA,NA,NA,NA,NA,NA,NA,NA,NA,"2007-07-13",30
"GLP003","MI","107001535",968,NA,NA,NA,"MIEXAM","Microscopic Examination",NA,"NORMAL","NORMAL",NA,NA,NA,NA,"BONE MARROW, STERNUM",NA,NA,NA,NA,NA,NA,NA,NA,NA,"2007-07-13",30
"GLP003","MI","107001535",969,NA,NA,NA,"MIEXAM","Microscopic Examination",NA,"NORMAL","NORMAL",NA,NA,NA,NA,"BONE, FEMUR",NA,NA,NA,NA,NA,NA,NA,NA,NA,"2007-07-13",30
"GLP003","MI","107001535",970,NA,NA,NA,"MIEXAM","Microscopic Examination",NA,"NORMAL","NORMAL",NA,NA,NA,NA,"BONE, STERNUM",NA,NA,NA,NA,NA,NA,NA,NA,NA,"2007-07-13",30
"GLP003","MI","107001535",971,NA,NA,NA,"MIEXAM","Microscopic Examination",NA,"NORMAL","NORMAL",NA,NA,NA,NA,"BRAIN",NA,NA,NA,NA,NA,NA,NA,NA,NA,"2007-07-13",30
"GLP003","MI","107001535",972,NA,NA,NA,"MIEXAM","Microscopic Examination",NA,"NORMAL","NORMAL",NA,NA,NA,NA,"ADIPOSE TISSUE, BROWN",NA,NA,NA,NA,NA,NA,NA,NA,NA,"2007-07-13",30
"GLP003","MI","107001535",973,NA,NA,NA,"MIEXAM","Microscopic Examination",NA,"NORMAL","NORMAL",NA,NA,NA,NA,"LARGE INTESTINE, CECUM",NA,NA,NA,NA,NA,NA,NA,NA,NA,"2007-07-13",30
"GLP003","MI","107001535",974,NA,NA,NA,"MIEXAM","Microscopic Examination",NA,"NORMAL","NORMAL",NA,NA,NA,NA,"CERVIX",NA,NA,NA,NA,NA,NA,NA,NA,NA,"2007-07-13",30
"GLP003","MI","107001535",975,NA,NA,NA,"MIEXAM","Microscopic Examination",NA,"NORMAL","NORMAL",NA,NA,NA,NA,"LARGE INTESTINE, COLON",NA,NA,NA,NA,NA,NA,NA,NA,NA,"2007-07-13",30
"GLP003","MI","107001535",976,NA,NA,NA,"MIEXAM","Microscopic Examination",NA,"NORMAL","NORMAL",NA,NA,NA,NA,"MUSCLE, DIAPHRAGM",NA,NA,NA,NA,NA,NA,NA,NA,NA,"2007-07-13",30
"GLP003","MI","107001535",977,NA,NA,NA,"MIEXAM","Microscopic Examination",NA,"NORMAL","NORMAL",NA,NA,NA,NA,"SMALL INTESTINE, DUODENUM",NA,NA,NA,NA,NA,NA,NA,NA,NA,"2007-07-13",30
"GLP003","MI","107001535",978,NA,NA,NA,"MIEXAM","Microscopic Examination",NA,"NORMAL","NORMAL",NA,NA,NA,NA,"ESOPHAGUS",NA,NA,NA,NA,NA,NA,NA,NA,NA,"2007-07-13",30
"GLP003","MI","107001535",979,NA,NA,NA,"MIEXAM","Microscopic Examination",NA,"NORMAL","NORMAL",NA,NA,NA,NA,"EYE",NA,NA,NA,NA,"BILATERAL",NA,NA,NA,NA,"2007-07-13",30
"GLP003","MI","107001535",980,NA,NA,NA,"MIEXAM","Microscopic Examination",NA,"NORMAL","NORMAL",NA,NA,NA,NA,"GLAND, HARDERIAN",NA,NA,NA,NA,"BILATERAL",NA,NA,NA,NA,"2007-07-13",30
"GLP003","MI","107001535",981,NA,NA,NA,"MIEXAM","Microscopic Examination",NA,"NORMAL","NORMAL",NA,NA,NA,NA,"HEART",NA,NA,NA,NA,NA,NA,NA,NA,NA,"2007-07-13",30
"GLP003","MI","107001535",982,NA,NA,NA,"MIEXAM","Microscopic Examination",NA,"NORMAL","NORMAL",NA,NA,NA,NA,"SMALL INTESTINE, ILEUM",NA,NA,NA,NA,NA,NA,NA,NA,NA,"2007-07-13",30
"GLP003","MI","107001535",983,NA,NA,NA,"MIEXAM","Microscopic Examination",NA,"NORMAL","NORMAL",NA,NA,NA,NA,"SMALL INTESTINE, JEJUNUM",NA,NA,NA,NA,NA,NA,NA,NA,NA,"2007-07-13",30
"GLP003","MI","107001535",984,NA,NA,NA,"MIEXAM","Microscopic Examination",NA,"NORMAL","NORMAL",NA,NA,NA,NA,"KIDNEY",NA,NA,NA,NA,"BILATERAL",NA,NA,NA,NA,"2007-07-13",30
"GLP003","MI","107001535",985,NA,NA,NA,"MIEXAM","Microscopic Examination",NA,"LIVER:Infiltration: mononuclear cell, multifocal, grade 1","Infiltration",NA,NA,NA,NA,"LIVER",NA,NA,NA,NA,NA,NA,NA,"MINIMAL",NA,"2007-07-13",30
"GLP003","MI","107001535",986,NA,NA,NA,"MIEXAM","Microscopic Examination",NA,"NORMAL","NORMAL",NA,NA,NA,NA,"LUNG",NA,NA,NA,NA,NA,NA,NA,NA,NA,"2007-07-13",30
"GLP003","MI","107001535",987,NA,NA,NA,"MIEXAM","Microscopic Examination",NA,"NORMAL","NORMAL",NA,NA,NA,NA,"MUSCLE, QUADRICEPS FEMORIS",NA,NA,NA,NA,NA,NA,NA,NA,NA,"2007-07-13",30
"GLP003","MI","107001535",988,NA,NA,NA,"MIEXAM","Microscopic Examination",NA,"NORMAL","NORMAL",NA,NA,NA,NA,"GLAND, MAMMARY",NA,NA,NA,NA,NA,NA,NA,NA,NA,"2007-07-13",30
"GLP003","MI","107001535",989,NA,NA,NA,"MIEXAM","Microscopic Examination",NA,"NORMAL","NORMAL",NA,NA,NA,NA,"LYMPH NODE, SUBMANDIBULAR",NA,NA,NA,NA,NA,NA,NA,NA,NA,"2007-07-13",30
"GLP003","MI","107001535",990,NA,NA,NA,"MIEXAM","Microscopic Examination",NA,"NORMAL","NORMAL",NA,NA,NA,NA,"GLAND, SALIVARY, SUBMANDIBULAR",NA,NA,NA,NA,NA,NA,NA,NA,NA,"2007-07-13",30
"GLP003","MI","107001535",991,NA,NA,NA,"MIEXAM","Microscopic Examination",NA,"NORMAL","NORMAL",NA,NA,NA,NA,"LYMPH NODE, MESENTERIC",NA,NA,NA,NA,NA,NA,NA,NA,NA,"2007-07-13",30
"GLP003","MI","107001535",992,NA,NA,NA,"MIEXAM","Microscopic Examination",NA,"NORMAL","NORMAL",NA,NA,NA,NA,"NERVE, OPTIC",NA,NA,NA,NA,"BILATERAL",NA,NA,NA,NA,"2007-07-13",30
"GLP003","MI","107001535",993,NA,NA,NA,"MIEXAM","Microscopic Examination",NA,"NORMAL","NORMAL",NA,NA,NA,NA,"OVARY",NA,NA,NA,NA,"BILATERAL",NA,NA,NA,NA,"2007-07-13",30
"GLP003","MI","107001535",994,NA,NA,NA,"MIEXAM","Microscopic Examination",NA,"NORMAL","NORMAL",NA,NA,NA,NA,"PANCREAS",NA,NA,NA,NA,NA,NA,NA,NA,NA,"2007-07-13",30
"GLP003","MI","107001535",995,NA,NA,NA,"MIEXAM","Microscopic Examination",NA,"NORMAL","NORMAL",NA,NA,NA,NA,"GLAND, PARATHYROID",NA,NA,NA,NA,NA,NA,NA,NA,NA,"2007-07-13",30
"GLP003","MI","107001535",996,NA,NA,NA,"MIEXAM","Microscopic Examination",NA,"NORMAL","NORMAL",NA,NA,NA,NA,"GLAND, PITUITARY",NA,NA,NA,NA,NA,NA,NA,NA,NA,"2007-07-13",30
"GLP003","MI","107001535",997,NA,NA,NA,"MIEXAM","Microscopic Examination",NA,"NORMAL","NORMAL",NA,NA,NA,NA,"NERVE, SCIATIC",NA,NA,NA,NA,NA,NA,NA,NA,NA,"2007-07-13",30
"GLP003","MI","107001535",998,NA,NA,NA,"MIEXAM","Microscopic Examination",NA,"NORMAL","NORMAL",NA,NA,NA,NA,"SKIN/SUBCUTIS",NA,NA,NA,NA,NA,NA,NA,NA,NA,"2007-07-13",30
"GLP003","MI","107001535",999,NA,NA,NA,"MIEXAM","Microscopic Examination",NA,"NORMAL","NORMAL",NA,NA,NA,NA,"SPINAL CORD",NA,NA,NA,NA,NA,NA,NA,NA,NA,"2007-07-13",30
"GLP003","MI","107001535",1000,NA,NA,NA,"MIEXAM","Microscopic Examination",NA,"NORMAL","NORMAL",NA,NA,NA,NA,"SPLEEN",NA,NA,NA,NA,NA,NA,NA,NA,NA,"2007-07-13",30
"GLP003","MI","107001535",1001,NA,NA,NA,"MIEXAM","Microscopic Examination",NA,"NORMAL","NORMAL",NA,NA,NA,NA,"STOMACH",NA,NA,NA,NA,NA,NA,NA,NA,NA,"2007-07-13",30
"GLP003","MI","107001535",1002,NA,NA,NA,"MIEXAM","Microscopic Examination",NA,NA,NA,NA,"NOT DONE","Organ/tissue was not examined",NA,"SYSTEMIC NEOPLASMS",NA,NA,NA,NA,NA,NA,NA,NA,NA,"2007-07-13",30
"GLP003","MI","107001535",1003,NA,NA,NA,"MIEXAM","Microscopic Examination",NA,"NORMAL","NORMAL",NA,NA,NA,NA,"THYMUS",NA,NA,NA,NA,NA,NA,NA,NA,NA,"2007-07-13",30
"GLP003","MI","107001535",1004,NA,NA,NA,"MIEXAM","Microscopic Examination",NA,"NORMAL","NORMAL",NA,NA,NA,NA,"GLAND, THYROID",NA,NA,NA,NA,NA,NA,NA,NA,NA,"2007-07-13",30
"GLP003","MI","107001535",1005,NA,NA,NA,"MIEXAM","Microscopic Examination",NA,"NORMAL","NORMAL",NA,NA,NA,NA,"TONGUE",NA,NA,NA,NA,NA,NA,NA,NA,NA,"2007-07-13",30
"GLP003","MI","107001535",1006,NA,NA,NA,"MIEXAM","Microscopic Examination",NA,"NORMAL","NORMAL",NA,NA,NA,NA,"TRACHEA",NA,NA,NA,NA,NA,NA,NA,NA,NA,"2007-07-13",30
"GLP003","MI","107001535",1007,NA,NA,NA,"MIEXAM","Microscopic Examination",NA,"NORMAL","NORMAL",NA,NA,NA,NA,"URINARY BLADDER",NA,NA,NA,NA,NA,NA,NA,NA,NA,"2007-07-13",30
"GLP003","MI","107001535",1008,NA,NA,NA,"MIEXAM","Microscopic Examination",NA,"NORMAL","NORMAL",NA,NA,NA,NA,"UTERUS",NA,NA,NA,NA,NA,NA,NA,NA,NA,"2007-07-13",30
"GLP003","MI","107001535",1009,NA,NA,NA,"MIEXAM","Microscopic Examination",NA,"NORMAL","NORMAL",NA,NA,NA,NA,"VAGINA",NA,NA,NA,NA,NA,NA,NA,NA,NA,"2007-07-13",30
"GLP003","MI","107001535",1010,NA,NA,NA,"MIEXAM","Microscopic Examination",NA,NA,NA,NA,"NOT DONE","Organ/tissue was not examined",NA,"BONE MARROW SMEAR",NA,NA,NA,NA,NA,NA,NA,NA,NA,"2007-07-13",30
"GLP003","MI","107001647",1012,NA,NA,NA,"MIEXAM","Microscopic Examination",NA,"NORMAL","NORMAL",NA,NA,NA,NA,"ADIPOSE TISSUE",NA,NA,NA,NA,NA,NA,NA,NA,NA,"2007-07-13",30
"GLP003","MI","107001647",1013,NA,NA,NA,"MIEXAM","Microscopic Examination",NA,"NORMAL","NORMAL",NA,NA,NA,NA,"GLAND, ADRENAL",NA,NA,NA,NA,"BILATERAL",NA,NA,NA,NA,"2007-07-13",30
"GLP003","MI","107001647",1014,NA,NA,NA,"MIEXAM","Microscopic Examination",NA,"NORMAL","NORMAL",NA,NA,NA,NA,"ARTERY, AORTA",NA,NA,NA,NA,NA,NA,NA,NA,NA,"2007-07-13",30
"GLP003","MI","107001647",1015,NA,NA,NA,"MIEXAM","Microscopic Examination",NA,"NORMAL","NORMAL",NA,NA,NA,NA,"BONE MARROW, FEMUR",NA,NA,NA,NA,NA,NA,NA,NA,NA,"2007-07-13",30
"GLP003","MI","107001647",1016,NA,NA,NA,"MIEXAM","Microscopic Examination",NA,"NORMAL","NORMAL",NA,NA,NA,NA,"BONE MARROW, STERNUM",NA,NA,NA,NA,NA,NA,NA,NA,NA,"2007-07-13",30
"GLP003","MI","107001647",1017,NA,NA,NA,"MIEXAM","Microscopic Examination",NA,"NORMAL","NORMAL",NA,NA,NA,NA,"BONE, FEMUR",NA,NA,NA,NA,NA,NA,NA,NA,NA,"2007-07-13",30
"GLP003","MI","107001647",1018,NA,NA,NA,"MIEXAM","Microscopic Examination",NA,"NORMAL","NORMAL",NA,NA,NA,NA,"BONE, STERNUM",NA,NA,NA,NA,NA,NA,NA,NA,NA,"2007-07-13",30
"GLP003","MI","107001647",1019,NA,NA,NA,"MIEXAM","Microscopic Examination",NA,"NORMAL","NORMAL",NA,NA,NA,NA,"BRAIN",NA,NA,NA,NA,NA,NA,NA,NA,NA,"2007-07-13",30
"GLP003","MI","107001647",1020,NA,NA,NA,"MIEXAM","Microscopic Examination",NA,"NORMAL","NORMAL",NA,NA,NA,NA,"ADIPOSE TISSUE, BROWN",NA,NA,NA,NA,NA,NA,NA,NA,NA,"2007-07-13",30
"GLP003","MI","107001647",1021,NA,NA,NA,"MIEXAM","Microscopic Examination",NA,"NORMAL","NORMAL",NA,NA,NA,NA,"LARGE INTESTINE, CECUM",NA,NA,NA,NA,NA,NA,NA,NA,NA,"2007-07-13",30
"GLP003","MI","107001647",1022,NA,NA,NA,"MIEXAM","Microscopic Examination",NA,"NORMAL","NORMAL",NA,NA,NA,NA,"CERVIX",NA,NA,NA,NA,NA,NA,NA,NA,NA,"2007-07-13",30
"GLP003","MI","107001647",1023,NA,NA,NA,"MIEXAM","Microscopic Examination",NA,"NORMAL","NORMAL",NA,NA,NA,NA,"LARGE INTESTINE, COLON",NA,NA,NA,NA,NA,NA,NA,NA,NA,"2007-07-13",30
"GLP003","MI","107001647",1024,NA,NA,NA,"MIEXAM","Microscopic Examination",NA,"NORMAL","NORMAL",NA,NA,NA,NA,"MUSCLE, DIAPHRAGM",NA,NA,NA,NA,NA,NA,NA,NA,NA,"2007-07-13",30
"GLP003","MI","107001647",1025,NA,NA,NA,"MIEXAM","Microscopic Examination",NA,"NORMAL","NORMAL",NA,NA,NA,NA,"SMALL INTESTINE, DUODENUM",NA,NA,NA,NA,NA,NA,NA,NA,NA,"2007-07-13",30
"GLP003","MI","107001647",1026,NA,NA,NA,"MIEXAM","Microscopic Examination",NA,"NORMAL","NORMAL",NA,NA,NA,NA,"ESOPHAGUS",NA,NA,NA,NA,NA,NA,NA,NA,NA,"2007-07-13",30
"GLP003","MI","107001647",1027,NA,NA,NA,"MIEXAM","Microscopic Examination",NA,"NORMAL","NORMAL",NA,NA,NA,NA,"EYE",NA,NA,NA,NA,"BILATERAL",NA,NA,NA,NA,"2007-07-13",30
"GLP003","MI","107001647",1028,NA,NA,NA,"MIEXAM","Microscopic Examination",NA,"NORMAL","NORMAL",NA,NA,NA,NA,"GLAND, HARDERIAN",NA,NA,NA,NA,"BILATERAL",NA,NA,NA,NA,"2007-07-13",30
"GLP003","MI","107001647",1029,NA,NA,NA,"MIEXAM","Microscopic Examination",NA,"NORMAL","NORMAL",NA,NA,NA,NA,"HEART",NA,NA,NA,NA,NA,NA,NA,NA,NA,"2007-07-13",30
"GLP003","MI","107001647",1030,NA,NA,NA,"MIEXAM","Microscopic Examination",NA,"NORMAL","NORMAL",NA,NA,NA,NA,"SMALL INTESTINE, ILEUM",NA,NA,NA,NA,NA,NA,NA,NA,NA,"2007-07-13",30
"GLP003","MI","107001647",1031,NA,NA,NA,"MIEXAM","Microscopic Examination",NA,"NORMAL","NORMAL",NA,NA,NA,NA,"SMALL INTESTINE, JEJUNUM",NA,NA,NA,NA,NA,NA,NA,NA,NA,"2007-07-13",30
"GLP003","MI","107001647",1032,NA,NA,NA,"MIEXAM","Microscopic Examination",NA,"NORMAL","NORMAL",NA,NA,NA,NA,"KIDNEY",NA,NA,NA,NA,"BILATERAL",NA,NA,NA,NA,"2007-07-13",30
"GLP003","MI","107001647",1033,NA,NA,NA,"MIEXAM","Microscopic Examination",NA,"NORMAL","NORMAL",NA,NA,NA,NA,"LIVER",NA,NA,NA,NA,NA,NA,NA,NA,NA,"2007-07-13",30
"GLP003","MI","107001647",1034,NA,NA,NA,"MIEXAM","Microscopic Examination",NA,"NORMAL","NORMAL",NA,NA,NA,NA,"LUNG",NA,NA,NA,NA,NA,NA,NA,NA,NA,"2007-07-13",30
"GLP003","MI","107001647",1035,NA,NA,NA,"MIEXAM","Microscopic Examination",NA,"NORMAL","NORMAL",NA,NA,NA,NA,"MUSCLE, QUADRICEPS FEMORIS",NA,NA,NA,NA,NA,NA,NA,NA,NA,"2007-07-13",30
"GLP003","MI","107001647",1036,NA,NA,NA,"MIEXAM","Microscopic Examination",NA,"NORMAL","NORMAL",NA,NA,NA,NA,"GLAND, MAMMARY",NA,NA,NA,NA,NA,NA,NA,NA,NA,"2007-07-13",30
"GLP003","MI","107001647",1037,NA,NA,NA,"MIEXAM","Microscopic Examination",NA,"NORMAL","NORMAL",NA,NA,NA,NA,"LYMPH NODE, SUBMANDIBULAR",NA,NA,NA,NA,NA,NA,NA,NA,NA,"2007-07-13",30
"GLP003","MI","107001647",1038,NA,NA,NA,"MIEXAM","Microscopic Examination",NA,"NORMAL","NORMAL",NA,NA,NA,NA,"GLAND, SALIVARY, SUBMANDIBULAR",NA,NA,NA,NA,NA,NA,NA,NA,NA,"2007-07-13",30
"GLP003","MI","107001647",1039,NA,NA,NA,"MIEXAM","Microscopic Examination",NA,"NORMAL","NORMAL",NA,NA,NA,NA,"LYMPH NODE, MESENTERIC",NA,NA,NA,NA,NA,NA,NA,NA,NA,"2007-07-13",30
"GLP003","MI","107001647",1040,NA,NA,NA,"MIEXAM","Microscopic Examination",NA,"NORMAL","NORMAL",NA,NA,NA,NA,"NERVE, OPTIC",NA,NA,NA,NA,"BILATERAL",NA,NA,NA,NA,"2007-07-13",30
"GLP003","MI","107001647",1041,NA,NA,NA,"MIEXAM","Microscopic Examination",NA,"NORMAL","NORMAL",NA,NA,NA,NA,"OVARY",NA,NA,NA,NA,"BILATERAL",NA,NA,NA,NA,"2007-07-13",30
"GLP003","MI","107001647",1042,NA,NA,NA,"MIEXAM","Microscopic Examination",NA,"NORMAL","NORMAL",NA,NA,NA,NA,"PANCREAS",NA,NA,NA,NA,NA,NA,NA,NA,NA,"2007-07-13",30
"GLP003","MI","107001647",1043,NA,NA,NA,"MIEXAM","Microscopic Examination",NA,"NORMAL","NORMAL",NA,NA,NA,NA,"GLAND, PARATHYROID",NA,NA,NA,NA,NA,NA,NA,NA,NA,"2007-07-13",30
"GLP003","MI","107001647",1044,NA,NA,NA,"MIEXAM","Microscopic Examination",NA,"NORMAL","NORMAL",NA,NA,NA,NA,"GLAND, PITUITARY",NA,NA,NA,NA,NA,NA,NA,NA,NA,"2007-07-13",30
"GLP003","MI","107001647",1045,NA,NA,NA,"MIEXAM","Microscopic Examination",NA,"NORMAL","NORMAL",NA,NA,NA,NA,"NERVE, SCIATIC",NA,NA,NA,NA,NA,NA,NA,NA,NA,"2007-07-13",30
"GLP003","MI","107001647",1046,NA,NA,NA,"MIEXAM","Microscopic Examination",NA,"NORMAL","NORMAL",NA,NA,NA,NA,"SKIN/SUBCUTIS",NA,NA,NA,NA,NA,NA,NA,NA,NA,"2007-07-13",30
"GLP003","MI","107001647",1047,NA,NA,NA,"MIEXAM","Microscopic Examination",NA,"NORMAL","NORMAL",NA,NA,NA,NA,"SPINAL CORD",NA,NA,NA,NA,NA,NA,NA,NA,NA,"2007-07-13",30
"GLP003","MI","107001647",1048,NA,NA,NA,"MIEXAM","Microscopic Examination",NA,"NORMAL","NORMAL",NA,NA,NA,NA,"SPLEEN",NA,NA,NA,NA,NA,NA,NA,NA,NA,"2007-07-13",30
"GLP003","MI","107001647",1049,NA,NA,NA,"MIEXAM","Microscopic Examination",NA,"NORMAL","NORMAL",NA,NA,NA,NA,"STOMACH",NA,NA,NA,NA,NA,NA,NA,NA,NA,"2007-07-13",30
"GLP003","MI","107001647",1050,NA,NA,NA,"MIEXAM","Microscopic Examination",NA,NA,NA,NA,"NOT DONE","Organ/tissue was not examined",NA,"SYSTEMIC NEOPLASMS",NA,NA,NA,NA,NA,NA,NA,NA,NA,"2007-07-13",30
"GLP003","MI","107001647",1051,NA,NA,NA,"MIEXAM","Microscopic Examination",NA,"NORMAL","NORMAL",NA,NA,NA,NA,"THYMUS",NA,NA,NA,NA,NA,NA,NA,NA,NA,"2007-07-13",30
"GLP003","MI","107001647",1052,NA,NA,NA,"MIEXAM","Microscopic Examination",NA,"NORMAL","NORMAL",NA,NA,NA,NA,"GLAND, THYROID",NA,NA,NA,NA,NA,NA,NA,NA,NA,"2007-07-13",30
"GLP003","MI","107001647",1053,NA,NA,NA,"MIEXAM","Microscopic Examination",NA,"NORMAL","NORMAL",NA,NA,NA,NA,"TONGUE",NA,NA,NA,NA,NA,NA,NA,NA,NA,"2007-07-13",30
"GLP003","MI","107001647",1054,NA,NA,NA,"MIEXAM","Microscopic Examination",NA,"NORMAL","NORMAL",NA,NA,NA,NA,"TRACHEA",NA,NA,NA,NA,NA,NA,NA,NA,NA,"2007-07-13",30
"GLP003","MI","107001647",1055,NA,NA,NA,"MIEXAM","Microscopic Examination",NA,"NORMAL","NORMAL",NA,NA,NA,NA,"URINARY BLADDER",NA,NA,NA,NA,NA,NA,NA,NA,NA,"2007-07-13",30
"GLP003","MI","107001647",1056,NA,NA,NA,"MIEXAM","Microscopic Examination",NA,"NORMAL","NORMAL",NA,NA,NA,NA,"UTERUS",NA,NA,NA,NA,NA,NA,NA,NA,NA,"2007-07-13",30
"GLP003","MI","107001647",1057,NA,NA,NA,"MIEXAM","Microscopic Examination",NA,"NORMAL","NORMAL",NA,NA,NA,NA,"VAGINA",NA,NA,NA,NA,NA,NA,NA,NA,NA,"2007-07-13",30
"GLP003","MI","107001647",1058,NA,NA,NA,"MIEXAM","Microscopic Examination",NA,NA,NA,NA,"NOT DONE","Organ/tissue was not examined",NA,"BONE MARROW SMEAR",NA,NA,NA,NA,NA,NA,NA,NA,NA,"2007-07-13",30
"GLP003","MI","107001592",1060,NA,NA,NA,"MIEXAM","Microscopic Examination",NA,"NORMAL","NORMAL",NA,NA,NA,NA,"ADIPOSE TISSUE",NA,NA,NA,NA,NA,NA,NA,NA,NA,"2007-07-13",30
"GLP003","MI","107001592",1061,NA,NA,NA,"MIEXAM","Microscopic Examination",NA,"NORMAL","NORMAL",NA,NA,NA,NA,"GLAND, ADRENAL",NA,NA,NA,NA,"BILATERAL",NA,NA,NA,NA,"2007-07-13",30
"GLP003","MI","107001592",1062,NA,NA,NA,"MIEXAM","Microscopic Examination",NA,"NORMAL","NORMAL",NA,NA,NA,NA,"ARTERY, AORTA",NA,NA,NA,NA,NA,NA,NA,NA,NA,"2007-07-13",30
"GLP003","MI","107001592",1063,NA,NA,NA,"MIEXAM","Microscopic Examination",NA,"NORMAL","NORMAL",NA,NA,NA,NA,"BONE MARROW, FEMUR",NA,NA,NA,NA,NA,NA,NA,NA,NA,"2007-07-13",30
"GLP003","MI","107001592",1064,NA,NA,NA,"MIEXAM","Microscopic Examination",NA,"NORMAL","NORMAL",NA,NA,NA,NA,"BONE MARROW, STERNUM",NA,NA,NA,NA,NA,NA,NA,NA,NA,"2007-07-13",30
"GLP003","MI","107001592",1065,NA,NA,NA,"MIEXAM","Microscopic Examination",NA,"NORMAL","NORMAL",NA,NA,NA,NA,"BONE, FEMUR",NA,NA,NA,NA,NA,NA,NA,NA,NA,"2007-07-13",30
"GLP003","MI","107001592",1066,NA,NA,NA,"MIEXAM","Microscopic Examination",NA,"NORMAL","NORMAL",NA,NA,NA,NA,"BONE, STERNUM",NA,NA,NA,NA,NA,NA,NA,NA,NA,"2007-07-13",30
"GLP003","MI","107001592",1067,NA,NA,NA,"MIEXAM","Microscopic Examination",NA,"NORMAL","NORMAL",NA,NA,NA,NA,"BRAIN",NA,NA,NA,NA,NA,NA,NA,NA,NA,"2007-07-13",30
"GLP003","MI","107001592",1068,NA,NA,NA,"MIEXAM","Microscopic Examination",NA,"NORMAL","NORMAL",NA,NA,NA,NA,"ADIPOSE TISSUE, BROWN",NA,NA,NA,NA,NA,NA,NA,NA,NA,"2007-07-13",30
"GLP003","MI","107001592",1069,NA,NA,NA,"MIEXAM","Microscopic Examination",NA,"NORMAL","NORMAL",NA,NA,NA,NA,"LARGE INTESTINE, CECUM",NA,NA,NA,NA,NA,NA,NA,NA,NA,"2007-07-13",30
"GLP003","MI","107001592",1070,NA,NA,NA,"MIEXAM","Microscopic Examination",NA,"NORMAL","NORMAL",NA,NA,NA,NA,"CERVIX",NA,NA,NA,NA,NA,NA,NA,NA,NA,"2007-07-13",30
"GLP003","MI","107001592",1071,NA,NA,NA,"MIEXAM","Microscopic Examination",NA,"NORMAL","NORMAL",NA,NA,NA,NA,"LARGE INTESTINE, COLON",NA,NA,NA,NA,NA,NA,NA,NA,NA,"2007-07-13",30
"GLP003","MI","107001592",1072,NA,NA,NA,"MIEXAM","Microscopic Examination",NA,"NORMAL","NORMAL",NA,NA,NA,NA,"MUSCLE, DIAPHRAGM",NA,NA,NA,NA,NA,NA,NA,NA,NA,"2007-07-13",30
"GLP003","MI","107001592",1073,NA,NA,NA,"MIEXAM","Microscopic Examination",NA,"NORMAL","NORMAL",NA,NA,NA,NA,"SMALL INTESTINE, DUODENUM",NA,NA,NA,NA,NA,NA,NA,NA,NA,"2007-07-13",30
"GLP003","MI","107001592",1074,NA,NA,NA,"MIEXAM","Microscopic Examination",NA,"NORMAL","NORMAL",NA,NA,NA,NA,"ESOPHAGUS",NA,NA,NA,NA,NA,NA,NA,NA,NA,"2007-07-13",30
"GLP003","MI","107001592",1075,NA,NA,NA,"MIEXAM","Microscopic Examination",NA,"NORMAL","NORMAL",NA,NA,NA,NA,"EYE",NA,NA,NA,NA,"BILATERAL",NA,NA,NA,NA,"2007-07-13",30
"GLP003","MI","107001592",1076,NA,NA,NA,"MIEXAM","Microscopic Examination",NA,"NORMAL","NORMAL",NA,NA,NA,NA,"GLAND, HARDERIAN",NA,NA,NA,NA,"BILATERAL",NA,NA,NA,NA,"2007-07-13",30
"GLP003","MI","107001592",1077,NA,NA,NA,"MIEXAM","Microscopic Examination",NA,"NORMAL","NORMAL",NA,NA,NA,NA,"HEART",NA,NA,NA,NA,NA,NA,NA,NA,NA,"2007-07-13",30
"GLP003","MI","107001592",1078,NA,NA,NA,"MIEXAM","Microscopic Examination",NA,"NORMAL","NORMAL",NA,NA,NA,NA,"SMALL INTESTINE, ILEUM",NA,NA,NA,NA,NA,NA,NA,NA,NA,"2007-07-13",30
"GLP003","MI","107001592",1079,NA,NA,NA,"MIEXAM","Microscopic Examination",NA,"NORMAL","NORMAL",NA,NA,NA,NA,"SMALL INTESTINE, JEJUNUM",NA,NA,NA,NA,NA,NA,NA,NA,NA,"2007-07-13",30
"GLP003","MI","107001592",1080,NA,NA,NA,"MIEXAM","Microscopic Examination",NA,"NORMAL","NORMAL",NA,NA,NA,NA,"KIDNEY",NA,NA,NA,NA,"BILATERAL",NA,NA,NA,NA,"2007-07-13",30
"GLP003","MI","107001592",1081,NA,NA,NA,"MIEXAM","Microscopic Examination",NA,"LIVER:Infiltration: mononuclear cell, multifocal, grade 1","Infiltration",NA,NA,NA,NA,"LIVER",NA,NA,NA,NA,NA,NA,NA,"MINIMAL",NA,"2007-07-13",30
"GLP003","MI","107001592",1082,NA,NA,NA,"MIEXAM","Microscopic Examination",NA,"NORMAL","NORMAL",NA,NA,NA,NA,"LUNG",NA,NA,NA,NA,NA,NA,NA,NA,NA,"2007-07-13",30
"GLP003","MI","107001592",1083,NA,NA,NA,"MIEXAM","Microscopic Examination",NA,"NORMAL","NORMAL",NA,NA,NA,NA,"MUSCLE, QUADRICEPS FEMORIS",NA,NA,NA,NA,NA,NA,NA,NA,NA,"2007-07-13",30
"GLP003","MI","107001592",1084,NA,NA,NA,"MIEXAM","Microscopic Examination",NA,"NORMAL","NORMAL",NA,NA,NA,NA,"GLAND, MAMMARY",NA,NA,NA,NA,NA,NA,NA,NA,NA,"2007-07-13",30
"GLP003","MI","107001592",1085,NA,NA,NA,"MIEXAM","Microscopic Examination",NA,"NORMAL","NORMAL",NA,NA,NA,NA,"LYMPH NODE, SUBMANDIBULAR",NA,NA,NA,NA,NA,NA,NA,NA,NA,"2007-07-13",30
"GLP003","MI","107001592",1086,NA,NA,NA,"MIEXAM","Microscopic Examination",NA,"NORMAL","NORMAL",NA,NA,NA,NA,"GLAND, SALIVARY, SUBMANDIBULAR",NA,NA,NA,NA,NA,NA,NA,NA,NA,"2007-07-13",30
"GLP003","MI","107001592",1087,NA,NA,NA,"MIEXAM","Microscopic Examination",NA,"NORMAL","NORMAL",NA,NA,NA,NA,"LYMPH NODE, MESENTERIC",NA,NA,NA,NA,NA,NA,NA,NA,NA,"2007-07-13",30
"GLP003","MI","107001592",1088,NA,NA,NA,"MIEXAM","Microscopic Examination",NA,"NORMAL","NORMAL",NA,NA,NA,NA,"NERVE, OPTIC",NA,NA,NA,NA,"BILATERAL",NA,NA,NA,NA,"2007-07-13",30
"GLP003","MI","107001592",1089,NA,NA,NA,"MIEXAM","Microscopic Examination",NA,"NORMAL","NORMAL",NA,NA,NA,NA,"OVARY",NA,NA,NA,NA,"BILATERAL",NA,NA,NA,NA,"2007-07-13",30
"GLP003","MI","107001592",1090,NA,NA,NA,"MIEXAM","Microscopic Examination",NA,"NORMAL","NORMAL",NA,NA,NA,NA,"PANCREAS",NA,NA,NA,NA,NA,NA,NA,NA,NA,"2007-07-13",30
"GLP003","MI","107001592",1091,NA,NA,NA,"MIEXAM","Microscopic Examination",NA,"NORMAL","NORMAL",NA,NA,NA,NA,"GLAND, PARATHYROID",NA,NA,NA,NA,NA,NA,NA,NA,NA,"2007-07-13",30
"GLP003","MI","107001592",1092,NA,NA,NA,"MIEXAM","Microscopic Examination",NA,"NORMAL","NORMAL",NA,NA,NA,NA,"GLAND, PITUITARY",NA,NA,NA,NA,NA,NA,NA,NA,NA,"2007-07-13",30
"GLP003","MI","107001592",1093,NA,NA,NA,"MIEXAM","Microscopic Examination",NA,"NORMAL","NORMAL",NA,NA,NA,NA,"NERVE, SCIATIC",NA,NA,NA,NA,NA,NA,NA,NA,NA,"2007-07-13",30
"GLP003","MI","107001592",1094,NA,NA,NA,"MIEXAM","Microscopic Examination",NA,"NORMAL","NORMAL",NA,NA,NA,NA,"SKIN/SUBCUTIS",NA,NA,NA,NA,NA,NA,NA,NA,NA,"2007-07-13",30
"GLP003","MI","107001592",1095,NA,NA,NA,"MIEXAM","Microscopic Examination",NA,"NORMAL","NORMAL",NA,NA,NA,NA,"SPINAL CORD",NA,NA,NA,NA,NA,NA,NA,NA,NA,"2007-07-13",30
"GLP003","MI","107001592",1096,NA,NA,NA,"MIEXAM","Microscopic Examination",NA,"NORMAL","NORMAL",NA,NA,NA,NA,"SPLEEN",NA,NA,NA,NA,NA,NA,NA,NA,NA,"2007-07-13",30
"GLP003","MI","107001592",1097,NA,NA,NA,"MIEXAM","Microscopic Examination",NA,"NORMAL","NORMAL",NA,NA,NA,NA,"STOMACH",NA,NA,NA,NA,NA,NA,NA,NA,NA,"2007-07-13",30
"GLP003","MI","107001592",1098,NA,NA,NA,"MIEXAM","Microscopic Examination",NA,NA,NA,NA,"NOT DONE","Organ/tissue was not examined",NA,"SYSTEMIC NEOPLASMS",NA,NA,NA,NA,NA,NA,NA,NA,NA,"2007-07-13",30
"GLP003","MI","107001592",1099,NA,NA,NA,"MIEXAM","Microscopic Examination",NA,"NORMAL","NORMAL",NA,NA,NA,NA,"THYMUS",NA,NA,NA,NA,NA,NA,NA,NA,NA,"2007-07-13",30
"GLP003","MI","107001592",1100,NA,NA,NA,"MIEXAM","Microscopic Examination",NA,"NORMAL","NORMAL",NA,NA,NA,NA,"GLAND, THYROID",NA,NA,NA,NA,NA,NA,NA,NA,NA,"2007-07-13",30
"GLP003","MI","107001592",1101,NA,NA,NA,"MIEXAM","Microscopic Examination",NA,"NORMAL","NORMAL",NA,NA,NA,NA,"TONGUE",NA,NA,NA,NA,NA,NA,NA,NA,NA,"2007-07-13",30
"GLP003","MI","107001592",1102,NA,NA,NA,"MIEXAM","Microscopic Examination",NA,"NORMAL","NORMAL",NA,NA,NA,NA,"TRACHEA",NA,NA,NA,NA,NA,NA,NA,NA,NA,"2007-07-13",30
"GLP003","MI","107001592",1103,NA,NA,NA,"MIEXAM","Microscopic Examination",NA,"NORMAL","NORMAL",NA,NA,NA,NA,"URINARY BLADDER",NA,NA,NA,NA,NA,NA,NA,NA,NA,"2007-07-13",30
"GLP003","MI","107001592",1104,NA,NA,NA,"MIEXAM","Microscopic Examination",NA,"NORMAL","NORMAL",NA,NA,NA,NA,"UTERUS",NA,NA,NA,NA,NA,NA,NA,NA,NA,"2007-07-13",30
"GLP003","MI","107001592",1105,NA,NA,NA,"MIEXAM","Microscopic Examination",NA,"NORMAL","NORMAL",NA,NA,NA,NA,"VAGINA",NA,NA,NA,NA,NA,NA,NA,NA,NA,"2007-07-13",30
"GLP003","MI","107001592",1106,NA,NA,NA,"MIEXAM","Microscopic Examination",NA,NA,NA,NA,"NOT DONE","Organ/tissue was not examined",NA,"BONE MARROW SMEAR",NA,NA,NA,NA,NA,NA,NA,NA,NA,"2007-07-13",30
"GLP003","MI","107001569",1108,NA,NA,NA,"MIEXAM","Microscopic Examination",NA,"NORMAL","NORMAL",NA,NA,NA,NA,"ADIPOSE TISSUE",NA,NA,NA,NA,NA,NA,NA,NA,NA,"2007-07-13",30
"GLP003","MI","107001569",1109,NA,NA,NA,"MIEXAM","Microscopic Examination",NA,"NORMAL","NORMAL",NA,NA,NA,NA,"GLAND, ADRENAL",NA,NA,NA,NA,"BILATERAL",NA,NA,NA,NA,"2007-07-13",30
"GLP003","MI","107001569",1110,NA,NA,NA,"MIEXAM","Microscopic Examination",NA,"NORMAL","NORMAL",NA,NA,NA,NA,"ARTERY, AORTA",NA,NA,NA,NA,NA,NA,NA,NA,NA,"2007-07-13",30
"GLP003","MI","107001569",1111,NA,NA,NA,"MIEXAM","Microscopic Examination",NA,"NORMAL","NORMAL",NA,NA,NA,NA,"BONE MARROW, FEMUR",NA,NA,NA,NA,NA,NA,NA,NA,NA,"2007-07-13",30
"GLP003","MI","107001569",1112,NA,NA,NA,"MIEXAM","Microscopic Examination",NA,"NORMAL","NORMAL",NA,NA,NA,NA,"BONE MARROW, STERNUM",NA,NA,NA,NA,NA,NA,NA,NA,NA,"2007-07-13",30
"GLP003","MI","107001569",1113,NA,NA,NA,"MIEXAM","Microscopic Examination",NA,"NORMAL","NORMAL",NA,NA,NA,NA,"BONE, FEMUR",NA,NA,NA,NA,NA,NA,NA,NA,NA,"2007-07-13",30
"GLP003","MI","107001569",1114,NA,NA,NA,"MIEXAM","Microscopic Examination",NA,"NORMAL","NORMAL",NA,NA,NA,NA,"BONE, STERNUM",NA,NA,NA,NA,NA,NA,NA,NA,NA,"2007-07-13",30
"GLP003","MI","107001569",1115,NA,NA,NA,"MIEXAM","Microscopic Examination",NA,"NORMAL","NORMAL",NA,NA,NA,NA,"BRAIN",NA,NA,NA,NA,NA,NA,NA,NA,NA,"2007-07-13",30
"GLP003","MI","107001569",1116,NA,NA,NA,"MIEXAM","Microscopic Examination",NA,"NORMAL","NORMAL",NA,NA,NA,NA,"ADIPOSE TISSUE, BROWN",NA,NA,NA,NA,NA,NA,NA,NA,NA,"2007-07-13",30
"GLP003","MI","107001569",1117,NA,NA,NA,"MIEXAM","Microscopic Examination",NA,"NORMAL","NORMAL",NA,NA,NA,NA,"LARGE INTESTINE, CECUM",NA,NA,NA,NA,NA,NA,NA,NA,NA,"2007-07-13",30
"GLP003","MI","107001569",1118,NA,NA,NA,"MIEXAM","Microscopic Examination",NA,"NORMAL","NORMAL",NA,NA,NA,NA,"CERVIX",NA,NA,NA,NA,NA,NA,NA,NA,NA,"2007-07-13",30
"GLP003","MI","107001569",1119,NA,NA,NA,"MIEXAM","Microscopic Examination",NA,"NORMAL","NORMAL",NA,NA,NA,NA,"LARGE INTESTINE, COLON",NA,NA,NA,NA,NA,NA,NA,NA,NA,"2007-07-13",30
"GLP003","MI","107001569",1120,NA,NA,NA,"MIEXAM","Microscopic Examination",NA,"NORMAL","NORMAL",NA,NA,NA,NA,"MUSCLE, DIAPHRAGM",NA,NA,NA,NA,NA,NA,NA,NA,NA,"2007-07-13",30
"GLP003","MI","107001569",1121,NA,NA,NA,"MIEXAM","Microscopic Examination",NA,"NORMAL","NORMAL",NA,NA,NA,NA,"SMALL INTESTINE, DUODENUM",NA,NA,NA,NA,NA,NA,NA,NA,NA,"2007-07-13",30
"GLP003","MI","107001569",1122,NA,NA,NA,"MIEXAM","Microscopic Examination",NA,"NORMAL","NORMAL",NA,NA,NA,NA,"ESOPHAGUS",NA,NA,NA,NA,NA,NA,NA,NA,NA,"2007-07-13",30
"GLP003","MI","107001569",1123,NA,NA,NA,"MIEXAM","Microscopic Examination",NA,"NORMAL","NORMAL",NA,NA,NA,NA,"EYE",NA,NA,NA,NA,"BILATERAL",NA,NA,NA,NA,"2007-07-13",30
"GLP003","MI","107001569",1124,NA,NA,NA,"MIEXAM","Microscopic Examination",NA,"NORMAL","NORMAL",NA,NA,NA,NA,"GLAND, HARDERIAN",NA,NA,NA,NA,"BILATERAL",NA,NA,NA,NA,"2007-07-13",30
"GLP003","MI","107001569",1125,NA,NA,NA,"MIEXAM","Microscopic Examination",NA,"NORMAL","NORMAL",NA,NA,NA,NA,"HEART",NA,NA,NA,NA,NA,NA,NA,NA,NA,"2007-07-13",30
"GLP003","MI","107001569",1126,NA,NA,NA,"MIEXAM","Microscopic Examination",NA,"NORMAL","NORMAL",NA,NA,NA,NA,"SMALL INTESTINE, ILEUM",NA,NA,NA,NA,NA,NA,NA,NA,NA,"2007-07-13",30
"GLP003","MI","107001569",1127,NA,NA,NA,"MIEXAM","Microscopic Examination",NA,"NORMAL","NORMAL",NA,NA,NA,NA,"SMALL INTESTINE, JEJUNUM",NA,NA,NA,NA,NA,NA,NA,NA,NA,"2007-07-13",30
"GLP003","MI","107001569",1128,NA,NA,NA,"MIEXAM","Microscopic Examination",NA,"KIDNEYS:Mineralization, multifocal, bilateral, grade 1","Mineralization",NA,NA,NA,NA,"KIDNEY",NA,NA,NA,NA,"BILATERAL",NA,NA,"MINIMAL",NA,"2007-07-13",30
"GLP003","MI","107001569",1129,NA,NA,NA,"MIEXAM","Microscopic Examination",NA,"KIDNEYS:Nephropathy: progressive murine, focal, unilateral, grade 1","Nephropathy",NA,NA,NA,NA,"KIDNEY",NA,NA,NA,NA,"BILATERAL",NA,NA,"MINIMAL",NA,"2007-07-13",30
"GLP003","MI","107001569",1130,NA,NA,NA,"MIEXAM","Microscopic Examination",NA,"LIVER:Infiltration: mononuclear cell, multifocal, grade 1","Infiltration",NA,NA,NA,NA,"LIVER",NA,NA,NA,NA,NA,NA,NA,"MINIMAL",NA,"2007-07-13",30
"GLP003","MI","107001569",1131,NA,NA,NA,"MIEXAM","Microscopic Examination",NA,"NORMAL","NORMAL",NA,NA,NA,NA,"LUNG",NA,NA,NA,NA,NA,NA,NA,NA,NA,"2007-07-13",30
"GLP003","MI","107001569",1132,NA,NA,NA,"MIEXAM","Microscopic Examination",NA,"NORMAL","NORMAL",NA,NA,NA,NA,"MUSCLE, QUADRICEPS FEMORIS",NA,NA,NA,NA,NA,NA,NA,NA,NA,"2007-07-13",30
"GLP003","MI","107001569",1133,NA,NA,NA,"MIEXAM","Microscopic Examination",NA,"NORMAL","NORMAL",NA,NA,NA,NA,"GLAND, MAMMARY",NA,NA,NA,NA,NA,NA,NA,NA,NA,"2007-07-13",30
"GLP003","MI","107001569",1134,NA,NA,NA,"MIEXAM","Microscopic Examination",NA,"NORMAL","NORMAL",NA,NA,NA,NA,"LYMPH NODE, SUBMANDIBULAR",NA,NA,NA,NA,NA,NA,NA,NA,NA,"2007-07-13",30
"GLP003","MI","107001569",1135,NA,NA,NA,"MIEXAM","Microscopic Examination",NA,"NORMAL","NORMAL",NA,NA,NA,NA,"GLAND, SALIVARY, SUBMANDIBULAR",NA,NA,NA,NA,NA,NA,NA,NA,NA,"2007-07-13",30
"GLP003","MI","107001569",1136,NA,NA,NA,"MIEXAM","Microscopic Examination",NA,"NORMAL","NORMAL",NA,NA,NA,NA,"LYMPH NODE, MESENTERIC",NA,NA,NA,NA,NA,NA,NA,NA,NA,"2007-07-13",30
"GLP003","MI","107001569",1137,NA,NA,NA,"MIEXAM","Microscopic Examination",NA,"NORMAL","NORMAL",NA,NA,NA,NA,"NERVE, OPTIC",NA,NA,NA,NA,"BILATERAL",NA,NA,NA,NA,"2007-07-13",30
"GLP003","MI","107001569",1138,NA,NA,NA,"MIEXAM","Microscopic Examination",NA,"NORMAL","NORMAL",NA,NA,NA,NA,"OVARY",NA,NA,NA,NA,"BILATERAL",NA,NA,NA,NA,"2007-07-13",30
"GLP003","MI","107001569",1139,NA,NA,NA,"MIEXAM","Microscopic Examination",NA,"NORMAL","NORMAL",NA,NA,NA,NA,"PANCREAS",NA,NA,NA,NA,NA,NA,NA,NA,NA,"2007-07-13",30
"GLP003","MI","107001569",1140,NA,NA,NA,"MIEXAM","Microscopic Examination",NA,"NORMAL","NORMAL",NA,NA,NA,NA,"GLAND, PARATHYROID",NA,NA,NA,NA,NA,NA,NA,NA,NA,"2007-07-13",30
"GLP003","MI","107001569",1141,NA,NA,NA,"MIEXAM","Microscopic Examination",NA,"NORMAL","NORMAL",NA,NA,NA,NA,"GLAND, PITUITARY",NA,NA,NA,NA,NA,NA,NA,NA,NA,"2007-07-13",30
"GLP003","MI","107001569",1142,NA,NA,NA,"MIEXAM","Microscopic Examination",NA,"NORMAL","NORMAL",NA,NA,NA,NA,"NERVE, SCIATIC",NA,NA,NA,NA,NA,NA,NA,NA,NA,"2007-07-13",30
