"STUDYID","DOMAIN","USUBJID","OMSEQ","OMTESTCD","OMTEST","OMORRES","OMORRESU","OMSTRESC","OMSTRESN","OMSTRESU","OMSTAT","OMREASND","OMSPEC","OMANTREG","OMSPCCND","OMSPCUFL","OMLAT","OMDIR","OMPORTOT","OMEXCLFL","OMREASEX","OMDTC","OMDY"
"GLP003","OM","107001493",1,"WEIGHT","Weight","1.971","g","1.971",1.971,"g",NA,NA,"BRAIN",NA,NA,NA,NA,NA,NA,NA,NA,"2007-07-10",29
"GLP003","OM","107001493",2,"WEIGHT","Weight","1.243","g","1.243",1.243,"g",NA,NA,"HEART",NA,NA,NA,NA,NA,NA,NA,NA,"2007-07-10",29
"GLP003","OM","107001493",3,"WEIGHT","Weight","11.962","g","11.962",11.962,"g",NA,NA,"LIVER",NA,NA,NA,NA,NA,NA,NA,NA,"2007-07-10",29
"GLP003","OM","107001493",4,"WEIGHT","Weight","2.579","g","2.579",2.579,"g",NA,NA,"KIDNEY",NA,NA,NA,"BILATERAL",NA,NA,NA,NA,"2007-07-10",29
"GLP003","OM","107001493",5,"WEIGHT","Weight","3.29","g","3.29",3.29,"g",NA,NA,"TESTIS",NA,NA,NA,"BILATERAL",NA,NA,NA,NA,"2007-07-10",29
"GLP003","OM","107001493",6,"WEIGHT","Weight","2.433","g","2.433",2.433,"g",NA,NA,"GLAND, PROSTATE",NA,NA,NA,NA,NA,NA,NA,NA,"2007-07-10",29
"GLP003","OM","107001493",7,"WEIGHT","Weight",".011","g","0.011",0.011,"g",NA,NA,"GLAND, PITUITARY",NA,NA,NA,NA,NA,NA,NA,NA,"2007-07-10",29
"GLP003","OM","107001493",8,"WEIGHT","Weight",".036","g","0.036",0.036,"g",NA,NA,"GLAND, THYROID",NA,NA,NA,NA,NA,NA,NA,NA,"2007-07-10",29
"GLP003","OM","107001493",9,"WEIGHT","Weight",".062","g","0.062",0.062,"g",NA,NA,"GLAND, ADRENAL",NA,NA,NA,"BILATERAL",NA,NA,NA,NA,"2007-07-10",29
"GLP003","OM","107001493",10,"WEIGHT","Weight",".715","g","0.715",0.715,"g",NA,NA,"SPLEEN",NA,NA,NA,NA,NA,NA,NA,NA,"2007-07-10",29
"GLP003","OM","107001493",11,"WEIGHT","Weight",".599","g","0.599",0.599,"g",NA,NA,"THYMUS",NA,NA,NA,NA,NA,NA,NA,NA,"2007-07-10",29
"GLP003","OM","107001427",12,"WEIGHT","Weight","2.1","g","2.1",2.1,"g",NA,NA,"BRAIN",NA,NA,NA,NA,NA,NA,NA,NA,"2007-07-10",29
"GLP003","OM","107001427",13,"WEIGHT","Weight","1.139","g","1.139",1.139,"g",NA,NA,"HEART",NA,NA,NA,NA,NA,NA,NA,NA,"2007-07-10",29
"GLP003","OM","107001427",14,"WEIGHT","Weight","11.175","g","11.175",11.175,"g",NA,NA,"LIVER",NA,NA,NA,NA,NA,NA,NA,NA,"2007-07-10",29
"GLP003","OM","107001427",15,"WEIGHT","Weight","2.532","g","2.532",2.532,"g",NA,NA,"KIDNEY",NA,NA,NA,"BILATERAL",NA,NA,NA,NA,"2007-07-10",29
"GLP003","OM","107001427",16,"WEIGHT","Weight","3.417","g","3.417",3.417,"g",NA,NA,"TESTIS",NA,NA,NA,"BILATERAL",NA,NA,NA,NA,"2007-07-10",29
"GLP003","OM","107001427",17,"WEIGHT","Weight","2.772","g","2.772",2.772,"g",NA,NA,"GLAND, PROSTATE",NA,NA,NA,NA,NA,NA,NA,NA,"2007-07-10",29
"GLP003","OM","107001427",18,"WEIGHT","Weight",".014","g","0.014",0.014,"g",NA,NA,"GLAND, PITUITARY",NA,NA,NA,NA,NA,NA,NA,NA,"2007-07-10",29
"GLP003","OM","107001427",19,"WEIGHT","Weight",".029","g","0.029",0.029,"g",NA,NA,"GLAND, THYROID",NA,NA,NA,NA,NA,NA,NA,NA,"2007-07-10",29
"GLP003","OM","107001427",20,"WEIGHT","Weight",".065","g","0.065",0.065,"g",NA,NA,"GLAND, ADRENAL",NA,NA,NA,"BILATERAL",NA,NA,NA,NA,"2007-07-10",29
"GLP003","OM","107001427",21,"WEIGHT","Weight",".751","g","0.751",0.751,"g",NA,NA,"SPLEEN",NA,NA,NA,NA,NA,NA,NA,NA,"2007-07-10",29
"GLP003","OM","107001427",22,"WEIGHT","Weight",".323","g","0.323",0.323,"g",NA,NA,"THYMUS",NA,NA,NA,NA,NA,NA,NA,NA,"2007-07-10",29
"GLP003","OM","107001458",23,"WEIGHT","Weight","2.12","g","2.12",2.12,"g",NA,NA,"BRAIN",NA,NA,NA,NA,NA,NA,NA,NA,"2007-07-10",29
"GLP003","OM","107001458",24,"WEIGHT","Weight","1.046","g","1.046",1.046,"g",NA,NA,"HEART",NA,NA,NA,NA,NA,NA,NA,NA,"2007-07-10",29
"GLP003","OM","107001458",25,"WEIGHT","Weight","10.272","g","10.272",10.272,"g",NA,NA,"LIVER",NA,NA,NA,NA,NA,NA,NA,NA,"2007-07-10",29
"GLP003","OM","107001458",26,"WEIGHT","Weight","2.547","g","2.547",2.547,"g",NA,NA,"KIDNEY",NA,NA,NA,"BILATERAL",NA,NA,NA,NA,"2007-07-10",29
"GLP003","OM","107001458",27,"WEIGHT","Weight","3.391","g","3.391",3.391,"g",NA,NA,"TESTIS",NA,NA,NA,"BILATERAL",NA,NA,NA,NA,"2007-07-10",29
"GLP003","OM","107001458",28,"WEIGHT","Weight","2.878","g","2.878",2.878,"g",NA,NA,"GLAND, PROSTATE",NA,NA,NA,NA,NA,NA,NA,NA,"2007-07-10",29
"GLP003","OM","107001458",29,"WEIGHT","Weight",".011","g","0.011",0.011,"g",NA,NA,"GLAND, PITUITARY",NA,NA,NA,NA,NA,NA,NA,NA,"2007-07-10",29
"GLP003","OM","107001458",30,"WEIGHT","Weight",".021","g","0.021",0.021,"g",NA,NA,"GLAND, THYROID",NA,NA,NA,NA,NA,NA,NA,NA,"2007-07-10",29
"GLP003","OM","107001458",31,"WEIGHT","Weight",".06","g","0.06",0.06,"g",NA,NA,"GLAND, ADRENAL",NA,NA,NA,"BILATERAL",NA,NA,NA,NA,"2007-07-10",29
"GLP003","OM","107001458",32,"WEIGHT","Weight",".542","g","0.542",0.542,"g",NA,NA,"SPLEEN",NA,NA,NA,NA,NA,NA,NA,NA,"2007-07-10",29
"GLP003","OM","107001458",33,"WEIGHT","Weight",".526","g","0.526",0.526,"g",NA,NA,"THYMUS",NA,NA,NA,NA,NA,NA,NA,NA,"2007-07-10",29
"GLP003","OM","107001389",34,"WEIGHT","Weight","2.065","g","2.065",2.065,"g",NA,NA,"BRAIN",NA,NA,NA,NA,NA,NA,NA,NA,"2007-07-10",29
"GLP003","OM","107001389",35,"WEIGHT","Weight","1.155","g","1.155",1.155,"g",NA,NA,"HEART",NA,NA,NA,NA,NA,NA,NA,NA,"2007-07-10",29
"GLP003","OM","107001389",36,"WEIGHT","Weight","12.526","g","12.526",12.526,"g",NA,NA,"LIVER",NA,NA,NA,NA,NA,NA,NA,NA,"2007-07-10",29
"GLP003","OM","107001389",37,"WEIGHT","Weight","2.962","g","2.962",2.962,"g",NA,NA,"KIDNEY",NA,NA,NA,"BILATERAL",NA,NA,NA,NA,"2007-07-10",29
"GLP003","OM","107001389",38,"WEIGHT","Weight","3.27","g","3.27",3.27,"g",NA,NA,"TESTIS",NA,NA,NA,"BILATERAL",NA,NA,NA,NA,"2007-07-10",29
"GLP003","OM","107001389",39,"WEIGHT","Weight","2.437","g","2.437",2.437,"g",NA,NA,"GLAND, PROSTATE",NA,NA,NA,NA,NA,NA,NA,NA,"2007-07-10",29
"GLP003","OM","107001389",40,"WEIGHT","Weight",".009","g","0.009",0.009,"g",NA,NA,"GLAND, PITUITARY",NA,NA,NA,NA,NA,NA,NA,NA,"2007-07-10",29
"GLP003","OM","107001389",41,"WEIGHT","Weight",".029","g","0.029",0.029,"g",NA,NA,"GLAND, THYROID",NA,NA,NA,NA,NA,NA,NA,NA,"2007-07-10",29
"GLP003","OM","107001389",42,"WEIGHT","Weight",".06","g","0.06",0.06,"g",NA,NA,"GLAND, ADRENAL",NA,NA,NA,"BILATERAL",NA,NA,NA,NA,"2007-07-10",29
"GLP003","OM","107001389",43,"WEIGHT","Weight",".741","g","0.741",0.741,"g",NA,NA,"SPLEEN",NA,NA,NA,NA,NA,NA,NA,NA,"2007-07-10",29
"GLP003","OM","107001389",44,"WEIGHT","Weight",".642","g","0.642",0.642,"g",NA,NA,"THYMUS",NA,NA,NA,NA,NA,NA,NA,NA,"2007-07-10",29
"GLP003","OM","107001377",45,"WEIGHT","Weight","2.27","g","2.27",2.27,"g",NA,NA,"BRAIN",NA,NA,NA,NA,NA,NA,NA,NA,"2007-07-10",29
"GLP003","OM","107001377",46,"WEIGHT","Weight","1.329","g","1.329",1.329,"g",NA,NA,"HEART",NA,NA,NA,NA,NA,NA,NA,NA,"2007-07-10",29
"GLP003","OM","107001377",47,"WEIGHT","Weight","13.369","g","13.369",13.369,"g",NA,NA,"LIVER",NA,NA,NA,NA,NA,NA,NA,NA,"2007-07-10",29
"GLP003","OM","107001377",48,"WEIGHT","Weight","2.711","g","2.711",2.711,"g",NA,NA,"KIDNEY",NA,NA,NA,"BILATERAL",NA,NA,NA,NA,"2007-07-10",29
"GLP003","OM","107001377",49,"WEIGHT","Weight","2.984","g","2.984",2.984,"g",NA,NA,"TESTIS",NA,NA,NA,"BILATERAL",NA,NA,NA,NA,"2007-07-10",29
"GLP003","OM","107001377",50,"WEIGHT","Weight","1.987","g","1.987",1.987,"g",NA,NA,"GLAND, PROSTATE",NA,NA,NA,NA,NA,NA,NA,NA,"2007-07-10",29
"GLP003","OM","107001377",51,"WEIGHT","Weight",".004","g","0.004",0.004,"g",NA,NA,"GLAND, PITUITARY",NA,NA,NA,NA,NA,NA,NA,NA,"2007-07-10",29
"GLP003","OM","107001377",52,"WEIGHT","Weight",".022","g","0.022",0.022,"g",NA,NA,"GLAND, THYROID",NA,NA,NA,NA,NA,NA,NA,NA,"2007-07-10",29
"GLP003","OM","107001377",53,"WEIGHT","Weight",".05","g","0.05",0.05,"g",NA,NA,"GLAND, ADRENAL",NA,NA,NA,"BILATERAL",NA,NA,NA,NA,"2007-07-10",29
"GLP003","OM","107001377",54,"WEIGHT","Weight",".962","g","0.962",0.962,"g",NA,NA,"SPLEEN",NA,NA,NA,NA,NA,NA,NA,NA,"2007-07-10",29
"GLP003","OM","107001377",55,"WEIGHT","Weight",".701","g","0.701",0.701,"g",NA,NA,"THYMUS",NA,NA,NA,NA,NA,NA,NA,NA,"2007-07-10",29
"GLP003","OM","107001472",56,"WEIGHT","Weight","1.969","g","1.969",1.969,"g",NA,NA,"BRAIN",NA,NA,NA,NA,NA,NA,NA,NA,"2007-07-11",30
"GLP003","OM","107001472",57,"WEIGHT","Weight","1.034","g","1.034",1.034,"g",NA,NA,"HEART",NA,NA,NA,NA,NA,NA,NA,NA,"2007-07-11",30
"GLP003","OM","107001472",58,"WEIGHT","Weight","9.316","g","9.316",9.316,"g",NA,NA,"LIVER",NA,NA,NA,NA,NA,NA,NA,NA,"2007-07-11",30
"GLP003","OM","107001472",59,"WEIGHT","Weight","2.022","g","2.022",2.022,"g",NA,NA,"KIDNEY",NA,NA,NA,"BILATERAL",NA,NA,NA,NA,"2007-07-11",30
"GLP003","OM","107001472",60,"WEIGHT","Weight","3.589","g","3.589",3.589,"g",NA,NA,"TESTIS",NA,NA,NA,"BILATERAL",NA,NA,NA,NA,"2007-07-11",30
"GLP003","OM","107001472",61,"WEIGHT","Weight","2.531","g","2.531",2.531,"g",NA,NA,"GLAND, PROSTATE",NA,NA,NA,NA,NA,NA,NA,NA,"2007-07-11",30
"GLP003","OM","107001472",62,"WEIGHT","Weight",".007","g","0.007",0.007,"g",NA,NA,"GLAND, PITUITARY",NA,NA,NA,NA,NA,NA,NA,NA,"2007-07-11",30
"GLP003","OM","107001472",63,"WEIGHT","Weight",".025","g","0.025",0.025,"g",NA,NA,"GLAND, THYROID",NA,NA,NA,NA,NA,NA,NA,NA,"2007-07-11",30
"GLP003","OM","107001472",64,"WEIGHT","Weight",".052","g","0.052",0.052,"g",NA,NA,"GLAND, ADRENAL",NA,NA,NA,"BILATERAL",NA,NA,NA,NA,"2007-07-11",30
"GLP003","OM","107001472",65,"WEIGHT","Weight",".709","g","0.709",0.709,"g",NA,NA,"SPLEEN",NA,NA,NA,NA,NA,NA,NA,NA,"2007-07-11",30
"GLP003","OM","107001472",66,"WEIGHT","Weight",".463","g","0.463",0.463,"g",NA,NA,"THYMUS",NA,NA,NA,NA,NA,NA,NA,NA,"2007-07-11",30
"GLP003","OM","107001401",67,"WEIGHT","Weight","2.16","g","2.16",2.16,"g",NA,NA,"BRAIN",NA,NA,NA,NA,NA,NA,NA,NA,"2007-07-11",30
"GLP003","OM","107001401",68,"WEIGHT","Weight","1.21","g","1.21",1.21,"g",NA,NA,"HEART",NA,NA,NA,NA,NA,NA,NA,NA,"2007-07-11",30
"GLP003","OM","107001401",69,"WEIGHT","Weight","11.885","g","11.885",11.885,"g",NA,NA,"LIVER",NA,NA,NA,NA,NA,NA,NA,NA,"2007-07-11",30
"GLP003","OM","107001401",70,"WEIGHT","Weight","2.848","g","2.848",2.848,"g",NA,NA,"KIDNEY",NA,NA,NA,"BILATERAL",NA,NA,NA,NA,"2007-07-11",30
"GLP003","OM","107001401",71,"WEIGHT","Weight","3.266","g","3.266",3.266,"g",NA,NA,"TESTIS",NA,NA,NA,"BILATERAL",NA,NA,NA,NA,"2007-07-11",30
"GLP003","OM","107001401",72,"WEIGHT","Weight","3.342","g","3.342",3.342,"g",NA,NA,"GLAND, PROSTATE",NA,NA,NA,NA,NA,NA,NA,NA,"2007-07-11",30
"GLP003","OM","107001401",73,"WEIGHT","Weight",".013","g","0.013",0.013,"g",NA,NA,"GLAND, PITUITARY",NA,NA,NA,NA,NA,NA,NA,NA,"2007-07-11",30
"GLP003","OM","107001401",74,"WEIGHT","Weight",".025","g","0.025",0.025,"g",NA,NA,"GLAND, THYROID",NA,NA,NA,NA,NA,NA,NA,NA,"2007-07-11",30
"GLP003","OM","107001401",75,"WEIGHT","Weight",".062","g","0.062",0.062,"g",NA,NA,"GLAND, ADRENAL",NA,NA,NA,"BILATERAL",NA,NA,NA,NA,"2007-07-11",30
"GLP003","OM","107001401",76,"WEIGHT","Weight",".816","g","0.816",0.816,"g",NA,NA,"SPLEEN",NA,NA,NA,NA,NA,NA,NA,NA,"2007-07-11",30
"GLP003","OM","107001401",77,"WEIGHT","Weight",".443","g","0.443",0.443,"g",NA,NA,"THYMUS",NA,NA,NA,NA,NA,NA,NA,NA,"2007-07-11",30
"GLP003","OM","107001466",78,"WEIGHT","Weight","2.268","g","2.268",2.268,"g",NA,NA,"BRAIN",NA,NA,NA,NA,NA,NA,NA,NA,"2007-07-11",30
"GLP003","OM","107001466",79,"WEIGHT","Weight","1.404","g","1.404",1.404,"g",NA,NA,"HEART",NA,NA,NA,NA,NA,NA,NA,NA,"2007-07-11",30
"GLP003","OM","107001466",80,"WEIGHT","Weight","12.649","g","12.649",12.649,"g",NA,NA,"LIVER",NA,NA,NA,NA,NA,NA,NA,NA,"2007-07-11",30
"GLP003","OM","107001466",81,"WEIGHT","Weight","2.977","g","2.977",2.977,"g",NA,NA,"KIDNEY",NA,NA,NA,"BILATERAL",NA,NA,NA,NA,"2007-07-11",30
"GLP003","OM","107001466",82,"WEIGHT","Weight","3.516","g","3.516",3.516,"g",NA,NA,"TESTIS",NA,NA,NA,"BILATERAL",NA,NA,NA,NA,"2007-07-11",30
"GLP003","OM","107001466",83,"WEIGHT","Weight","2.347","g","2.347",2.347,"g",NA,NA,"GLAND, PROSTATE",NA,NA,NA,NA,NA,NA,NA,NA,"2007-07-11",30
"GLP003","OM","107001466",84,"WEIGHT","Weight",".009","g","0.009",0.009,"g",NA,NA,"GLAND, PITUITARY",NA,NA,NA,NA,NA,NA,NA,NA,"2007-07-11",30
"GLP003","OM","107001466",85,"WEIGHT","Weight",".025","g","0.025",0.025,"g",NA,NA,"GLAND, THYROID",NA,NA,NA,NA,NA,NA,NA,NA,"2007-07-11",30
"GLP003","OM","107001466",86,"WEIGHT","Weight",".061","g","0.061",0.061,"g",NA,NA,"GLAND, ADRENAL",NA,NA,NA,"BILATERAL",NA,NA,NA,NA,"2007-07-11",30
"GLP003","OM","107001466",87,"WEIGHT","Weight",".83","g","0.83",0.83,"g",NA,NA,"SPLEEN",NA,NA,NA,NA,NA,NA,NA,NA,"2007-07-11",30
"GLP003","OM","107001466",88,"WEIGHT","Weight",".493","g","0.493",0.493,"g",NA,NA,"THYMUS",NA,NA,NA,NA,NA,NA,NA,NA,"2007-07-11",30
"GLP003","OM","107001428",89,"WEIGHT","Weight","2.15","g","2.15",2.15,"g",NA,NA,"BRAIN",NA,NA,NA,NA,NA,NA,NA,NA,"2007-07-11",30
"GLP003","OM","107001428",90,"WEIGHT","Weight","1.456","g","1.456",1.456,"g",NA,NA,"HEART",NA,NA,NA,NA,NA,NA,NA,NA,"2007-07-11",30
"GLP003","OM","107001428",91,"WEIGHT","Weight","12.991","g","12.991",12.991,"g",NA,NA,"LIVER",NA,NA,NA,NA,NA,NA,NA,NA,"2007-07-11",30
"GLP003","OM","107001428",92,"WEIGHT","Weight","2.899","g","2.899",2.899,"g",NA,NA,"KIDNEY",NA,NA,NA,"BILATERAL",NA,NA,NA,NA,"2007-07-11",30
"GLP003","OM","107001428",93,"WEIGHT","Weight","3.59","g","3.59",3.59,"g",NA,NA,"TESTIS",NA,NA,NA,"BILATERAL",NA,NA,NA,NA,"2007-07-11",30
"GLP003","OM","107001428",94,"WEIGHT","Weight","2.924","g","2.924",2.924,"g",NA,NA,"GLAND, PROSTATE",NA,NA,NA,NA,NA,NA,NA,NA,"2007-07-11",30
"GLP003","OM","107001428",95,"WEIGHT","Weight",".005","g","0.005",0.005,"g",NA,NA,"GLAND, PITUITARY",NA,NA,NA,NA,NA,NA,NA,NA,"2007-07-11",30
"GLP003","OM","107001428",96,"WEIGHT","Weight",".032","g","0.032",0.032,"g",NA,NA,"GLAND, THYROID",NA,NA,NA,NA,NA,NA,NA,NA,"2007-07-11",30
"GLP003","OM","107001428",97,"WEIGHT","Weight",".061","g","0.061",0.061,"g",NA,NA,"GLAND, ADRENAL",NA,NA,NA,"BILATERAL",NA,NA,NA,NA,"2007-07-11",30
"GLP003","OM","107001428",98,"WEIGHT","Weight","1.025","g","1.025",1.025,"g",NA,NA,"SPLEEN",NA,NA,NA,NA,NA,NA,NA,NA,"2007-07-11",30
"GLP003","OM","107001428",99,"WEIGHT","Weight",".591","g","0.591",0.591,"g",NA,NA,"THYMUS",NA,NA,NA,NA,NA,NA,NA,NA,"2007-07-11",30
"GLP003","OM","107001483",100,"WEIGHT","Weight","2.02","g","2.02",2.02,"g",NA,NA,"BRAIN",NA,NA,NA,NA,NA,NA,NA,NA,"2007-07-11",30
"GLP003","OM","107001483",101,"WEIGHT","Weight","1.089","g","1.089",1.089,"g",NA,NA,"HEART",NA,NA,NA,NA,NA,NA,NA,NA,"2007-07-11",30
"GLP003","OM","107001483",102,"WEIGHT","Weight","9.429","g","9.429",9.429,"g",NA,NA,"LIVER",NA,NA,NA,NA,NA,NA,NA,NA,"2007-07-11",30
"GLP003","OM","107001483",103,"WEIGHT","Weight","2.479","g","2.479",2.479,"g",NA,NA,"KIDNEY",NA,NA,NA,"BILATERAL",NA,NA,NA,NA,"2007-07-11",30
"GLP003","OM","107001483",104,"WEIGHT","Weight","3.335","g","3.335",3.335,"g",NA,NA,"TESTIS",NA,NA,NA,"BILATERAL",NA,NA,NA,NA,"2007-07-11",30
"GLP003","OM","107001483",105,"WEIGHT","Weight","2.499","g","2.499",2.499,"g",NA,NA,"GLAND, PROSTATE",NA,NA,NA,NA,NA,NA,NA,NA,"2007-07-11",30
"GLP003","OM","107001483",106,"WEIGHT","Weight",".009","g","0.009",0.009,"g",NA,NA,"GLAND, PITUITARY",NA,NA,NA,NA,NA,NA,NA,NA,"2007-07-11",30
"GLP003","OM","107001483",107,"WEIGHT","Weight",".03","g","0.03",0.03,"g",NA,NA,"GLAND, THYROID",NA,NA,NA,NA,NA,NA,NA,NA,"2007-07-11",30
"GLP003","OM","107001483",108,"WEIGHT","Weight",".088","g","0.088",0.088,"g",NA,NA,"GLAND, ADRENAL",NA,NA,NA,"BILATERAL",NA,NA,NA,NA,"2007-07-11",30
"GLP003","OM","107001483",109,"WEIGHT","Weight",".697","g","0.697",0.697,"g",NA,NA,"SPLEEN",NA,NA,NA,NA,NA,NA,NA,NA,"2007-07-11",30
"GLP003","OM","107001483",110,"WEIGHT","Weight",".304","g","0.304",0.304,"g",NA,NA,"THYMUS",NA,NA,NA,NA,NA,NA,NA,NA,"2007-07-11",30
"GLP003","OM","107001397",111,"WEIGHT","Weight","2.219","g","2.219",2.219,"g",NA,NA,"BRAIN",NA,NA,NA,NA,NA,NA,NA,NA,"2007-07-24",43
"GLP003","OM","107001397",112,"WEIGHT","Weight","1.187","g","1.187",1.187,"g",NA,NA,"HEART",NA,NA,NA,NA,NA,NA,NA,NA,"2007-07-24",43
"GLP003","OM","107001397",113,"WEIGHT","Weight","11.176","g","11.176",11.176,"g",NA,NA,"LIVER",NA,NA,NA,NA,NA,NA,NA,NA,"2007-07-24",43
"GLP003","OM","107001397",114,"WEIGHT","Weight","2.277","g","2.277",2.277,"g",NA,NA,"KIDNEY",NA,NA,NA,"BILATERAL",NA,NA,NA,NA,"2007-07-24",43
"GLP003","OM","107001397",115,"WEIGHT","Weight","3.353","g","3.353",3.353,"g",NA,NA,"TESTIS",NA,NA,NA,"BILATERAL",NA,NA,NA,NA,"2007-07-24",43
"GLP003","OM","107001397",116,"WEIGHT","Weight","1.763","g","1.763",1.763,"g",NA,NA,"GLAND, PROSTATE",NA,NA,NA,NA,NA,NA,NA,NA,"2007-07-24",43
"GLP003","OM","107001397",117,"WEIGHT","Weight",".009","g","0.009",0.009,"g",NA,NA,"GLAND, PITUITARY",NA,NA,NA,NA,NA,NA,NA,NA,"2007-07-24",43
"GLP003","OM","107001397",118,"WEIGHT","Weight",".022","g","0.022",0.022,"g",NA,NA,"GLAND, THYROID",NA,NA,NA,NA,NA,NA,NA,NA,"2007-07-24",43
"GLP003","OM","107001397",119,"WEIGHT","Weight",".063","g","0.063",0.063,"g",NA,NA,"GLAND, ADRENAL",NA,NA,NA,"BILATERAL",NA,NA,NA,NA,"2007-07-24",43
"GLP003","OM","107001397",120,"WEIGHT","Weight",".722","g","0.722",0.722,"g",NA,NA,"SPLEEN",NA,NA,NA,NA,NA,NA,NA,NA,"2007-07-24",43
"GLP003","OM","107001397",121,"WEIGHT","Weight",".656","g","0.656",0.656,"g",NA,NA,"THYMUS",NA,NA,NA,NA,NA,NA,NA,NA,"2007-07-24",43
"GLP003","OM","107001467",122,"WEIGHT","Weight","2.007","g","2.007",2.007,"g",NA,NA,"BRAIN",NA,NA,NA,NA,NA,NA,NA,NA,"2007-07-24",43
"GLP003","OM","107001467",123,"WEIGHT","Weight","1.364","g","1.364",1.364,"g",NA,NA,"HEART",NA,NA,NA,NA,NA,NA,NA,NA,"2007-07-24",43
"GLP003","OM","107001467",124,"WEIGHT","Weight","12.898","g","12.898",12.898,"g",NA,NA,"LIVER",NA,NA,NA,NA,NA,NA,NA,NA,"2007-07-24",43
"GLP003","OM","107001467",125,"WEIGHT","Weight","2.894","g","2.894",2.894,"g",NA,NA,"KIDNEY",NA,NA,NA,"BILATERAL",NA,NA,NA,NA,"2007-07-24",43
"GLP003","OM","107001467",126,"WEIGHT","Weight","3.015","g","3.015",3.015,"g",NA,NA,"TESTIS",NA,NA,NA,"BILATERAL",NA,NA,NA,NA,"2007-07-24",43
"GLP003","OM","107001467",127,"WEIGHT","Weight","2.76","g","2.76",2.76,"g",NA,NA,"GLAND, PROSTATE",NA,NA,NA,NA,NA,NA,NA,NA,"2007-07-24",43
"GLP003","OM","107001467",128,"WEIGHT","Weight",".009","g","0.009",0.009,"g",NA,NA,"GLAND, PITUITARY",NA,NA,NA,NA,NA,NA,NA,NA,"2007-07-24",43
"GLP003","OM","107001467",129,"WEIGHT","Weight",".023","g","0.023",0.023,"g",NA,NA,"GLAND, THYROID",NA,NA,NA,NA,NA,NA,NA,NA,"2007-07-24",43
"GLP003","OM","107001467",130,"WEIGHT","Weight",".054","g","0.054",0.054,"g",NA,NA,"GLAND, ADRENAL",NA,NA,NA,"BILATERAL",NA,NA,NA,NA,"2007-07-24",43
"GLP003","OM","107001467",131,"WEIGHT","Weight",".696","g","0.696",0.696,"g",NA,NA,"SPLEEN",NA,NA,NA,NA,NA,NA,NA,NA,"2007-07-24",43
"GLP003","OM","107001467",132,"WEIGHT","Weight",".594","g","0.594",0.594,"g",NA,NA,"THYMUS",NA,NA,NA,NA,NA,NA,NA,NA,"2007-07-24",43
"GLP003","OM","107001387",133,"WEIGHT","Weight","2.118","g","2.118",2.118,"g",NA,NA,"BRAIN",NA,NA,NA,NA,NA,NA,NA,NA,"2007-07-24",43
"GLP003","OM","107001387",134,"WEIGHT","Weight","1.174","g","1.174",1.174,"g",NA,NA,"HEART",NA,NA,NA,NA,NA,NA,NA,NA,"2007-07-24",43
"GLP003","OM","107001387",135,"WEIGHT","Weight","12.344","g","12.344",12.344,"g",NA,NA,"LIVER",NA,NA,NA,NA,NA,NA,NA,NA,"2007-07-24",43
"GLP003","OM","107001387",136,"WEIGHT","Weight","2.68","g","2.68",2.68,"g",NA,NA,"KIDNEY",NA,NA,NA,"BILATERAL",NA,NA,NA,NA,"2007-07-24",43
"GLP003","OM","107001387",137,"WEIGHT","Weight","3.283","g","3.283",3.283,"g",NA,NA,"TESTIS",NA,NA,NA,"BILATERAL",NA,NA,NA,NA,"2007-07-24",43
"GLP003","OM","107001387",138,"WEIGHT","Weight","2.119","g","2.119",2.119,"g",NA,NA,"GLAND, PROSTATE",NA,NA,NA,NA,NA,NA,NA,NA,"2007-07-24",43
"GLP003","OM","107001387",139,"WEIGHT","Weight",".008","g","0.008",0.008,"g",NA,NA,"GLAND, PITUITARY",NA,NA,NA,NA,NA,NA,NA,NA,"2007-07-24",43
"GLP003","OM","107001387",140,"WEIGHT","Weight",".023","g","0.023",0.023,"g",NA,NA,"GLAND, THYROID",NA,NA,NA,NA,NA,NA,NA,NA,"2007-07-24",43
"GLP003","OM","107001387",141,"WEIGHT","Weight",".053","g","0.053",0.053,"g",NA,NA,"GLAND, ADRENAL",NA,NA,NA,"BILATERAL",NA,NA,NA,NA,"2007-07-24",43
"GLP003","OM","107001387",142,"WEIGHT","Weight",".765","g","0.765",0.765,"g",NA,NA,"SPLEEN",NA,NA,NA,NA,NA,NA,NA,NA,"2007-07-24",43
"GLP003","OM","107001387",143,"WEIGHT","Weight",".454","g","0.454",0.454,"g",NA,NA,"THYMUS",NA,NA,NA,NA,NA,NA,NA,NA,"2007-07-24",43
"GLP003","OM","107001384",144,"WEIGHT","Weight","2.195","g","2.195",2.195,"g",NA,NA,"BRAIN",NA,NA,NA,NA,NA,NA,NA,NA,"2007-07-24",43
"GLP003","OM","107001384",145,"WEIGHT","Weight","1.36","g","1.36",1.36,"g",NA,NA,"HEART",NA,NA,NA,NA,NA,NA,NA,NA,"2007-07-24",43
"GLP003","OM","107001384",146,"WEIGHT","Weight","11.325","g","11.325",11.325,"g",NA,NA,"LIVER",NA,NA,NA,NA,NA,NA,NA,NA,"2007-07-24",43
"GLP003","OM","107001384",147,"WEIGHT","Weight","2.725","g","2.725",2.725,"g",NA,NA,"KIDNEY",NA,NA,NA,"BILATERAL",NA,NA,NA,NA,"2007-07-24",43
"GLP003","OM","107001384",148,"WEIGHT","Weight","3.786","g","3.786",3.786,"g",NA,NA,"TESTIS",NA,NA,NA,"BILATERAL",NA,NA,NA,NA,"2007-07-24",43
"GLP003","OM","107001384",149,"WEIGHT","Weight","2.98","g","2.98",2.98,"g",NA,NA,"GLAND, PROSTATE",NA,NA,NA,NA,NA,NA,NA,NA,"2007-07-24",43
"GLP003","OM","107001384",150,"WEIGHT","Weight",".011","g","0.011",0.011,"g",NA,NA,"GLAND, PITUITARY",NA,NA,NA,NA,NA,NA,NA,NA,"2007-07-24",43
"GLP003","OM","107001384",151,"WEIGHT","Weight",".022","g","0.022",0.022,"g",NA,NA,"GLAND, THYROID",NA,NA,NA,NA,NA,NA,NA,NA,"2007-07-24",43
"GLP003","OM","107001384",152,"WEIGHT","Weight",".079","g","0.079",0.079,"g",NA,NA,"GLAND, ADRENAL",NA,NA,NA,"BILATERAL",NA,NA,NA,NA,"2007-07-24",43
"GLP003","OM","107001384",153,"WEIGHT","Weight",".925","g","0.925",0.925,"g",NA,NA,"SPLEEN",NA,NA,NA,NA,NA,NA,NA,NA,"2007-07-24",43
"GLP003","OM","107001384",154,"WEIGHT","Weight",".392","g","0.392",0.392,"g",NA,NA,"THYMUS",NA,NA,NA,NA,NA,NA,NA,NA,"2007-07-24",43
"GLP003","OM","107001423",155,"WEIGHT","Weight","2.058","g","2.058",2.058,"g",NA,NA,"BRAIN",NA,NA,NA,NA,NA,NA,NA,NA,"2007-07-24",43
"GLP003","OM","107001423",156,"WEIGHT","Weight","1.29","g","1.29",1.29,"g",NA,NA,"HEART",NA,NA,NA,NA,NA,NA,NA,NA,"2007-07-24",43
"GLP003","OM","107001423",157,"WEIGHT","Weight","12.125","g","12.125",12.125,"g",NA,NA,"LIVER",NA,NA,NA,NA,NA,NA,NA,NA,"2007-07-24",43
"GLP003","OM","107001423",158,"WEIGHT","Weight","2.469","g","2.469",2.469,"g",NA,NA,"KIDNEY",NA,NA,NA,"BILATERAL",NA,NA,NA,NA,"2007-07-24",43
"GLP003","OM","107001423",159,"WEIGHT","Weight","3.458","g","3.458",3.458,"g",NA,NA,"TESTIS",NA,NA,NA,"BILATERAL",NA,NA,NA,NA,"2007-07-24",43
"GLP003","OM","107001423",160,"WEIGHT","Weight","2.347","g","2.347",2.347,"g",NA,NA,"GLAND, PROSTATE",NA,NA,NA,NA,NA,NA,NA,NA,"2007-07-24",43
"GLP003","OM","107001423",161,"WEIGHT","Weight",".013","g","0.013",0.013,"g",NA,NA,"GLAND, PITUITARY",NA,NA,NA,NA,NA,NA,NA,NA,"2007-07-24",43
"GLP003","OM","107001423",162,"WEIGHT","Weight",".022","g","0.022",0.022,"g",NA,NA,"GLAND, THYROID",NA,NA,NA,NA,NA,NA,NA,NA,"2007-07-24",43
"GLP003","OM","107001423",163,"WEIGHT","Weight",".053","g","0.053",0.053,"g",NA,NA,"GLAND, ADRENAL",NA,NA,NA,"BILATERAL",NA,NA,NA,NA,"2007-07-24",43
"GLP003","OM","107001423",164,"WEIGHT","Weight",".782","g","0.782",0.782,"g",NA,NA,"SPLEEN",NA,NA,NA,NA,NA,NA,NA,NA,"2007-07-24",43
"GLP003","OM","107001423",165,"WEIGHT","Weight",".49","g","0.49",0.49,"g",NA,NA,"THYMUS",NA,NA,NA,NA,NA,NA,NA,NA,"2007-07-24",43
"GLP003","OM","107001529",166,"WEIGHT","Weight","1.968","g","1.968",1.968,"g",NA,NA,"BRAIN",NA,NA,NA,NA,NA,NA,NA,NA,"2007-07-12",29
"GLP003","OM","107001529",167,"WEIGHT","Weight",".783","g","0.783",0.783,"g",NA,NA,"HEART",NA,NA,NA,NA,NA,NA,NA,NA,"2007-07-12",29
"GLP003","OM","107001529",168,"WEIGHT","Weight","6.05","g","6.05",6.05,"g",NA,NA,"LIVER",NA,NA,NA,NA,NA,NA,NA,NA,"2007-07-12",29
"GLP003","OM","107001529",169,"WEIGHT","Weight","1.479","g","1.479",1.479,"g",NA,NA,"KIDNEY",NA,NA,NA,"BILATERAL",NA,NA,NA,NA,"2007-07-12",29
"GLP003","OM","107001529",170,"WEIGHT","Weight",".14","g","0.14",0.14,"g",NA,NA,"OVARY",NA,NA,NA,"BILATERAL",NA,NA,NA,NA,"2007-07-12",29
"GLP003","OM","107001529",171,"WEIGHT","Weight",".661","g","0.661",0.661,"g",NA,NA,"UTERUS",NA,NA,NA,NA,NA,NA,NA,NA,"2007-07-12",29
"GLP003","OM","107001529",172,"WEIGHT","Weight",".011","g","0.011",0.011,"g",NA,NA,"GLAND, PITUITARY",NA,NA,NA,NA,NA,NA,NA,NA,"2007-07-12",29
"GLP003","OM","107001529",173,"WEIGHT","Weight",".016","g","0.016",0.016,"g",NA,NA,"GLAND, THYROID",NA,NA,NA,NA,NA,NA,NA,NA,"2007-07-12",29
"GLP003","OM","107001529",174,"WEIGHT","Weight",".057","g","0.057",0.057,"g",NA,NA,"GLAND, ADRENAL",NA,NA,NA,"BILATERAL",NA,NA,NA,NA,"2007-07-12",29
"GLP003","OM","107001529",175,"WEIGHT","Weight",".462","g","0.462",0.462,"g",NA,NA,"SPLEEN",NA,NA,NA,NA,NA,NA,NA,NA,"2007-07-12",29
"GLP003","OM","107001529",176,"WEIGHT","Weight",".336","g","0.336",0.336,"g",NA,NA,"THYMUS",NA,NA,NA,NA,NA,NA,NA,NA,"2007-07-12",29
"GLP003","OM","107001528",177,"WEIGHT","Weight","1.951","g","1.951",1.951,"g",NA,NA,"BRAIN",NA,NA,NA,NA,NA,NA,NA,NA,"2007-07-12",29
"GLP003","OM","107001528",178,"WEIGHT","Weight",".877","g","0.877",0.877,"g",NA,NA,"HEART",NA,NA,NA,NA,NA,NA,NA,NA,"2007-07-12",29
"GLP003","OM","107001528",179,"WEIGHT","Weight","6.709","g","6.709",6.709,"g",NA,NA,"LIVER",NA,NA,NA,NA,NA,NA,NA,NA,"2007-07-12",29
"GLP003","OM","107001528",180,"WEIGHT","Weight","1.779","g","1.779",1.779,"g",NA,NA,"KIDNEY",NA,NA,NA,"BILATERAL",NA,NA,NA,NA,"2007-07-12",29
"GLP003","OM","107001528",181,"WEIGHT","Weight",".085","g","0.085",0.085,"g",NA,NA,"OVARY",NA,NA,NA,"BILATERAL",NA,NA,NA,NA,"2007-07-12",29
"GLP003","OM","107001528",182,"WEIGHT","Weight",".714","g","0.714",0.714,"g",NA,NA,"UTERUS",NA,NA,NA,NA,NA,NA,NA,NA,"2007-07-12",29
"GLP003","OM","107001528",183,"WEIGHT","Weight",".013","g","0.013",0.013,"g",NA,NA,"GLAND, PITUITARY",NA,NA,NA,NA,NA,NA,NA,NA,"2007-07-12",29
"GLP003","OM","107001528",184,"WEIGHT","Weight",".016","g","0.016",0.016,"g",NA,NA,"GLAND, THYROID",NA,NA,NA,NA,NA,NA,NA,NA,"2007-07-12",29
"GLP003","OM","107001528",185,"WEIGHT","Weight",".093","g","0.093",0.093,"g",NA,NA,"GLAND, ADRENAL",NA,NA,NA,"BILATERAL",NA,NA,NA,NA,"2007-07-12",29
"GLP003","OM","107001528",186,"WEIGHT","Weight",".473","g","0.473",0.473,"g",NA,NA,"SPLEEN",NA,NA,NA,NA,NA,NA,NA,NA,"2007-07-12",29
"GLP003","OM","107001528",187,"WEIGHT","Weight",".36","g","0.36",0.36,"g",NA,NA,"THYMUS",NA,NA,NA,NA,NA,NA,NA,NA,"2007-07-12",29
"GLP003","OM","107001576",188,"WEIGHT","Weight","1.831","g","1.831",1.831,"g",NA,NA,"BRAIN",NA,NA,NA,NA,NA,NA,NA,NA,"2007-07-12",29
"GLP003","OM","107001576",189,"WEIGHT","Weight",".988","g","0.988",0.988,"g",NA,NA,"HEART",NA,NA,NA,NA,NA,NA,NA,NA,"2007-07-12",29
"GLP003","OM","107001576",190,"WEIGHT","Weight","6.493","g","6.493",6.493,"g",NA,NA,"LIVER",NA,NA,NA,NA,NA,NA,NA,NA,"2007-07-12",29
"GLP003","OM","107001576",191,"WEIGHT","Weight","1.693","g","1.693",1.693,"g",NA,NA,"KIDNEY",NA,NA,NA,"BILATERAL",NA,NA,NA,NA,"2007-07-12",29
"GLP003","OM","107001576",192,"WEIGHT","Weight",".08","g","0.08",0.08,"g",NA,NA,"OVARY",NA,NA,NA,"BILATERAL",NA,NA,NA,NA,"2007-07-12",29
"GLP003","OM","107001576",193,"WEIGHT","Weight",".559","g","0.559",0.559,"g",NA,NA,"UTERUS",NA,NA,NA,NA,NA,NA,NA,NA,"2007-07-12",29
"GLP003","OM","107001576",194,"WEIGHT","Weight",".009","g","0.009",0.009,"g",NA,NA,"GLAND, PITUITARY",NA,NA,NA,NA,NA,NA,NA,NA,"2007-07-12",29
"GLP003","OM","107001576",195,"WEIGHT","Weight",".013","g","0.013",0.013,"g",NA,NA,"GLAND, THYROID",NA,NA,NA,NA,NA,NA,NA,NA,"2007-07-12",29
"GLP003","OM","107001576",196,"WEIGHT","Weight",".076","g","0.076",0.076,"g",NA,NA,"GLAND, ADRENAL",NA,NA,NA,"BILATERAL",NA,NA,NA,NA,"2007-07-12",29
"GLP003","OM","107001576",197,"WEIGHT","Weight",".444","g","0.444",0.444,"g",NA,NA,"SPLEEN",NA,NA,NA,NA,NA,NA,NA,NA,"2007-07-12",29
"GLP003","OM","107001576",198,"WEIGHT","Weight",".316","g","0.316",0.316,"g",NA,NA,"THYMUS",NA,NA,NA,NA,NA,NA,NA,NA,"2007-07-12",29
"GLP003","OM","107001616",199,"WEIGHT","Weight","1.906","g","1.906",1.906,"g",NA,NA,"BRAIN",NA,NA,NA,NA,NA,NA,NA,NA,"2007-07-12",29
"GLP003","OM","107001616",200,"WEIGHT","Weight",".922","g","0.922",0.922,"g",NA,NA,"HEART",NA,NA,NA,NA,NA,NA,NA,NA,"2007-07-12",29
"GLP003","OM","107001616",201,"WEIGHT","Weight","6.506","g","6.506",6.506,"g",NA,NA,"LIVER",NA,NA,NA,NA,NA,NA,NA,NA,"2007-07-12",29
"GLP003","OM","107001616",202,"WEIGHT","Weight","1.783","g","1.783",1.783,"g",NA,NA,"KIDNEY",NA,NA,NA,"BILATERAL",NA,NA,NA,NA,"2007-07-12",29
"GLP003","OM","107001616",203,"WEIGHT","Weight",".08","g","0.08",0.08,"g",NA,NA,"OVARY",NA,NA,NA,"BILATERAL",NA,NA,NA,NA,"2007-07-12",29
"GLP003","OM","107001616",204,"WEIGHT","Weight",".723","g","0.723",0.723,"g",NA,NA,"UTERUS",NA,NA,NA,NA,NA,NA,NA,NA,"2007-07-12",29
"GLP003","OM","107001616",205,"WEIGHT","Weight",".008","g","0.008",0.008,"g",NA,NA,"GLAND, PITUITARY",NA,NA,NA,NA,NA,NA,NA,NA,"2007-07-12",29
"GLP003","OM","107001616",206,"WEIGHT","Weight",".016","g","0.016",0.016,"g",NA,NA,"GLAND, THYROID",NA,NA,NA,NA,NA,NA,NA,NA,"2007-07-12",29
"GLP003","OM","107001616",207,"WEIGHT","Weight",".067","g","0.067",0.067,"g",NA,NA,"GLAND, ADRENAL",NA,NA,NA,"BILATERAL",NA,NA,NA,NA,"2007-07-12",29
"GLP003","OM","107001616",208,"WEIGHT","Weight",".619","g","0.619",0.619,"g",NA,NA,"SPLEEN",NA,NA,NA,NA,NA,NA,NA,NA,"2007-07-12",29
"GLP003","OM","107001616",209,"WEIGHT","Weight",".556","g","0.556",0.556,"g",NA,NA,"THYMUS",NA,NA,NA,NA,NA,NA,NA,NA,"2007-07-12",29
"GLP003","OM","107001500",210,"WEIGHT","Weight","1.78","g","1.78",1.78,"g",NA,NA,"BRAIN",NA,NA,NA,NA,NA,NA,NA,NA,"2007-07-12",29
"GLP003","OM","107001500",211,"WEIGHT","Weight",".764","g","0.764",0.764,"g",NA,NA,"HEART",NA,NA,NA,NA,NA,NA,NA,NA,"2007-07-12",29
"GLP003","OM","107001500",212,"WEIGHT","Weight","6.026","g","6.026",6.026,"g",NA,NA,"LIVER",NA,NA,NA,NA,NA,NA,NA,NA,"2007-07-12",29
"GLP003","OM","107001500",213,"WEIGHT","Weight","1.456","g","1.456",1.456,"g",NA,NA,"KIDNEY",NA,NA,NA,"BILATERAL",NA,NA,NA,NA,"2007-07-12",29
"GLP003","OM","107001500",214,"WEIGHT","Weight",".106","g","0.106",0.106,"g",NA,NA,"OVARY",NA,NA,NA,"BILATERAL",NA,NA,NA,NA,"2007-07-12",29
"GLP003","OM","107001500",215,"WEIGHT","Weight",".483","g","0.483",0.483,"g",NA,NA,"UTERUS",NA,NA,NA,NA,NA,NA,NA,NA,"2007-07-12",29
"GLP003","OM","107001500",216,"WEIGHT","Weight",".013","g","0.013",0.013,"g",NA,NA,"GLAND, PITUITARY",NA,NA,NA,NA,NA,NA,NA,NA,"2007-07-12",29
"GLP003","OM","107001500",217,"WEIGHT","Weight",".017","g","0.017",0.017,"g",NA,NA,"GLAND, THYROID",NA,NA,NA,NA,NA,NA,NA,NA,"2007-07-12",29
"GLP003","OM","107001500",218,"WEIGHT","Weight",".069","g","0.069",0.069,"g",NA,NA,"GLAND, ADRENAL",NA,NA,NA,"BILATERAL",NA,NA,NA,NA,"2007-07-12",29
"GLP003","OM","107001500",219,"WEIGHT","Weight",".421","g","0.421",0.421,"g",NA,NA,"SPLEEN",NA,NA,NA,NA,NA,NA,NA,NA,"2007-07-12",29
"GLP003","OM","107001500",220,"WEIGHT","Weight",".381","g","0.381",0.381,"g",NA,NA,"THYMUS",NA,NA,NA,NA,NA,NA,NA,NA,"2007-07-12",29
"GLP003","OM","107001535",221,"WEIGHT","Weight","1.978","g","1.978",1.978,"g",NA,NA,"BRAIN",NA,NA,NA,NA,NA,NA,NA,NA,"2007-07-13",30
"GLP003","OM","107001535",222,"WEIGHT","Weight","1.044","g","1.044",1.044,"g",NA,NA,"HEART",NA,NA,NA,NA,NA,NA,NA,NA,"2007-07-13",30
"GLP003","OM","107001535",223,"WEIGHT","Weight","7.138","g","7.138",7.138,"g",NA,NA,"LIVER",NA,NA,NA,NA,NA,NA,NA,NA,"2007-07-13",30
"GLP003","OM","107001535",224,"WEIGHT","Weight","1.869","g","1.869",1.869,"g",NA,NA,"KIDNEY",NA,NA,NA,"BILATERAL",NA,NA,NA,NA,"2007-07-13",30
"GLP003","OM","107001535",225,"WEIGHT","Weight",".176","g","0.176",0.176,"g",NA,NA,"OVARY",NA,NA,NA,"BILATERAL",NA,NA,NA,NA,"2007-07-13",30
"GLP003","OM","107001535",226,"WEIGHT","Weight","1.108","g","1.108",1.108,"g",NA,NA,"UTERUS",NA,NA,NA,NA,NA,NA,NA,NA,"2007-07-13",30
"GLP003","OM","107001535",227,"WEIGHT","Weight",".013","g","0.013",0.013,"g",NA,NA,"GLAND, PITUITARY",NA,NA,NA,NA,NA,NA,NA,NA,"2007-07-13",30
"GLP003","OM","107001535",228,"WEIGHT","Weight",".022","g","0.022",0.022,"g",NA,NA,"GLAND, THYROID",NA,NA,NA,NA,NA,NA,NA,NA,"2007-07-13",30
"GLP003","OM","107001535",229,"WEIGHT","Weight",".068","g","0.068",0.068,"g",NA,NA,"GLAND, ADRENAL",NA,NA,NA,"BILATERAL",NA,NA,NA,NA,"2007-07-13",30
"GLP003","OM","107001535",230,"WEIGHT","Weight",".532","g","0.532",0.532,"g",NA,NA,"SPLEEN",NA,NA,NA,NA,NA,NA,NA,NA,"2007-07-13",30
"GLP003","OM","107001535",231,"WEIGHT","Weight",".724","g","0.724",0.724,"g",NA,NA,"THYMUS",NA,NA,NA,NA,NA,NA,NA,NA,"2007-07-13",30
"GLP003","OM","107001647",232,"WEIGHT","Weight","1.834","g","1.834",1.834,"g",NA,NA,"BRAIN",NA,NA,NA,NA,NA,NA,NA,NA,"2007-07-13",30
"GLP003","OM","107001647",233,"WEIGHT","Weight",".996","g","0.996",0.996,"g",NA,NA,"HEART",NA,NA,NA,NA,NA,NA,NA,NA,"2007-07-13",30
"GLP003","OM","107001647",234,"WEIGHT","Weight","7.05","g","7.05",7.05,"g",NA,NA,"LIVER",NA,NA,NA,NA,NA,NA,NA,NA,"2007-07-13",30
"GLP003","OM","107001647",235,"WEIGHT","Weight","1.661","g","1.661",1.661,"g",NA,NA,"KIDNEY",NA,NA,NA,"BILATERAL",NA,NA,NA,NA,"2007-07-13",30
"GLP003","OM","107001647",236,"WEIGHT","Weight",".047","g","0.047",0.047,"g",NA,NA,"OVARY",NA,NA,NA,"BILATERAL",NA,NA,NA,NA,"2007-07-13",30
"GLP003","OM","107001647",237,"WEIGHT","Weight",".587","g","0.587",0.587,"g",NA,NA,"UTERUS",NA,NA,NA,NA,NA,NA,NA,NA,"2007-07-13",30
"GLP003","OM","107001647",238,"WEIGHT","Weight",".012","g","0.012",0.012,"g",NA,NA,"GLAND, PITUITARY",NA,NA,NA,NA,NA,NA,NA,NA,"2007-07-13",30
"GLP003","OM","107001647",239,"WEIGHT","Weight",".013","g","0.013",0.013,"g",NA,NA,"GLAND, THYROID",NA,NA,NA,NA,NA,NA,NA,NA,"2007-07-13",30
"GLP003","OM","107001647",240,"WEIGHT","Weight",".055","g","0.055",0.055,"g",NA,NA,"GLAND, ADRENAL",NA,NA,NA,"BILATERAL",NA,NA,NA,NA,"2007-07-13",30
"GLP003","OM","107001647",241,"WEIGHT","Weight",".387","g","0.387",0.387,"g",NA,NA,"SPLEEN",NA,NA,NA,NA,NA,NA,NA,NA,"2007-07-13",30
"GLP003","OM","107001647",242,"WEIGHT","Weight",".38","g","0.38",0.38,"g",NA,NA,"THYMUS",NA,NA,NA,NA,NA,NA,NA,NA,"2007-07-13",30
"GLP003","OM","107001592",243,"WEIGHT","Weight","1.942","g","1.942",1.942,"g",NA,NA,"BRAIN",NA,NA,NA,NA,NA,NA,NA,NA,"2007-07-13",30
"GLP003","OM","107001592",244,"WEIGHT","Weight",".801","g","0.801",0.801,"g",NA,NA,"HEART",NA,NA,NA,NA,NA,NA,NA,NA,"2007-07-13",30
"GLP003","OM","107001592",245,"WEIGHT","Weight","6.346","g","6.346",6.346,"g",NA,NA,"LIVER",NA,NA,NA,NA,NA,NA,NA,NA,"2007-07-13",30
"GLP003","OM","107001592",246,"WEIGHT","Weight","1.574","g","1.574",1.574,"g",NA,NA,"KIDNEY",NA,NA,NA,"BILATERAL",NA,NA,NA,NA,"2007-07-13",30
"GLP003","OM","107001592",247,"WEIGHT","Weight",".123","g","0.123",0.123,"g",NA,NA,"OVARY",NA,NA,NA,"BILATERAL",NA,NA,NA,NA,"2007-07-13",30
"GLP003","OM","107001592",248,"WEIGHT","Weight",".488","g","0.488",0.488,"g",NA,NA,"UTERUS",NA,NA,NA,NA,NA,NA,NA,NA,"2007-07-13",30
"GLP003","OM","107001592",249,"WEIGHT","Weight",".013","g","0.013",0.013,"g",NA,NA,"GLAND, PITUITARY",NA,NA,NA,NA,NA,NA,NA,NA,"2007-07-13",30
"GLP003","OM","107001592",250,"WEIGHT","Weight",".017","g","0.017",0.017,"g",NA,NA,"GLAND, THYROID",NA,NA,NA,NA,NA,NA,NA,NA,"2007-07-13",30
"GLP003","OM","107001592",251,"WEIGHT","Weight",".058","g","0.058",0.058,"g",NA,NA,"GLAND, ADRENAL",NA,NA,NA,"BILATERAL",NA,NA,NA,NA,"2007-07-13",30
"GLP003","OM","107001592",252,"WEIGHT","Weight",".457","g","0.457",0.457,"g",NA,NA,"SPLEEN",NA,NA,NA,NA,NA,NA,NA,NA,"2007-07-13",30
"GLP003","OM","107001592",253,"WEIGHT","Weight",".415","g","0.415",0.415,"g",NA,NA,"THYMUS",NA,NA,NA,NA,NA,NA,NA,NA,"2007-07-13",30
"GLP003","OM","107001569",254,"WEIGHT","Weight","1.982","g","1.982",1.982,"g",NA,NA,"BRAIN",NA,NA,NA,NA,NA,NA,NA,NA,"2007-07-13",30
"GLP003","OM","107001569",255,"WEIGHT","Weight",".944","g","0.944",0.944,"g",NA,NA,"HEART",NA,NA,NA,NA,NA,NA,NA,NA,"2007-07-13",30
"GLP003","OM","107001569",256,"WEIGHT","Weight","6.528","g","6.528",6.528,"g",NA,NA,"LIVER",NA,NA,NA,NA,NA,NA,NA,NA,"2007-07-13",30
"GLP003","OM","107001569",257,"WEIGHT","Weight","1.814","g","1.814",1.814,"g",NA,NA,"KIDNEY",NA,NA,NA,"BILATERAL",NA,NA,NA,NA,"2007-07-13",30
"GLP003","OM","107001569",258,"WEIGHT","Weight",".191","g","0.191",0.191,"g",NA,NA,"OVARY",NA,NA,NA,"BILATERAL",NA,NA,NA,NA,"2007-07-13",30
"GLP003","OM","107001569",259,"WEIGHT","Weight","1.143","g","1.143",1.143,"g",NA,NA,"UTERUS",NA,NA,NA,NA,NA,NA,NA,NA,"2007-07-13",30
"GLP003","OM","107001569",260,"WEIGHT","Weight",".016","g","0.016",0.016,"g",NA,NA,"GLAND, PITUITARY",NA,NA,NA,NA,NA,NA,NA,NA,"2007-07-13",30
"GLP003","OM","107001569",261,"WEIGHT","Weight",".031","g","0.031",0.031,"g",NA,NA,"GLAND, THYROID",NA,NA,NA,NA,NA,NA,NA,NA,"2007-07-13",30
"GLP003","OM","107001569",262,"WEIGHT","Weight",".082","g","0.082",0.082,"g",NA,NA,"GLAND, ADRENAL",NA,NA,NA,"BILATERAL",NA,NA,NA,NA,"2007-07-13",30
"GLP003","OM","107001569",263,"WEIGHT","Weight",".607","g","0.607",0.607,"g",NA,NA,"SPLEEN",NA,NA,NA,NA,NA,NA,NA,NA,"2007-07-13",30
"GLP003","OM","107001569",264,"WEIGHT","Weight",".476","g","0.476",0.476,"g",NA,NA,"THYMUS",NA,NA,NA,NA,NA,NA,NA,NA,"2007-07-13",30
"GLP003","OM","107001537",265,"WEIGHT","Weight","1.986","g","1.986",1.986,"g",NA,NA,"BRAIN",NA,NA,NA,NA,NA,NA,NA,NA,"2007-07-13",30
"GLP003","OM","107001537",266,"WEIGHT","Weight",".833","g","0.833",0.833,"g",NA,NA,"HEART",NA,NA,NA,NA,NA,NA,NA,NA,"2007-07-13",30
"GLP003","OM","107001537",267,"WEIGHT","Weight","6.811","g","6.811",6.811,"g",NA,NA,"LIVER",NA,NA,NA,NA,NA,NA,NA,NA,"2007-07-13",30
"GLP003","OM","107001537",268,"WEIGHT","Weight","1.667","g","1.667",1.667,"g",NA,NA,"KIDNEY",NA,NA,NA,"BILATERAL",NA,NA,NA,NA,"2007-07-13",30
"GLP003","OM","107001537",269,"WEIGHT","Weight",".114","g","0.114",0.114,"g",NA,NA,"OVARY",NA,NA,NA,"BILATERAL",NA,NA,NA,NA,"2007-07-13",30
"GLP003","OM","107001537",270,"WEIGHT","Weight",".612","g","0.612",0.612,"g",NA,NA,"UTERUS",NA,NA,NA,NA,NA,NA,NA,NA,"2007-07-13",30
"GLP003","OM","107001537",271,"WEIGHT","Weight",".014","g","0.014",0.014,"g",NA,NA,"GLAND, PITUITARY",NA,NA,NA,NA,NA,NA,NA,NA,"2007-07-13",30
"GLP003","OM","107001537",272,"WEIGHT","Weight",".021","g","0.021",0.021,"g",NA,NA,"GLAND, THYROID",NA,NA,NA,NA,NA,NA,NA,NA,"2007-07-13",30
"GLP003","OM","107001537",273,"WEIGHT","Weight",".067","g","0.067",0.067,"g",NA,NA,"GLAND, ADRENAL",NA,NA,NA,"BILATERAL",NA,NA,NA,NA,"2007-07-13",30
"GLP003","OM","107001537",274,"WEIGHT","Weight",".506","g","0.506",0.506,"g",NA,NA,"SPLEEN",NA,NA,NA,NA,NA,NA,NA,NA,"2007-07-13",30
"GLP003","OM","107001537",275,"WEIGHT","Weight",".354","g","0.354",0.354,"g",NA,NA,"THYMUS",NA,NA,NA,NA,NA,NA,NA,NA,"2007-07-13",30
"GLP003","OM","107001594",276,"WEIGHT","Weight","1.877","g","1.877",1.877,"g",NA,NA,"BRAIN",NA,NA,NA,NA,NA,NA,NA,NA,"2007-07-26",43
"GLP003","OM","107001594",277,"WEIGHT","Weight",".894","g","0.894",0.894,"g",NA,NA,"HEART",NA,NA,NA,NA,NA,NA,NA,NA,"2007-07-26",43
"GLP003","OM","107001594",278,"WEIGHT","Weight","6.269","g","6.269",6.269,"g",NA,NA,"LIVER",NA,NA,NA,NA,NA,NA,NA,NA,"2007-07-26",43
"GLP003","OM","107001594",279,"WEIGHT","Weight","1.529","g","1.529",1.529,"g",NA,NA,"KIDNEY",NA,NA,NA,"BILATERAL",NA,NA,NA,NA,"2007-07-26",43
"GLP003","OM","107001594",280,"WEIGHT","Weight",".144","g","0.144",0.144,"g",NA,NA,"OVARY",NA,NA,NA,"BILATERAL",NA,NA,NA,NA,"2007-07-26",43
"GLP003","OM","107001594",281,"WEIGHT","Weight",".743","g","0.743",0.743,"g",NA,NA,"UTERUS",NA,NA,NA,NA,NA,NA,NA,NA,"2007-07-26",43
"GLP003","OM","107001594",282,"WEIGHT","Weight",".012","g","0.012",0.012,"g",NA,NA,"GLAND, PITUITARY",NA,NA,NA,NA,NA,NA,NA,NA,"2007-07-26",43
"GLP003","OM","107001594",283,"WEIGHT","Weight",".019","g","0.019",0.019,"g",NA,NA,"GLAND, THYROID",NA,NA,NA,NA,NA,NA,NA,NA,"2007-07-26",43
"GLP003","OM","107001594",284,"WEIGHT","Weight",".081","g","0.081",0.081,"g",NA,NA,"GLAND, ADRENAL",NA,NA,NA,"BILATERAL",NA,NA,NA,NA,"2007-07-26",43
"GLP003","OM","107001594",285,"WEIGHT","Weight",".525","g","0.525",0.525,"g",NA,NA,"SPLEEN",NA,NA,NA,NA,NA,NA,NA,NA,"2007-07-26",43
"GLP003","OM","107001594",286,"WEIGHT","Weight",".314","g","0.314",0.314,"g",NA,NA,"THYMUS",NA,NA,NA,NA,NA,NA,NA,NA,"2007-07-26",43
"GLP003","OM","107001619",287,"WEIGHT","Weight","1.894","g","1.894",1.894,"g",NA,NA,"BRAIN",NA,NA,NA,NA,NA,NA,NA,NA,"2007-07-26",43
"GLP003","OM","107001619",288,"WEIGHT","Weight",".902","g","0.902",0.902,"g",NA,NA,"HEART",NA,NA,NA,NA,NA,NA,NA,NA,"2007-07-26",43
"GLP003","OM","107001619",289,"WEIGHT","Weight","7.028","g","7.028",7.028,"g",NA,NA,"LIVER",NA,NA,NA,NA,NA,NA,NA,NA,"2007-07-26",43
"GLP003","OM","107001619",290,"WEIGHT","Weight","1.73","g","1.73",1.73,"g",NA,NA,"KIDNEY",NA,NA,NA,"BILATERAL",NA,NA,NA,NA,"2007-07-26",43
"GLP003","OM","107001619",291,"WEIGHT","Weight",".098","g","0.098",0.098,"g",NA,NA,"OVARY",NA,NA,NA,"BILATERAL",NA,NA,NA,NA,"2007-07-26",43
"GLP003","OM","107001619",292,"WEIGHT","Weight",".843","g","0.843",0.843,"g",NA,NA,"UTERUS",NA,NA,NA,NA,NA,NA,NA,NA,"2007-07-26",43
"GLP003","OM","107001619",293,"WEIGHT","Weight",".009","g","0.009",0.009,"g",NA,NA,"GLAND, PITUITARY",NA,NA,NA,NA,NA,NA,NA,NA,"2007-07-26",43
"GLP003","OM","107001619",294,"WEIGHT","Weight",".019","g","0.019",0.019,"g",NA,NA,"GLAND, THYROID",NA,NA,NA,NA,NA,NA,NA,NA,"2007-07-26",43
"GLP003","OM","107001619",295,"WEIGHT","Weight",".065","g","0.065",0.065,"g",NA,NA,"GLAND, ADRENAL",NA,NA,NA,"BILATERAL",NA,NA,NA,NA,"2007-07-26",43
"GLP003","OM","107001619",296,"WEIGHT","Weight",".652","g","0.652",0.652,"g",NA,NA,"SPLEEN",NA,NA,NA,NA,NA,NA,NA,NA,"2007-07-26",43
"GLP003","OM","107001619",297,"WEIGHT","Weight",".549","g","0.549",0.549,"g",NA,NA,"THYMUS",NA,NA,NA,NA,NA,NA,NA,NA,"2007-07-26",43
"GLP003","OM","107001518",298,"WEIGHT","Weight","2.162","g","2.162",2.162,"g",NA,NA,"BRAIN",NA,NA,NA,NA,NA,NA,NA,NA,"2007-07-26",43
"GLP003","OM","107001518",299,"WEIGHT","Weight","1.017","g","1.017",1.017,"g",NA,NA,"HEART",NA,NA,NA,NA,NA,NA,NA,NA,"2007-07-26",43
"GLP003","OM","107001518",300,"WEIGHT","Weight","7.577","g","7.577",7.577,"g",NA,NA,"LIVER",NA,NA,NA,NA,NA,NA,NA,NA,"2007-07-26",43
"GLP003","OM","107001518",301,"WEIGHT","Weight","1.739","g","1.739",1.739,"g",NA,NA,"KIDNEY",NA,NA,NA,"BILATERAL",NA,NA,NA,NA,"2007-07-26",43
"GLP003","OM","107001518",302,"WEIGHT","Weight",".124","g","0.124",0.124,"g",NA,NA,"OVARY",NA,NA,NA,"BILATERAL",NA,NA,NA,NA,"2007-07-26",43
"GLP003","OM","107001518",303,"WEIGHT","Weight",".843","g","0.843",0.843,"g",NA,NA,"UTERUS",NA,NA,NA,NA,NA,NA,NA,NA,"2007-07-26",43
"GLP003","OM","107001518",304,"WEIGHT","Weight",".016","g","0.016",0.016,"g",NA,NA,"GLAND, PITUITARY",NA,NA,NA,NA,NA,NA,NA,NA,"2007-07-26",43
"GLP003","OM","107001518",305,"WEIGHT","Weight",".016","g","0.016",0.016,"g",NA,NA,"GLAND, THYROID",NA,NA,NA,NA,NA,NA,NA,NA,"2007-07-26",43
"GLP003","OM","107001518",306,"WEIGHT","Weight",".075","g","0.075",0.075,"g",NA,NA,"GLAND, ADRENAL",NA,NA,NA,"BILATERAL",NA,NA,NA,NA,"2007-07-26",43
"GLP003","OM","107001518",307,"WEIGHT","Weight",".5","g","0.5",0.5,"g",NA,NA,"SPLEEN",NA,NA,NA,NA,NA,NA,NA,NA,"2007-07-26",43
"GLP003","OM","107001518",308,"WEIGHT","Weight",".4","g","0.4",0.4,"g",NA,NA,"THYMUS",NA,NA,NA,NA,NA,NA,NA,NA,"2007-07-26",43
"GLP003","OM","107001538",309,"WEIGHT","Weight","1.752","g","1.752",1.752,"g",NA,NA,"BRAIN",NA,NA,NA,NA,NA,NA,NA,NA,"2007-07-26",43
"GLP003","OM","107001538",310,"WEIGHT","Weight",".947","g","0.947",0.947,"g",NA,NA,"HEART",NA,NA,NA,NA,NA,NA,NA,NA,"2007-07-26",43
"GLP003","OM","107001538",311,"WEIGHT","Weight","7.446","g","7.446",7.446,"g",NA,NA,"LIVER",NA,NA,NA,NA,NA,NA,NA,NA,"2007-07-26",43
"GLP003","OM","107001538",312,"WEIGHT","Weight","1.491","g","1.491",1.491,"g",NA,NA,"KIDNEY",NA,NA,NA,"BILATERAL",NA,NA,NA,NA,"2007-07-26",43
"GLP003","OM","107001538",313,"WEIGHT","Weight",".07","g","0.07",0.07,"g",NA,NA,"OVARY",NA,NA,NA,"BILATERAL",NA,NA,NA,NA,"2007-07-26",43
"GLP003","OM","107001538",314,"WEIGHT","Weight",".673","g","0.673",0.673,"g",NA,NA,"UTERUS",NA,NA,NA,NA,NA,NA,NA,NA,"2007-07-26",43
"GLP003","OM","107001538",315,"WEIGHT","Weight",".029","g","0.029",0.029,"g",NA,NA,"GLAND, PITUITARY",NA,NA,NA,NA,NA,NA,NA,NA,"2007-07-26",43
"GLP003","OM","107001538",316,"WEIGHT","Weight",".013","g","0.013",0.013,"g",NA,NA,"GLAND, THYROID",NA,NA,NA,NA,NA,NA,NA,NA,"2007-07-26",43
"GLP003","OM","107001538",317,"WEIGHT","Weight",".057","g","0.057",0.057,"g",NA,NA,"GLAND, ADRENAL",NA,NA,NA,"BILATERAL",NA,NA,NA,NA,"2007-07-26",43
"GLP003","OM","107001538",318,"WEIGHT","Weight",".463","g","0.463",0.463,"g",NA,NA,"SPLEEN",NA,NA,NA,NA,NA,NA,NA,NA,"2007-07-26",43
"GLP003","OM","107001538",319,"WEIGHT","Weight",".496","g","0.496",0.496,"g",NA,NA,"THYMUS",NA,NA,NA,NA,NA,NA,NA,NA,"2007-07-26",43
"GLP003","OM","107001581",320,"WEIGHT","Weight","1.929","g","1.929",1.929,"g",NA,NA,"BRAIN",NA,NA,NA,NA,NA,NA,NA,NA,"2007-07-26",43
"GLP003","OM","107001581",321,"WEIGHT","Weight",".935","g","0.935",0.935,"g",NA,NA,"HEART",NA,NA,NA,NA,NA,NA,NA,NA,"2007-07-26",43
"GLP003","OM","107001581",322,"WEIGHT","Weight","7.453","g","7.453",7.453,"g",NA,NA,"LIVER",NA,NA,NA,NA,NA,NA,NA,NA,"2007-07-26",43
"GLP003","OM","107001581",323,"WEIGHT","Weight","1.884","g","1.884",1.884,"g",NA,NA,"KIDNEY",NA,NA,NA,"BILATERAL",NA,NA,NA,NA,"2007-07-26",43
"GLP003","OM","107001581",324,"WEIGHT","Weight",".132","g","0.132",0.132,"g",NA,NA,"OVARY",NA,NA,NA,"BILATERAL",NA,NA,NA,NA,"2007-07-26",43
"GLP003","OM","107001581",325,"WEIGHT","Weight",".528","g","0.528",0.528,"g",NA,NA,"UTERUS",NA,NA,NA,NA,NA,NA,NA,NA,"2007-07-26",43
"GLP003","OM","107001581",326,"WEIGHT","Weight",".016","g","0.016",0.016,"g",NA,NA,"GLAND, PITUITARY",NA,NA,NA,NA,NA,NA,NA,NA,"2007-07-26",43
"GLP003","OM","107001581",327,"WEIGHT","Weight",".02","g","0.02",0.02,"g",NA,NA,"GLAND, THYROID",NA,NA,NA,NA,NA,NA,NA,NA,"2007-07-26",43
"GLP003","OM","107001581",328,"WEIGHT","Weight",".067","g","0.067",0.067,"g",NA,NA,"GLAND, ADRENAL",NA,NA,NA,"BILATERAL",NA,NA,NA,NA,"2007-07-26",43
"GLP003","OM","107001581",329,"WEIGHT","Weight",".576","g","0.576",0.576,"g",NA,NA,"SPLEEN",NA,NA,NA,NA,NA,NA,NA,NA,"2007-07-26",43
"GLP003","OM","107001581",330,"WEIGHT","Weight",".373","g","0.373",0.373,"g",NA,NA,"THYMUS",NA,NA,NA,NA,NA,NA,NA,NA,"2007-07-26",43
"GLP003","OM","107001469",331,"WEIGHT","Weight","2.106","g","2.106",2.106,"g",NA,NA,"BRAIN",NA,NA,NA,NA,NA,NA,NA,NA,"2007-07-10",29
"GLP003","OM","107001469",332,"WEIGHT","Weight","1.187","g","1.187",1.187,"g",NA,NA,"HEART",NA,NA,NA,NA,NA,NA,NA,NA,"2007-07-10",29
"GLP003","OM","107001469",333,"WEIGHT","Weight","11.339","g","11.339",11.339,"g",NA,NA,"LIVER",NA,NA,NA,NA,NA,NA,NA,NA,"2007-07-10",29
"GLP003","OM","107001469",334,"WEIGHT","Weight","2.677","g","2.677",2.677,"g",NA,NA,"KIDNEY",NA,NA,NA,"BILATERAL",NA,NA,NA,NA,"2007-07-10",29
"GLP003","OM","107001469",335,"WEIGHT","Weight","2.983","g","2.983",2.983,"g",NA,NA,"TESTIS",NA,NA,NA,"BILATERAL",NA,NA,NA,NA,"2007-07-10",29
"GLP003","OM","107001469",336,"WEIGHT","Weight","2.496","g","2.496",2.496,"g",NA,NA,"GLAND, PROSTATE",NA,NA,NA,NA,NA,NA,NA,NA,"2007-07-10",29
"GLP003","OM","107001469",337,"WEIGHT","Weight",".012","g","0.012",0.012,"g",NA,NA,"GLAND, PITUITARY",NA,NA,NA,NA,NA,NA,NA,NA,"2007-07-10",29
"GLP003","OM","107001469",338,"WEIGHT","Weight",".027","g","0.027",0.027,"g",NA,NA,"GLAND, THYROID",NA,NA,NA,NA,NA,NA,NA,NA,"2007-07-10",29
"GLP003","OM","107001469",339,"WEIGHT","Weight",".07","g","0.07",0.07,"g",NA,NA,"GLAND, ADRENAL",NA,NA,NA,"BILATERAL",NA,NA,NA,NA,"2007-07-10",29
"GLP003","OM","107001469",340,"WEIGHT","Weight",".731","g","0.731",0.731,"g",NA,NA,"SPLEEN",NA,NA,NA,NA,NA,NA,NA,NA,"2007-07-10",29
"GLP003","OM","107001469",341,"WEIGHT","Weight",".383","g","0.383",0.383,"g",NA,NA,"THYMUS",NA,NA,NA,NA,NA,NA,NA,NA,"2007-07-10",29
"GLP003","OM","107001425",342,"WEIGHT","Weight","1.94","g","1.94",1.94,"g",NA,NA,"BRAIN",NA,NA,NA,NA,NA,NA,NA,NA,"2007-07-10",29
"GLP003","OM","107001425",343,"WEIGHT","Weight","1.234","g","1.234",1.234,"g",NA,NA,"HEART",NA,NA,NA,NA,NA,NA,NA,NA,"2007-07-10",29
"GLP003","OM","107001425",344,"WEIGHT","Weight","9.447","g","9.447",9.447,"g",NA,NA,"LIVER",NA,NA,NA,NA,NA,NA,NA,NA,"2007-07-10",29
"GLP003","OM","107001425",345,"WEIGHT","Weight","2.169","g","2.169",2.169,"g",NA,NA,"KIDNEY",NA,NA,NA,"BILATERAL",NA,NA,NA,NA,"2007-07-10",29
"GLP003","OM","107001425",346,"WEIGHT","Weight","2.701","g","2.701",2.701,"g",NA,NA,"TESTIS",NA,NA,NA,"BILATERAL",NA,NA,NA,NA,"2007-07-10",29
"GLP003","OM","107001425",347,"WEIGHT","Weight","2.422","g","2.422",2.422,"g",NA,NA,"GLAND, PROSTATE",NA,NA,NA,NA,NA,NA,NA,NA,"2007-07-10",29
"GLP003","OM","107001425",348,"WEIGHT","Weight",".009","g","0.009",0.009,"g",NA,NA,"GLAND, PITUITARY",NA,NA,NA,NA,NA,NA,NA,NA,"2007-07-10",29
"GLP003","OM","107001425",349,"WEIGHT","Weight",".027","g","0.027",0.027,"g",NA,NA,"GLAND, THYROID",NA,NA,NA,NA,NA,NA,NA,NA,"2007-07-10",29
"GLP003","OM","107001425",350,"WEIGHT","Weight",".082","g","0.082",0.082,"g",NA,NA,"GLAND, ADRENAL",NA,NA,NA,"BILATERAL",NA,NA,NA,NA,"2007-07-10",29
"GLP003","OM","107001425",351,"WEIGHT","Weight",".746","g","0.746",0.746,"g",NA,NA,"SPLEEN",NA,NA,NA,NA,NA,NA,NA,NA,"2007-07-10",29
"GLP003","OM","107001425",352,"WEIGHT","Weight",".574","g","0.574",0.574,"g",NA,NA,"THYMUS",NA,NA,NA,NA,NA,NA,NA,NA,"2007-07-10",29
"GLP003","OM","107001440",353,"WEIGHT","Weight","2.373","g","2.373",2.373,"g",NA,NA,"BRAIN",NA,NA,NA,NA,NA,NA,NA,NA,"2007-07-10",29
"GLP003","OM","107001440",354,"WEIGHT","Weight","1.351","g","1.351",1.351,"g",NA,NA,"HEART",NA,NA,NA,NA,NA,NA,NA,NA,"2007-07-10",29
"GLP003","OM","107001440",355,"WEIGHT","Weight","11.205","g","11.205",11.205,"g",NA,NA,"LIVER",NA,NA,NA,NA,NA,NA,NA,NA,"2007-07-10",29
"GLP003","OM","107001440",356,"WEIGHT","Weight","2.634","g","2.634",2.634,"g",NA,NA,"KIDNEY",NA,NA,NA,"BILATERAL",NA,NA,NA,NA,"2007-07-10",29
"GLP003","OM","107001440",357,"WEIGHT","Weight","3.38","g","3.38",3.38,"g",NA,NA,"TESTIS",NA,NA,NA,"BILATERAL",NA,NA,NA,NA,"2007-07-10",29
"GLP003","OM","107001440",358,"WEIGHT","Weight","3.161","g","3.161",3.161,"g",NA,NA,"GLAND, PROSTATE",NA,NA,NA,NA,NA,NA,NA,NA,"2007-07-10",29
"GLP003","OM","107001440",359,"WEIGHT","Weight",".01","g","0.01",0.01,"g",NA,NA,"GLAND, PITUITARY",NA,NA,NA,NA,NA,NA,NA,NA,"2007-07-10",29
"GLP003","OM","107001440",360,"WEIGHT","Weight",".021","g","0.021",0.021,"g",NA,NA,"GLAND, THYROID",NA,NA,NA,NA,NA,NA,NA,NA,"2007-07-10",29
"GLP003","OM","107001440",361,"WEIGHT","Weight",".071","g","0.071",0.071,"g",NA,NA,"GLAND, ADRENAL",NA,NA,NA,"BILATERAL",NA,NA,NA,NA,"2007-07-10",29
"GLP003","OM","107001440",362,"WEIGHT","Weight",".971","g","0.971",0.971,"g",NA,NA,"SPLEEN",NA,NA,NA,NA,NA,NA,NA,NA,"2007-07-10",29
"GLP003","OM","107001440",363,"WEIGHT","Weight",".658","g","0.658",0.658,"g",NA,NA,"THYMUS",NA,NA,NA,NA,NA,NA,NA,NA,"2007-07-10",29
"GLP003","OM","107001419",364,"WEIGHT","Weight","1.986","g","1.986",1.986,"g",NA,NA,"BRAIN",NA,NA,NA,NA,NA,NA,NA,NA,"2007-07-10",29
"GLP003","OM","107001419",365,"WEIGHT","Weight","1.251","g","1.251",1.251,"g",NA,NA,"HEART",NA,NA,NA,NA,NA,NA,NA,NA,"2007-07-10",29
"GLP003","OM","107001419",366,"WEIGHT","Weight","10.598","g","10.598",10.598,"g",NA,NA,"LIVER",NA,NA,NA,NA,NA,NA,NA,NA,"2007-07-10",29
"GLP003","OM","107001419",367,"WEIGHT","Weight","2.494","g","2.494",2.494,"g",NA,NA,"KIDNEY",NA,NA,NA,"BILATERAL",NA,NA,NA,NA,"2007-07-10",29
"GLP003","OM","107001419",368,"WEIGHT","Weight","3.319","g","3.319",3.319,"g",NA,NA,"TESTIS",NA,NA,NA,"BILATERAL",NA,NA,NA,NA,"2007-07-10",29
"GLP003","OM","107001419",369,"WEIGHT","Weight","2.982","g","2.982",2.982,"g",NA,NA,"GLAND, PROSTATE",NA,NA,NA,NA,NA,NA,NA,NA,"2007-07-10",29
"GLP003","OM","107001419",370,"WEIGHT","Weight",".011","g","0.011",0.011,"g",NA,NA,"GLAND, PITUITARY",NA,NA,NA,NA,NA,NA,NA,NA,"2007-07-10",29
"GLP003","OM","107001419",371,"WEIGHT","Weight",".028","g","0.028",0.028,"g",NA,NA,"GLAND, THYROID",NA,NA,NA,NA,NA,NA,NA,NA,"2007-07-10",29
"GLP003","OM","107001419",372,"WEIGHT","Weight",".058","g","0.058",0.058,"g",NA,NA,"GLAND, ADRENAL",NA,NA,NA,"BILATERAL",NA,NA,NA,NA,"2007-07-10",29
"GLP003","OM","107001419",373,"WEIGHT","Weight","1.001","g","1.001",1.001,"g",NA,NA,"SPLEEN",NA,NA,NA,NA,NA,NA,NA,NA,"2007-07-10",29
"GLP003","OM","107001419",374,"WEIGHT","Weight",".47","g","0.47",0.47,"g",NA,NA,"THYMUS",NA,NA,NA,NA,NA,NA,NA,NA,"2007-07-10",29
"GLP003","OM","107001437",375,"WEIGHT","Weight","2.089","g","2.089",2.089,"g",NA,NA,"BRAIN",NA,NA,NA,NA,NA,NA,NA,NA,"2007-07-10",29
"GLP003","OM","107001437",376,"WEIGHT","Weight","1.231","g","1.231",1.231,"g",NA,NA,"HEART",NA,NA,NA,NA,NA,NA,NA,NA,"2007-07-10",29
"GLP003","OM","107001437",377,"WEIGHT","Weight","9.307","g","9.307",9.307,"g",NA,NA,"LIVER",NA,NA,NA,NA,NA,NA,NA,NA,"2007-07-10",29
"GLP003","OM","107001437",378,"WEIGHT","Weight","2.701","g","2.701",2.701,"g",NA,NA,"KIDNEY",NA,NA,NA,"BILATERAL",NA,NA,NA,NA,"2007-07-10",29
"GLP003","OM","107001437",379,"WEIGHT","Weight","3.052","g","3.052",3.052,"g",NA,NA,"TESTIS",NA,NA,NA,"BILATERAL",NA,NA,NA,NA,"2007-07-10",29
"GLP003","OM","107001437",380,"WEIGHT","Weight","2.926","g","2.926",2.926,"g",NA,NA,"GLAND, PROSTATE",NA,NA,NA,NA,NA,NA,NA,NA,"2007-07-10",29
"GLP003","OM","107001437",381,"WEIGHT","Weight",".011","g","0.011",0.011,"g",NA,NA,"GLAND, PITUITARY",NA,NA,NA,NA,NA,NA,NA,NA,"2007-07-10",29
"GLP003","OM","107001437",382,"WEIGHT","Weight",".029","g","0.029",0.029,"g",NA,NA,"GLAND, THYROID",NA,NA,NA,NA,NA,NA,NA,NA,"2007-07-10",29
"GLP003","OM","107001437",383,"WEIGHT","Weight",".064","g","0.064",0.064,"g",NA,NA,"GLAND, ADRENAL",NA,NA,NA,"BILATERAL",NA,NA,NA,NA,"2007-07-10",29
"GLP003","OM","107001437",384,"WEIGHT","Weight",".789","g","0.789",0.789,"g",NA,NA,"SPLEEN",NA,NA,NA,NA,NA,NA,NA,NA,"2007-07-10",29
"GLP003","OM","107001437",385,"WEIGHT","Weight",".491","g","0.491",0.491,"g",NA,NA,"THYMUS",NA,NA,NA,NA,NA,NA,NA,NA,"2007-07-10",29
"GLP003","OM","107001415",386,"WEIGHT","Weight","1.986","g","1.986",1.986,"g",NA,NA,"BRAIN",NA,NA,NA,NA,NA,NA,NA,NA,"2007-07-11",30
"GLP003","OM","107001415",387,"WEIGHT","Weight","1.042","g","1.042",1.042,"g",NA,NA,"HEART",NA,NA,NA,NA,NA,NA,NA,NA,"2007-07-11",30
"GLP003","OM","107001415",388,"WEIGHT","Weight","10.902","g","10.902",10.902,"g",NA,NA,"LIVER",NA,NA,NA,NA,NA,NA,NA,NA,"2007-07-11",30
"GLP003","OM","107001415",389,"WEIGHT","Weight","2.275","g","2.275",2.275,"g",NA,NA,"KIDNEY",NA,NA,NA,"BILATERAL",NA,NA,NA,NA,"2007-07-11",30
"GLP003","OM","107001415",390,"WEIGHT","Weight","3.268","g","3.268",3.268,"g",NA,NA,"TESTIS",NA,NA,NA,"BILATERAL",NA,NA,NA,NA,"2007-07-11",30
"GLP003","OM","107001415",391,"WEIGHT","Weight","2.619","g","2.619",2.619,"g",NA,NA,"GLAND, PROSTATE",NA,NA,NA,NA,NA,NA,NA,NA,"2007-07-11",30
"GLP003","OM","107001415",392,"WEIGHT","Weight",".01","g","0.01",0.01,"g",NA,NA,"GLAND, PITUITARY",NA,NA,NA,NA,NA,NA,NA,NA,"2007-07-11",30
"GLP003","OM","107001415",393,"WEIGHT","Weight",".017","g","0.017",0.017,"g",NA,NA,"GLAND, THYROID",NA,NA,NA,NA,NA,NA,NA,NA,"2007-07-11",30
"GLP003","OM","107001415",394,"WEIGHT","Weight",".049","g","0.049",0.049,"g",NA,NA,"GLAND, ADRENAL",NA,NA,NA,"BILATERAL",NA,NA,NA,NA,"2007-07-11",30
"GLP003","OM","107001415",395,"WEIGHT","Weight",".615","g","0.615",0.615,"g",NA,NA,"SPLEEN",NA,NA,NA,NA,NA,NA,NA,NA,"2007-07-11",30
"GLP003","OM","107001415",396,"WEIGHT","Weight",".408","g","0.408",0.408,"g",NA,NA,"THYMUS",NA,NA,NA,NA,NA,NA,NA,NA,"2007-07-11",30
"GLP003","OM","107001368",397,"WEIGHT","Weight",NA,NA,NA,NA,NA,"NOT DONE","Moribund Sacrifice, No Organ Weights Required","BRAIN",NA,NA,NA,NA,NA,NA,NA,NA,"2007-06-17",6
"GLP003","OM","107001368",398,"WEIGHT","Weight",NA,NA,NA,NA,NA,"NOT DONE","Moribund Sacrifice, No Organ Weights Required","HEART",NA,NA,NA,NA,NA,NA,NA,NA,"2007-06-17",6
"GLP003","OM","107001368",399,"WEIGHT","Weight",NA,NA,NA,NA,NA,"NOT DONE","Moribund Sacrifice, No Organ Weights Required","LIVER",NA,NA,NA,NA,NA,NA,NA,NA,"2007-06-17",6
"GLP003","OM","107001368",400,"WEIGHT","Weight",NA,NA,NA,NA,NA,"NOT DONE","Moribund Sacrifice, No Organ Weights Required","KIDNEY",NA,NA,NA,"BILATERAL",NA,NA,NA,NA,"2007-06-17",6
"GLP003","OM","107001368",401,"WEIGHT","Weight",NA,NA,NA,NA,NA,"NOT DONE","Moribund Sacrifice, No Organ Weights Required","TESTIS",NA,NA,NA,"BILATERAL",NA,NA,NA,NA,"2007-06-17",6
"GLP003","OM","107001368",402,"WEIGHT","Weight",NA,NA,NA,NA,NA,"NOT DONE","Moribund Sacrifice, No Organ Weights Required","GLAND, PROSTATE",NA,NA,NA,NA,NA,NA,NA,NA,"2007-06-17",6
"GLP003","OM","107001368",403,"WEIGHT","Weight",NA,NA,NA,NA,NA,"NOT DONE","Moribund Sacrifice, No Organ Weights Required","GLAND, PITUITARY",NA,NA,NA,NA,NA,NA,NA,NA,"2007-06-17",6
"GLP003","OM","107001368",404,"WEIGHT","Weight",NA,NA,NA,NA,NA,"NOT DONE","Moribund Sacrifice, No Organ Weights Required","GLAND, THYROID",NA,NA,NA,NA,NA,NA,NA,NA,"2007-06-17",6
"GLP003","OM","107001368",405,"WEIGHT","Weight",NA,NA,NA,NA,NA,"NOT DONE","Moribund Sacrifice, No Organ Weights Required","GLAND, ADRENAL",NA,NA,NA,"BILATERAL",NA,NA,NA,NA,"2007-06-17",6
"GLP003","OM","107001368",406,"WEIGHT","Weight",NA,NA,NA,NA,NA,"NOT DONE","Moribund Sacrifice, No Organ Weights Required","SPLEEN",NA,NA,NA,NA,NA,NA,NA,NA,"2007-06-17",6
"GLP003","OM","107001368",407,"WEIGHT","Weight",NA,NA,NA,NA,NA,"NOT DONE","Moribund Sacrifice, No Organ Weights Required","THYMUS",NA,NA,NA,NA,NA,NA,NA,NA,"2007-06-17",6
"GLP003","OM","107001455",408,"WEIGHT","Weight","2.185","g","2.185",2.185,"g",NA,NA,"BRAIN",NA,NA,NA,NA,NA,NA,NA,NA,"2007-07-11",30
"GLP003","OM","107001455",409,"WEIGHT","Weight","1.347","g","1.347",1.347,"g",NA,NA,"HEART",NA,NA,NA,NA,NA,NA,NA,NA,"2007-07-11",30
"GLP003","OM","107001455",410,"WEIGHT","Weight","15.297","g","15.297",15.297,"g",NA,NA,"LIVER",NA,NA,NA,NA,NA,NA,NA,NA,"2007-07-11",30
"GLP003","OM","107001455",411,"WEIGHT","Weight","3.24","g","3.24",3.24,"g",NA,NA,"KIDNEY",NA,NA,NA,"BILATERAL",NA,NA,NA,NA,"2007-07-11",30
"GLP003","OM","107001455",412,"WEIGHT","Weight","3.721","g","3.721",3.721,"g",NA,NA,"TESTIS",NA,NA,NA,"BILATERAL",NA,NA,NA,NA,"2007-07-11",30
"GLP003","OM","107001455",413,"WEIGHT","Weight","2.282","g","2.282",2.282,"g",NA,NA,"GLAND, PROSTATE",NA,NA,NA,NA,NA,NA,NA,NA,"2007-07-11",30
"GLP003","OM","107001455",414,"WEIGHT","Weight",".012","g","0.012",0.012,"g",NA,NA,"GLAND, PITUITARY",NA,NA,NA,NA,NA,NA,NA,NA,"2007-07-11",30
"GLP003","OM","107001455",415,"WEIGHT","Weight",".034","g","0.034",0.034,"g",NA,NA,"GLAND, THYROID",NA,NA,NA,NA,NA,NA,NA,NA,"2007-07-11",30
"GLP003","OM","107001455",416,"WEIGHT","Weight",".071","g","0.071",0.071,"g",NA,NA,"GLAND, ADRENAL",NA,NA,NA,"BILATERAL",NA,NA,NA,NA,"2007-07-11",30
"GLP003","OM","107001455",417,"WEIGHT","Weight","1.095","g","1.095",1.095,"g",NA,NA,"SPLEEN",NA,NA,NA,NA,NA,NA,NA,NA,"2007-07-11",30
"GLP003","OM","107001455",418,"WEIGHT","Weight",".713","g","0.713",0.713,"g",NA,NA,"THYMUS",NA,NA,NA,NA,NA,NA,NA,NA,"2007-07-11",30
"GLP003","OM","107001470",419,"WEIGHT","Weight","2.284","g","2.284",2.284,"g",NA,NA,"BRAIN",NA,NA,NA,NA,NA,NA,NA,NA,"2007-07-11",30
"GLP003","OM","107001470",420,"WEIGHT","Weight","1.284","g","1.284",1.284,"g",NA,NA,"HEART",NA,NA,NA,NA,NA,NA,NA,NA,"2007-07-11",30
"GLP003","OM","107001470",421,"WEIGHT","Weight","10.427","g","10.427",10.427,"g",NA,NA,"LIVER",NA,NA,NA,NA,NA,NA,NA,NA,"2007-07-11",30
"GLP003","OM","107001470",422,"WEIGHT","Weight","2.779","g","2.779",2.779,"g",NA,NA,"KIDNEY",NA,NA,NA,"BILATERAL",NA,NA,NA,NA,"2007-07-11",30
"GLP003","OM","107001470",423,"WEIGHT","Weight","3.277","g","3.277",3.277,"g",NA,NA,"TESTIS",NA,NA,NA,"BILATERAL",NA,NA,NA,NA,"2007-07-11",30
"GLP003","OM","107001470",424,"WEIGHT","Weight","3.223","g","3.223",3.223,"g",NA,NA,"GLAND, PROSTATE",NA,NA,NA,NA,NA,NA,NA,NA,"2007-07-11",30
"GLP003","OM","107001470",425,"WEIGHT","Weight",".008","g","0.008",0.008,"g",NA,NA,"GLAND, PITUITARY",NA,NA,NA,NA,NA,NA,NA,NA,"2007-07-11",30
"GLP003","OM","107001470",426,"WEIGHT","Weight",".026","g","0.026",0.026,"g",NA,NA,"GLAND, THYROID",NA,NA,NA,NA,NA,NA,NA,NA,"2007-07-11",30
"GLP003","OM","107001470",427,"WEIGHT","Weight",".06","g","0.06",0.06,"g",NA,NA,"GLAND, ADRENAL",NA,NA,NA,"BILATERAL",NA,NA,NA,NA,"2007-07-11",30
"GLP003","OM","107001470",428,"WEIGHT","Weight",".781","g","0.781",0.781,"g",NA,NA,"SPLEEN",NA,NA,NA,NA,NA,NA,NA,NA,"2007-07-11",30
"GLP003","OM","107001470",429,"WEIGHT","Weight",".452","g","0.452",0.452,"g",NA,NA,"THYMUS",NA,NA,NA,NA,NA,NA,NA,NA,"2007-07-11",30
"GLP003","OM","107001456",430,"WEIGHT","Weight","2.139","g","2.139",2.139,"g",NA,NA,"BRAIN",NA,NA,NA,NA,NA,NA,NA,NA,"2007-07-11",30
"GLP003","OM","107001456",431,"WEIGHT","Weight","1.057","g","1.057",1.057,"g",NA,NA,"HEART",NA,NA,NA,NA,NA,NA,NA,NA,"2007-07-11",30
"GLP003","OM","107001456",432,"WEIGHT","Weight","10.2","g","10.2",10.2,"g",NA,NA,"LIVER",NA,NA,NA,NA,NA,NA,NA,NA,"2007-07-11",30
"GLP003","OM","107001456",433,"WEIGHT","Weight","2.393","g","2.393",2.393,"g",NA,NA,"KIDNEY",NA,NA,NA,"BILATERAL",NA,NA,NA,NA,"2007-07-11",30
"GLP003","OM","107001456",434,"WEIGHT","Weight","3.105","g","3.105",3.105,"g",NA,NA,"TESTIS",NA,NA,NA,"BILATERAL",NA,NA,NA,NA,"2007-07-11",30
"GLP003","OM","107001456",435,"WEIGHT","Weight","2.475","g","2.475",2.475,"g",NA,NA,"GLAND, PROSTATE",NA,NA,NA,NA,NA,NA,NA,NA,"2007-07-11",30
"GLP003","OM","107001456",436,"WEIGHT","Weight",".01","g","0.01",0.01,"g",NA,NA,"GLAND, PITUITARY",NA,NA,NA,NA,NA,NA,NA,NA,"2007-07-11",30
"GLP003","OM","107001456",437,"WEIGHT","Weight",".023","g","0.023",0.023,"g",NA,NA,"GLAND, THYROID",NA,NA,NA,NA,NA,NA,NA,NA,"2007-07-11",30
"GLP003","OM","107001456",438,"WEIGHT","Weight",".057","g","0.057",0.057,"g",NA,NA,"GLAND, ADRENAL",NA,NA,NA,"BILATERAL",NA,NA,NA,NA,"2007-07-11",30
"GLP003","OM","107001456",439,"WEIGHT","Weight",".727","g","0.727",0.727,"g",NA,NA,"SPLEEN",NA,NA,NA,NA,NA,NA,NA,NA,"2007-07-11",30
"GLP003","OM","107001456",440,"WEIGHT","Weight",".535","g","0.535",0.535,"g",NA,NA,"THYMUS",NA,NA,NA,NA,NA,NA,NA,NA,"2007-07-11",30
"GLP003","OM","107001351",441,"WEIGHT","Weight","2.002","g","2.002",2.002,"g",NA,NA,"BRAIN",NA,NA,NA,NA,NA,NA,NA,NA,"2007-07-24",43
"GLP003","OM","107001351",442,"WEIGHT","Weight","1.151","g","1.151",1.151,"g",NA,NA,"HEART",NA,NA,NA,NA,NA,NA,NA,NA,"2007-07-24",43
"GLP003","OM","107001351",443,"WEIGHT","Weight","9.921","g","9.921",9.921,"g",NA,NA,"LIVER",NA,NA,NA,NA,NA,NA,NA,NA,"2007-07-24",43
"GLP003","OM","107001351",444,"WEIGHT","Weight","2.413","g","2.413",2.413,"g",NA,NA,"KIDNEY",NA,NA,NA,"BILATERAL",NA,NA,NA,NA,"2007-07-24",43
"GLP003","OM","107001351",445,"WEIGHT","Weight","3.513","g","3.513",3.513,"g",NA,NA,"TESTIS",NA,NA,NA,"BILATERAL",NA,NA,NA,NA,"2007-07-24",43
"GLP003","OM","107001351",446,"WEIGHT","Weight","3.398","g","3.398",3.398,"g",NA,NA,"GLAND, PROSTATE",NA,NA,NA,NA,NA,NA,NA,NA,"2007-07-24",43
"GLP003","OM","107001351",447,"WEIGHT","Weight",".008","g","0.008",0.008,"g",NA,NA,"GLAND, PITUITARY",NA,NA,NA,NA,NA,NA,NA,NA,"2007-07-24",43
"GLP003","OM","107001351",448,"WEIGHT","Weight",".02","g","0.02",0.02,"g",NA,NA,"GLAND, THYROID",NA,NA,NA,NA,NA,NA,NA,NA,"2007-07-24",43
"GLP003","OM","107001351",449,"WEIGHT","Weight",".053","g","0.053",0.053,"g",NA,NA,"GLAND, ADRENAL",NA,NA,NA,"BILATERAL",NA,NA,NA,NA,"2007-07-24",43
"GLP003","OM","107001351",450,"WEIGHT","Weight",".814","g","0.814",0.814,"g",NA,NA,"SPLEEN",NA,NA,NA,NA,NA,NA,NA,NA,"2007-07-24",43
"GLP003","OM","107001351",451,"WEIGHT","Weight",".452","g","0.452",0.452,"g",NA,NA,"THYMUS",NA,NA,NA,NA,NA,NA,NA,NA,"2007-07-24",43
"GLP003","OM","107001382",452,"WEIGHT","Weight","2.153","g","2.153",2.153,"g",NA,NA,"BRAIN",NA,NA,NA,NA,NA,NA,NA,NA,"2007-07-24",43
"GLP003","OM","107001382",453,"WEIGHT","Weight","1.583","g","1.583",1.583,"g",NA,NA,"HEART",NA,NA,NA,NA,NA,NA,NA,NA,"2007-07-24",43
"GLP003","OM","107001382",454,"WEIGHT","Weight","11.167","g","11.167",11.167,"g",NA,NA,"LIVER",NA,NA,NA,NA,NA,NA,NA,NA,"2007-07-24",43
"GLP003","OM","107001382",455,"WEIGHT","Weight","2.885","g","2.885",2.885,"g",NA,NA,"KIDNEY",NA,NA,NA,"BILATERAL",NA,NA,NA,NA,"2007-07-24",43
"GLP003","OM","107001382",456,"WEIGHT","Weight","3.371","g","3.371",3.371,"g",NA,NA,"TESTIS",NA,NA,NA,"BILATERAL",NA,NA,NA,NA,"2007-07-24",43
"GLP003","OM","107001382",457,"WEIGHT","Weight","2.892","g","2.892",2.892,"g",NA,NA,"GLAND, PROSTATE",NA,NA,NA,NA,NA,NA,NA,NA,"2007-07-24",43
"GLP003","OM","107001382",458,"WEIGHT","Weight",".008","g","0.008",0.008,"g",NA,NA,"GLAND, PITUITARY",NA,NA,NA,NA,NA,NA,NA,NA,"2007-07-24",43
"GLP003","OM","107001382",459,"WEIGHT","Weight",".023","g","0.023",0.023,"g",NA,NA,"GLAND, THYROID",NA,NA,NA,NA,NA,NA,NA,NA,"2007-07-24",43
"GLP003","OM","107001382",460,"WEIGHT","Weight",".075","g","0.075",0.075,"g",NA,NA,"GLAND, ADRENAL",NA,NA,NA,"BILATERAL",NA,NA,NA,NA,"2007-07-24",43
"GLP003","OM","107001382",461,"WEIGHT","Weight","1.193","g","1.193",1.193,"g",NA,NA,"SPLEEN",NA,NA,NA,NA,NA,NA,NA,NA,"2007-07-24",43
"GLP003","OM","107001382",462,"WEIGHT","Weight",".65","g","0.65",0.65,"g",NA,NA,"THYMUS",NA,NA,NA,NA,NA,NA,NA,NA,"2007-07-24",43
"GLP003","OM","107001362",463,"WEIGHT","Weight","2.201","g","2.201",2.201,"g",NA,NA,"BRAIN",NA,NA,NA,NA,NA,NA,NA,NA,"2007-07-24",43
"GLP003","OM","107001362",464,"WEIGHT","Weight","1.243","g","1.243",1.243,"g",NA,NA,"HEART",NA,NA,NA,NA,NA,NA,NA,NA,"2007-07-24",43
"GLP003","OM","107001362",465,"WEIGHT","Weight","10.19","g","10.19",10.19,"g",NA,NA,"LIVER",NA,NA,NA,NA,NA,NA,NA,NA,"2007-07-24",43
"GLP003","OM","107001362",466,"WEIGHT","Weight","2.548","g","2.548",2.548,"g",NA,NA,"KIDNEY",NA,NA,NA,"BILATERAL",NA,NA,NA,NA,"2007-07-24",43
"GLP003","OM","107001362",467,"WEIGHT","Weight","3.49","g","3.49",3.49,"g",NA,NA,"TESTIS",NA,NA,NA,"BILATERAL",NA,NA,NA,NA,"2007-07-24",43
"GLP003","OM","107001362",468,"WEIGHT","Weight","3.053","g","3.053",3.053,"g",NA,NA,"GLAND, PROSTATE",NA,NA,NA,NA,NA,NA,NA,NA,"2007-07-24",43
"GLP003","OM","107001362",469,"WEIGHT","Weight",".009","g","0.009",0.009,"g",NA,NA,"GLAND, PITUITARY",NA,NA,NA,NA,NA,NA,NA,NA,"2007-07-24",43
"GLP003","OM","107001362",470,"WEIGHT","Weight",".025","g","0.025",0.025,"g",NA,NA,"GLAND, THYROID",NA,NA,NA,NA,NA,NA,NA,NA,"2007-07-24",43
"GLP003","OM","107001362",471,"WEIGHT","Weight",".041","g","0.041",0.041,"g",NA,NA,"GLAND, ADRENAL",NA,NA,NA,"BILATERAL",NA,NA,NA,NA,"2007-07-24",43
"GLP003","OM","107001362",472,"WEIGHT","Weight",".773","g","0.773",0.773,"g",NA,NA,"SPLEEN",NA,NA,NA,NA,NA,NA,NA,NA,"2007-07-24",43
"GLP003","OM","107001362",473,"WEIGHT","Weight",".474","g","0.474",0.474,"g",NA,NA,"THYMUS",NA,NA,NA,NA,NA,NA,NA,NA,"2007-07-24",43
"GLP003","OM","107001363",474,"WEIGHT","Weight","2.14","g","2.14",2.14,"g",NA,NA,"BRAIN",NA,NA,NA,NA,NA,NA,NA,NA,"2007-07-24",43
"GLP003","OM","107001363",475,"WEIGHT","Weight","1.506","g","1.506",1.506,"g",NA,NA,"HEART",NA,NA,NA,NA,NA,NA,NA,NA,"2007-07-24",43
"GLP003","OM","107001363",476,"WEIGHT","Weight","11.207","g","11.207",11.207,"g",NA,NA,"LIVER",NA,NA,NA,NA,NA,NA,NA,NA,"2007-07-24",43
"GLP003","OM","107001363",477,"WEIGHT","Weight","2.895","g","2.895",2.895,"g",NA,NA,"KIDNEY",NA,NA,NA,"BILATERAL",NA,NA,NA,NA,"2007-07-24",43
"GLP003","OM","107001363",478,"WEIGHT","Weight","3.443","g","3.443",3.443,"g",NA,NA,"TESTIS",NA,NA,NA,"BILATERAL",NA,NA,NA,NA,"2007-07-24",43
"GLP003","OM","107001363",479,"WEIGHT","Weight","3.255","g","3.255",3.255,"g",NA,NA,"GLAND, PROSTATE",NA,NA,NA,NA,NA,NA,NA,NA,"2007-07-24",43
"GLP003","OM","107001363",480,"WEIGHT","Weight",".009","g","0.009",0.009,"g",NA,NA,"GLAND, PITUITARY",NA,NA,NA,NA,NA,NA,NA,NA,"2007-07-24",43
"GLP003","OM","107001363",481,"WEIGHT","Weight",".021","g","0.021",0.021,"g",NA,NA,"GLAND, THYROID",NA,NA,NA,NA,NA,NA,NA,NA,"2007-07-24",43
"GLP003","OM","107001363",482,"WEIGHT","Weight",".058","g","0.058",0.058,"g",NA,NA,"GLAND, ADRENAL",NA,NA,NA,"BILATERAL",NA,NA,NA,NA,"2007-07-24",43
"GLP003","OM","107001363",483,"WEIGHT","Weight","1.236","g","1.236",1.236,"g",NA,NA,"SPLEEN",NA,NA,NA,NA,NA,NA,NA,NA,"2007-07-24",43
"GLP003","OM","107001363",484,"WEIGHT","Weight",".504","g","0.504",0.504,"g",NA,NA,"THYMUS",NA,NA,NA,NA,NA,NA,NA,NA,"2007-07-24",43
"GLP003","OM","107001473",485,"WEIGHT","Weight","2.009","g","2.009",2.009,"g",NA,NA,"BRAIN",NA,NA,NA,NA,NA,NA,NA,NA,"2007-07-24",43
"GLP003","OM","107001473",486,"WEIGHT","Weight","1.123","g","1.123",1.123,"g",NA,NA,"HEART",NA,NA,NA,NA,NA,NA,NA,NA,"2007-07-24",43
"GLP003","OM","107001473",487,"WEIGHT","Weight","10.537","g","10.537",10.537,"g",NA,NA,"LIVER",NA,NA,NA,NA,NA,NA,NA,NA,"2007-07-24",43
"GLP003","OM","107001473",488,"WEIGHT","Weight","2.561","g","2.561",2.561,"g",NA,NA,"KIDNEY",NA,NA,NA,"BILATERAL",NA,NA,NA,NA,"2007-07-24",43
"GLP003","OM","107001473",489,"WEIGHT","Weight","3.344","g","3.344",3.344,"g",NA,NA,"TESTIS",NA,NA,NA,"BILATERAL",NA,NA,NA,NA,"2007-07-24",43
"GLP003","OM","107001473",490,"WEIGHT","Weight","2.585","g","2.585",2.585,"g",NA,NA,"GLAND, PROSTATE",NA,NA,NA,NA,NA,NA,NA,NA,"2007-07-24",43
"GLP003","OM","107001473",491,"WEIGHT","Weight",".011","g","0.011",0.011,"g",NA,NA,"GLAND, PITUITARY",NA,NA,NA,NA,NA,NA,NA,NA,"2007-07-24",43
"GLP003","OM","107001473",492,"WEIGHT","Weight",".024","g","0.024",0.024,"g",NA,NA,"GLAND, THYROID",NA,NA,NA,NA,NA,NA,NA,NA,"2007-07-24",43
"GLP003","OM","107001473",493,"WEIGHT","Weight",".057","g","0.057",0.057,"g",NA,NA,"GLAND, ADRENAL",NA,NA,NA,"BILATERAL",NA,NA,NA,NA,"2007-07-24",43
"GLP003","OM","107001473",494,"WEIGHT","Weight",".763","g","0.763",0.763,"g",NA,NA,"SPLEEN",NA,NA,NA,NA,NA,NA,NA,NA,"2007-07-24",43
"GLP003","OM","107001473",495,"WEIGHT","Weight",".336","g","0.336",0.336,"g",NA,NA,"THYMUS",NA,NA,NA,NA,NA,NA,NA,NA,"2007-07-24",43
"GLP003","OM","107001525",496,"WEIGHT","Weight","2.029","g","2.029",2.029,"g",NA,NA,"BRAIN",NA,NA,NA,NA,NA,NA,NA,NA,"2007-07-12",29
"GLP003","OM","107001525",497,"WEIGHT","Weight",".825","g","0.825",0.825,"g",NA,NA,"HEART",NA,NA,NA,NA,NA,NA,NA,NA,"2007-07-12",29
"GLP003","OM","107001525",498,"WEIGHT","Weight","6.545","g","6.545",6.545,"g",NA,NA,"LIVER",NA,NA,NA,NA,NA,NA,NA,NA,"2007-07-12",29
"GLP003","OM","107001525",499,"WEIGHT","Weight","1.644","g","1.644",1.644,"g",NA,NA,"KIDNEY",NA,NA,NA,"BILATERAL",NA,NA,NA,NA,"2007-07-12",29
"GLP003","OM","107001525",500,"WEIGHT","Weight",".089","g","0.089",0.089,"g",NA,NA,"OVARY",NA,NA,NA,"BILATERAL",NA,NA,NA,NA,"2007-07-12",29
"GLP003","OM","107001525",501,"WEIGHT","Weight","1.091","g","1.091",1.091,"g",NA,NA,"UTERUS",NA,NA,NA,NA,NA,NA,NA,NA,"2007-07-12",29
"GLP003","OM","107001525",502,"WEIGHT","Weight",".015","g","0.015",0.015,"g",NA,NA,"GLAND, PITUITARY",NA,NA,NA,NA,NA,NA,NA,NA,"2007-07-12",29
"GLP003","OM","107001525",503,"WEIGHT","Weight",".02","g","0.02",0.02,"g",NA,NA,"GLAND, THYROID",NA,NA,NA,NA,NA,NA,NA,NA,"2007-07-12",29
"GLP003","OM","107001525",504,"WEIGHT","Weight",".069","g","0.069",0.069,"g",NA,NA,"GLAND, ADRENAL",NA,NA,NA,"BILATERAL",NA,NA,NA,NA,"2007-07-12",29
"GLP003","OM","107001525",505,"WEIGHT","Weight",".53","g","0.53",0.53,"g",NA,NA,"SPLEEN",NA,NA,NA,NA,NA,NA,NA,NA,"2007-07-12",29
"GLP003","OM","107001525",506,"WEIGHT","Weight",".338","g","0.338",0.338,"g",NA,NA,"THYMUS",NA,NA,NA,NA,NA,NA,NA,NA,"2007-07-12",29
"GLP003","OM","107001541",507,"WEIGHT","Weight","1.889","g","1.889",1.889,"g",NA,NA,"BRAIN",NA,NA,NA,NA,NA,NA,NA,NA,"2007-07-12",29
"GLP003","OM","107001541",508,"WEIGHT","Weight",".929","g","0.929",0.929,"g",NA,NA,"HEART",NA,NA,NA,NA,NA,NA,NA,NA,"2007-07-12",29
"GLP003","OM","107001541",509,"WEIGHT","Weight","6.863","g","6.863",6.863,"g",NA,NA,"LIVER",NA,NA,NA,NA,NA,NA,NA,NA,"2007-07-12",29
"GLP003","OM","107001541",510,"WEIGHT","Weight","1.644","g","1.644",1.644,"g",NA,NA,"KIDNEY",NA,NA,NA,"BILATERAL",NA,NA,NA,NA,"2007-07-12",29
"GLP003","OM","107001541",511,"WEIGHT","Weight",".168","g","0.168",0.168,"g",NA,NA,"OVARY",NA,NA,NA,"BILATERAL",NA,NA,NA,NA,"2007-07-12",29
"GLP003","OM","107001541",512,"WEIGHT","Weight",".494","g","0.494",0.494,"g",NA,NA,"UTERUS",NA,NA,NA,NA,NA,NA,NA,NA,"2007-07-12",29
"GLP003","OM","107001541",513,"WEIGHT","Weight",".011","g","0.011",0.011,"g",NA,NA,"GLAND, PITUITARY",NA,NA,NA,NA,NA,NA,NA,NA,"2007-07-12",29
"GLP003","OM","107001541",514,"WEIGHT","Weight",".016","g","0.016",0.016,"g",NA,NA,"GLAND, THYROID",NA,NA,NA,NA,NA,NA,NA,NA,"2007-07-12",29
"GLP003","OM","107001541",515,"WEIGHT","Weight",".076","g","0.076",0.076,"g",NA,NA,"GLAND, ADRENAL",NA,NA,NA,"BILATERAL",NA,NA,NA,NA,"2007-07-12",29
"GLP003","OM","107001541",516,"WEIGHT","Weight",".494","g","0.494",0.494,"g",NA,NA,"SPLEEN",NA,NA,NA,NA,NA,NA,NA,NA,"2007-07-12",29
"GLP003","OM","107001541",517,"WEIGHT","Weight",".368","g","0.368",0.368,"g",NA,NA,"THYMUS",NA,NA,NA,NA,NA,NA,NA,NA,"2007-07-12",29
"GLP003","OM","107001579",518,"WEIGHT","Weight","1.821","g","1.821",1.821,"g",NA,NA,"BRAIN",NA,NA,NA,NA,NA,NA,NA,NA,"2007-07-12",29
"GLP003","OM","107001579",519,"WEIGHT","Weight",".871","g","0.871",0.871,"g",NA,NA,"HEART",NA,NA,NA,NA,NA,NA,NA,NA,"2007-07-12",29
"GLP003","OM","107001579",520,"WEIGHT","Weight","6.712","g","6.712",6.712,"g",NA,NA,"LIVER",NA,NA,NA,NA,NA,NA,NA,NA,"2007-07-12",29
"GLP003","OM","107001579",521,"WEIGHT","Weight","1.708","g","1.708",1.708,"g",NA,NA,"KIDNEY",NA,NA,NA,"BILATERAL",NA,NA,NA,NA,"2007-07-12",29
"GLP003","OM","107001579",522,"WEIGHT","Weight",".075","g","0.075",0.075,"g",NA,NA,"OVARY",NA,NA,NA,"BILATERAL",NA,NA,NA,NA,"2007-07-12",29
"GLP003","OM","107001579",523,"WEIGHT","Weight","1.013","g","1.013",1.013,"g",NA,NA,"UTERUS",NA,NA,NA,NA,NA,NA,NA,NA,"2007-07-12",29
"GLP003","OM","107001579",524,"WEIGHT","Weight",".014","g","0.014",0.014,"g",NA,NA,"GLAND, PITUITARY",NA,NA,NA,NA,NA,NA,NA,NA,"2007-07-12",29
"GLP003","OM","107001579",525,"WEIGHT","Weight",".016","g","0.016",0.016,"g",NA,NA,"GLAND, THYROID",NA,NA,NA,NA,NA,NA,NA,NA,"2007-07-12",29
"GLP003","OM","107001579",526,"WEIGHT","Weight",".073","g","0.073",0.073,"g",NA,NA,"GLAND, ADRENAL",NA,NA,NA,"BILATERAL",NA,NA,NA,NA,"2007-07-12",29
"GLP003","OM","107001579",527,"WEIGHT","Weight",".476","g","0.476",0.476,"g",NA,NA,"SPLEEN",NA,NA,NA,NA,NA,NA,NA,NA,"2007-07-12",29
"GLP003","OM","107001579",528,"WEIGHT","Weight",".437","g","0.437",0.437,"g",NA,NA,"THYMUS",NA,NA,NA,NA,NA,NA,NA,NA,"2007-07-12",29
"GLP003","OM","107001534",529,"WEIGHT","Weight","1.893","g","1.893",1.893,"g",NA,NA,"BRAIN",NA,NA,NA,NA,NA,NA,NA,NA,"2007-07-12",29
"GLP003","OM","107001534",530,"WEIGHT","Weight",".817","g","0.817",0.817,"g",NA,NA,"HEART",NA,NA,NA,NA,NA,NA,NA,NA,"2007-07-12",29
"GLP003","OM","107001534",531,"WEIGHT","Weight","6.764","g","6.764",6.764,"g",NA,NA,"LIVER",NA,NA,NA,NA,NA,NA,NA,NA,"2007-07-12",29
"GLP003","OM","107001534",532,"WEIGHT","Weight","1.806","g","1.806",1.806,"g",NA,NA,"KIDNEY",NA,NA,NA,"BILATERAL",NA,NA,NA,NA,"2007-07-12",29
"GLP003","OM","107001534",533,"WEIGHT","Weight",".126","g","0.126",0.126,"g",NA,NA,"OVARY",NA,NA,NA,"BILATERAL",NA,NA,NA,NA,"2007-07-12",29
"GLP003","OM","107001534",534,"WEIGHT","Weight","1.021","g","1.021",1.021,"g",NA,NA,"UTERUS",NA,NA,NA,NA,NA,NA,NA,NA,"2007-07-12",29
"GLP003","OM","107001534",535,"WEIGHT","Weight",".013","g","0.013",0.013,"g",NA,NA,"GLAND, PITUITARY",NA,NA,NA,NA,NA,NA,NA,NA,"2007-07-12",29
"GLP003","OM","107001534",536,"WEIGHT","Weight",".015","g","0.015",0.015,"g",NA,NA,"GLAND, THYROID",NA,NA,NA,NA,NA,NA,NA,NA,"2007-07-12",29
"GLP003","OM","107001534",537,"WEIGHT","Weight",".071","g","0.071",0.071,"g",NA,NA,"GLAND, ADRENAL",NA,NA,NA,"BILATERAL",NA,NA,NA,NA,"2007-07-12",29
"GLP003","OM","107001534",538,"WEIGHT","Weight",".546","g","0.546",0.546,"g",NA,NA,"SPLEEN",NA,NA,NA,NA,NA,NA,NA,NA,"2007-07-12",29
"GLP003","OM","107001534",539,"WEIGHT","Weight",".416","g","0.416",0.416,"g",NA,NA,"THYMUS",NA,NA,NA,NA,NA,NA,NA,NA,"2007-07-12",29
"GLP003","OM","107001629",540,"WEIGHT","Weight",NA,NA,NA,NA,NA,"NOT DONE","Moribund Sacrifice, No Organ Weights Required","BRAIN",NA,NA,NA,NA,NA,NA,NA,NA,"2007-06-21",8
"GLP003","OM","107001629",541,"WEIGHT","Weight",NA,NA,NA,NA,NA,"NOT DONE","Moribund Sacrifice, No Organ Weights Required","HEART",NA,NA,NA,NA,NA,NA,NA,NA,"2007-06-21",8
"GLP003","OM","107001629",542,"WEIGHT","Weight",NA,NA,NA,NA,NA,"NOT DONE","Moribund Sacrifice, No Organ Weights Required","LIVER",NA,NA,NA,NA,NA,NA,NA,NA,"2007-06-21",8
"GLP003","OM","107001629",543,"WEIGHT","Weight",NA,NA,NA,NA,NA,"NOT DONE","Moribund Sacrifice, No Organ Weights Required","KIDNEY",NA,NA,NA,"BILATERAL",NA,NA,NA,NA,"2007-06-21",8
"GLP003","OM","107001629",544,"WEIGHT","Weight",NA,NA,NA,NA,NA,"NOT DONE","Moribund Sacrifice, No Organ Weights Required","OVARY",NA,NA,NA,"BILATERAL",NA,NA,NA,NA,"2007-06-21",8
"GLP003","OM","107001629",545,"WEIGHT","Weight",NA,NA,NA,NA,NA,"NOT DONE","Moribund Sacrifice, No Organ Weights Required","UTERUS",NA,NA,NA,NA,NA,NA,NA,NA,"2007-06-21",8
"GLP003","OM","107001629",546,"WEIGHT","Weight",NA,NA,NA,NA,NA,"NOT DONE","Moribund Sacrifice, No Organ Weights Required","GLAND, PITUITARY",NA,NA,NA,NA,NA,NA,NA,NA,"2007-06-21",8
"GLP003","OM","107001629",547,"WEIGHT","Weight",NA,NA,NA,NA,NA,"NOT DONE","Moribund Sacrifice, No Organ Weights Required","GLAND, THYROID",NA,NA,NA,NA,NA,NA,NA,NA,"2007-06-21",8
"GLP003","OM","107001629",548,"WEIGHT","Weight",NA,NA,NA,NA,NA,"NOT DONE","Moribund Sacrifice, No Organ Weights Required","GLAND, ADRENAL",NA,NA,NA,"BILATERAL",NA,NA,NA,NA,"2007-06-21",8
"GLP003","OM","107001629",549,"WEIGHT","Weight",NA,NA,NA,NA,NA,"NOT DONE","Moribund Sacrifice, No Organ Weights Required","SPLEEN",NA,NA,NA,NA,NA,NA,NA,NA,"2007-06-21",8
"GLP003","OM","107001629",550,"WEIGHT","Weight",NA,NA,NA,NA,NA,"NOT DONE","Moribund Sacrifice, No Organ Weights Required","THYMUS",NA,NA,NA,NA,NA,NA,NA,NA,"2007-06-21",8
"GLP003","OM","107001511",551,"WEIGHT","Weight","1.867","g","1.867",1.867,"g",NA,NA,"BRAIN",NA,NA,NA,NA,NA,NA,NA,NA,"2007-07-12",29
"GLP003","OM","107001511",552,"WEIGHT","Weight",".758","g","0.758",0.758,"g",NA,NA,"HEART",NA,NA,NA,NA,NA,NA,NA,NA,"2007-07-12",29
"GLP003","OM","107001511",553,"WEIGHT","Weight","5.801","g","5.801",5.801,"g",NA,NA,"LIVER",NA,NA,NA,NA,NA,NA,NA,NA,"2007-07-12",29
"GLP003","OM","107001511",554,"WEIGHT","Weight","1.515","g","1.515",1.515,"g",NA,NA,"KIDNEY",NA,NA,NA,"BILATERAL",NA,NA,NA,NA,"2007-07-12",29
"GLP003","OM","107001511",555,"WEIGHT","Weight",".152","g","0.152",0.152,"g",NA,NA,"OVARY",NA,NA,NA,"BILATERAL",NA,NA,NA,NA,"2007-07-12",29
"GLP003","OM","107001511",556,"WEIGHT","Weight",".68","g","0.68",0.68,"g",NA,NA,"UTERUS",NA,NA,NA,NA,NA,NA,NA,NA,"2007-07-12",29
"GLP003","OM","107001511",557,"WEIGHT","Weight",".013","g","0.013",0.013,"g",NA,NA,"GLAND, PITUITARY",NA,NA,NA,NA,NA,NA,NA,NA,"2007-07-12",29
"GLP003","OM","107001511",558,"WEIGHT","Weight",".011","g","0.011",0.011,"g",NA,NA,"GLAND, THYROID",NA,NA,NA,NA,NA,NA,NA,NA,"2007-07-12",29
"GLP003","OM","107001511",559,"WEIGHT","Weight",".074","g","0.074",0.074,"g",NA,NA,"GLAND, ADRENAL",NA,NA,NA,"BILATERAL",NA,NA,NA,NA,"2007-07-12",29
"GLP003","OM","107001511",560,"WEIGHT","Weight",".605","g","0.605",0.605,"g",NA,NA,"SPLEEN",NA,NA,NA,NA,NA,NA,NA,NA,"2007-07-12",29
"GLP003","OM","107001511",561,"WEIGHT","Weight",".355","g","0.355",0.355,"g",NA,NA,"THYMUS",NA,NA,NA,NA,NA,NA,NA,NA,"2007-07-12",29
"GLP003","OM","107001620",562,"WEIGHT","Weight","1.847","g","1.847",1.847,"g",NA,NA,"BRAIN",NA,NA,NA,NA,NA,NA,NA,NA,"2007-07-13",30
"GLP003","OM","107001620",563,"WEIGHT","Weight",".83","g","0.83",0.83,"g",NA,NA,"HEART",NA,NA,NA,NA,NA,NA,NA,NA,"2007-07-13",30
"GLP003","OM","107001620",564,"WEIGHT","Weight","5.694","g","5.694",5.694,"g",NA,NA,"LIVER",NA,NA,NA,NA,NA,NA,NA,NA,"2007-07-13",30
"GLP003","OM","107001620",565,"WEIGHT","Weight","1.388","g","1.388",1.388,"g",NA,NA,"KIDNEY",NA,NA,NA,"BILATERAL",NA,NA,NA,NA,"2007-07-13",30
"GLP003","OM","107001620",566,"WEIGHT","Weight",".083","g","0.083",0.083,"g",NA,NA,"OVARY",NA,NA,NA,"BILATERAL",NA,NA,NA,NA,"2007-07-13",30
"GLP003","OM","107001620",567,"WEIGHT","Weight",".573","g","0.573",0.573,"g",NA,NA,"UTERUS",NA,NA,NA,NA,NA,NA,NA,NA,"2007-07-13",30
"GLP003","OM","107001620",568,"WEIGHT","Weight",".017","g","0.017",0.017,"g",NA,NA,"GLAND, PITUITARY",NA,NA,NA,NA,NA,NA,NA,NA,"2007-07-13",30
"GLP003","OM","107001620",569,"WEIGHT","Weight",".009","g","0.009",0.009,"g",NA,NA,"GLAND, THYROID",NA,NA,NA,NA,NA,NA,NA,NA,"2007-07-13",30
"GLP003","OM","107001620",570,"WEIGHT","Weight",".062","g","0.062",0.062,"g",NA,NA,"GLAND, ADRENAL",NA,NA,NA,"BILATERAL",NA,NA,NA,NA,"2007-07-13",30
"GLP003","OM","107001620",571,"WEIGHT","Weight",".403","g","0.403",0.403,"g",NA,NA,"SPLEEN",NA,NA,NA,NA,NA,NA,NA,NA,"2007-07-13",30
"GLP003","OM","107001620",572,"WEIGHT","Weight",".325","g","0.325",0.325,"g",NA,NA,"THYMUS",NA,NA,NA,NA,NA,NA,NA,NA,"2007-07-13",30
"GLP003","OM","107001641",573,"WEIGHT","Weight","1.897","g","1.897",1.897,"g",NA,NA,"BRAIN",NA,NA,NA,NA,NA,NA,NA,NA,"2007-07-13",30
"GLP003","OM","107001641",574,"WEIGHT","Weight",".839","g","0.839",0.839,"g",NA,NA,"HEART",NA,NA,NA,NA,NA,NA,NA,NA,"2007-07-13",30
"GLP003","OM","107001641",575,"WEIGHT","Weight","6.381","g","6.381",6.381,"g",NA,NA,"LIVER",NA,NA,NA,NA,NA,NA,NA,NA,"2007-07-13",30
"GLP003","OM","107001641",576,"WEIGHT","Weight","1.551","g","1.551",1.551,"g",NA,NA,"KIDNEY",NA,NA,NA,"BILATERAL",NA,NA,NA,NA,"2007-07-13",30
"GLP003","OM","107001641",577,"WEIGHT","Weight",".168","g","0.168",0.168,"g",NA,NA,"OVARY",NA,NA,NA,"BILATERAL",NA,NA,NA,NA,"2007-07-13",30
"GLP003","OM","107001641",578,"WEIGHT","Weight",".61","g","0.61",0.61,"g",NA,NA,"UTERUS",NA,NA,NA,NA,NA,NA,NA,NA,"2007-07-13",30
"GLP003","OM","107001641",579,"WEIGHT","Weight",".012","g","0.012",0.012,"g",NA,NA,"GLAND, PITUITARY",NA,NA,NA,NA,NA,NA,NA,NA,"2007-07-13",30
"GLP003","OM","107001641",580,"WEIGHT","Weight",".412","g","0.412",0.412,"g",NA,NA,"GLAND, THYROID",NA,NA,NA,NA,NA,NA,"Y","Incorrect weight based on review of data","2007-07-13",30
"GLP003","OM","107001641",581,"WEIGHT","Weight",".077","g","0.077",0.077,"g",NA,NA,"GLAND, ADRENAL",NA,NA,NA,"BILATERAL",NA,NA,NA,NA,"2007-07-13",30
"GLP003","OM","107001641",582,"WEIGHT","Weight",".408","g","0.408",0.408,"g",NA,NA,"SPLEEN",NA,NA,NA,NA,NA,NA,NA,NA,"2007-07-13",30
"GLP003","OM","107001641",583,"WEIGHT","Weight",".435","g","0.435",0.435,"g",NA,NA,"THYMUS",NA,NA,NA,NA,NA,NA,NA,NA,"2007-07-13",30
"GLP003","OM","107001602",584,"WEIGHT","Weight","1.956","g","1.956",1.956,"g",NA,NA,"BRAIN",NA,NA,NA,NA,NA,NA,NA,NA,"2007-07-13",30
"GLP003","OM","107001602",585,"WEIGHT","Weight",".89","g","0.89",0.89,"g",NA,NA,"HEART",NA,NA,NA,NA,NA,NA,NA,NA,"2007-07-13",30
"GLP003","OM","107001602",586,"WEIGHT","Weight","6.114","g","6.114",6.114,"g",NA,NA,"LIVER",NA,NA,NA,NA,NA,NA,NA,NA,"2007-07-13",30
"GLP003","OM","107001602",587,"WEIGHT","Weight","1.637","g","1.637",1.637,"g",NA,NA,"KIDNEY",NA,NA,NA,"BILATERAL",NA,NA,NA,NA,"2007-07-13",30
"GLP003","OM","107001602",588,"WEIGHT","Weight",".104","g","0.104",0.104,"g",NA,NA,"OVARY",NA,NA,NA,"BILATERAL",NA,NA,NA,NA,"2007-07-13",30
"GLP003","OM","107001602",589,"WEIGHT","Weight",".736","g","0.736",0.736,"g",NA,NA,"UTERUS",NA,NA,NA,NA,NA,NA,NA,NA,"2007-07-13",30
"GLP003","OM","107001602",590,"WEIGHT","Weight",".019","g","0.019",0.019,"g",NA,NA,"GLAND, PITUITARY",NA,NA,NA,NA,NA,NA,NA,NA,"2007-07-13",30
"GLP003","OM","107001602",591,"WEIGHT","Weight",".014","g","0.014",0.014,"g",NA,NA,"GLAND, THYROID",NA,NA,NA,NA,NA,NA,NA,NA,"2007-07-13",30
"GLP003","OM","107001602",592,"WEIGHT","Weight",".074","g","0.074",0.074,"g",NA,NA,"GLAND, ADRENAL",NA,NA,NA,"BILATERAL",NA,NA,NA,NA,"2007-07-13",30
"GLP003","OM","107001602",593,"WEIGHT","Weight",".489","g","0.489",0.489,"g",NA,NA,"SPLEEN",NA,NA,NA,NA,NA,NA,NA,NA,"2007-07-13",30
"GLP003","OM","107001602",594,"WEIGHT","Weight",".365","g","0.365",0.365,"g",NA,NA,"THYMUS",NA,NA,NA,NA,NA,NA,NA,NA,"2007-07-13",30
"GLP003","OM","107001513",595,"WEIGHT","Weight","1.932","g","1.932",1.932,"g",NA,NA,"BRAIN",NA,NA,NA,NA,NA,NA,NA,NA,"2007-07-13",30
"GLP003","OM","107001513",596,"WEIGHT","Weight",".815","g","0.815",0.815,"g",NA,NA,"HEART",NA,NA,NA,NA,NA,NA,NA,NA,"2007-07-13",30
"GLP003","OM","107001513",597,"WEIGHT","Weight","6.006","g","6.006",6.006,"g",NA,NA,"LIVER",NA,NA,NA,NA,NA,NA,NA,NA,"2007-07-13",30
"GLP003","OM","107001513",598,"WEIGHT","Weight","1.572","g","1.572",1.572,"g",NA,NA,"KIDNEY",NA,NA,NA,"BILATERAL",NA,NA,NA,NA,"2007-07-13",30
"GLP003","OM","107001513",599,"WEIGHT","Weight",".093","g","0.093",0.093,"g",NA,NA,"OVARY",NA,NA,NA,"BILATERAL",NA,NA,NA,NA,"2007-07-13",30
"GLP003","OM","107001513",600,"WEIGHT","Weight",".939","g","0.939",0.939,"g",NA,NA,"UTERUS",NA,NA,NA,NA,NA,NA,NA,NA,"2007-07-13",30
"GLP003","OM","107001513",601,"WEIGHT","Weight",".016","g","0.016",0.016,"g",NA,NA,"GLAND, PITUITARY",NA,NA,NA,NA,NA,NA,NA,NA,"2007-07-13",30
"GLP003","OM","107001513",602,"WEIGHT","Weight",".017","g","0.017",0.017,"g",NA,NA,"GLAND, THYROID",NA,NA,NA,NA,NA,NA,NA,NA,"2007-07-13",30
"GLP003","OM","107001513",603,"WEIGHT","Weight",".065","g","0.065",0.065,"g",NA,NA,"GLAND, ADRENAL",NA,NA,NA,"BILATERAL",NA,NA,NA,NA,"2007-07-13",30
"GLP003","OM","107001513",604,"WEIGHT","Weight",".426","g","0.426",0.426,"g",NA,NA,"SPLEEN",NA,NA,NA,NA,NA,NA,NA,NA,"2007-07-13",30
"GLP003","OM","107001513",605,"WEIGHT","Weight",".385","g","0.385",0.385,"g",NA,NA,"THYMUS",NA,NA,NA,NA,NA,NA,NA,NA,"2007-07-13",30
"GLP003","OM","107001556",606,"WEIGHT","Weight","1.945","g","1.945",1.945,"g",NA,NA,"BRAIN",NA,NA,NA,NA,NA,NA,NA,NA,"2007-07-26",43
"GLP003","OM","107001556",607,"WEIGHT","Weight",".902","g","0.902",0.902,"g",NA,NA,"HEART",NA,NA,NA,NA,NA,NA,NA,NA,"2007-07-26",43
"GLP003","OM","107001556",608,"WEIGHT","Weight","5.872","g","5.872",5.872,"g",NA,NA,"LIVER",NA,NA,NA,NA,NA,NA,NA,NA,"2007-07-26",43
"GLP003","OM","107001556",609,"WEIGHT","Weight","1.65","g","1.65",1.65,"g",NA,NA,"KIDNEY",NA,NA,NA,"BILATERAL",NA,NA,NA,NA,"2007-07-26",43
"GLP003","OM","107001556",610,"WEIGHT","Weight",".155","g","0.155",0.155,"g",NA,NA,"OVARY",NA,NA,NA,"BILATERAL",NA,NA,NA,NA,"2007-07-26",43
"GLP003","OM","107001556",611,"WEIGHT","Weight",".549","g","0.549",0.549,"g",NA,NA,"UTERUS",NA,NA,NA,NA,NA,NA,NA,NA,"2007-07-26",43
"GLP003","OM","107001556",612,"WEIGHT","Weight",".016","g","0.016",0.016,"g",NA,NA,"GLAND, PITUITARY",NA,NA,NA,NA,NA,NA,NA,NA,"2007-07-26",43
"GLP003","OM","107001556",613,"WEIGHT","Weight",".017","g","0.017",0.017,"g",NA,NA,"GLAND, THYROID",NA,NA,NA,NA,NA,NA,NA,NA,"2007-07-26",43
"GLP003","OM","107001556",614,"WEIGHT","Weight",".072","g","0.072",0.072,"g",NA,NA,"GLAND, ADRENAL",NA,NA,NA,"BILATERAL",NA,NA,NA,NA,"2007-07-26",43
"GLP003","OM","107001556",615,"WEIGHT","Weight",".397","g","0.397",0.397,"g",NA,NA,"SPLEEN",NA,NA,NA,NA,NA,NA,NA,NA,"2007-07-26",43
"GLP003","OM","107001556",616,"WEIGHT","Weight",".288","g","0.288",0.288,"g",NA,NA,"THYMUS",NA,NA,NA,NA,NA,NA,NA,NA,"2007-07-26",43
"GLP003","OM","107001561",617,"WEIGHT","Weight","1.987","g","1.987",1.987,"g",NA,NA,"BRAIN",NA,NA,NA,NA,NA,NA,NA,NA,"2007-07-26",43
"GLP003","OM","107001561",618,"WEIGHT","Weight",".858","g","0.858",0.858,"g",NA,NA,"HEART",NA,NA,NA,NA,NA,NA,NA,NA,"2007-07-26",43
"GLP003","OM","107001561",619,"WEIGHT","Weight","6.316","g","6.316",6.316,"g",NA,NA,"LIVER",NA,NA,NA,NA,NA,NA,NA,NA,"2007-07-26",43
"GLP003","OM","107001561",620,"WEIGHT","Weight","1.613","g","1.613",1.613,"g",NA,NA,"KIDNEY",NA,NA,NA,"BILATERAL",NA,NA,NA,NA,"2007-07-26",43
"GLP003","OM","107001561",621,"WEIGHT","Weight",".142","g","0.142",0.142,"g",NA,NA,"OVARY",NA,NA,NA,"BILATERAL",NA,NA,NA,NA,"2007-07-26",43
"GLP003","OM","107001561",622,"WEIGHT","Weight",".549","g","0.549",0.549,"g",NA,NA,"UTERUS",NA,NA,NA,NA,NA,NA,NA,NA,"2007-07-26",43
"GLP003","OM","107001561",623,"WEIGHT","Weight",".015","g","0.015",0.015,"g",NA,NA,"GLAND, PITUITARY",NA,NA,NA,NA,NA,NA,NA,NA,"2007-07-26",43
"GLP003","OM","107001561",624,"WEIGHT","Weight",".014","g","0.014",0.014,"g",NA,NA,"GLAND, THYROID",NA,NA,NA,NA,NA,NA,NA,NA,"2007-07-26",43
"GLP003","OM","107001561",625,"WEIGHT","Weight",".066","g","0.066",0.066,"g",NA,NA,"GLAND, ADRENAL",NA,NA,NA,"BILATERAL",NA,NA,NA,NA,"2007-07-26",43
"GLP003","OM","107001561",626,"WEIGHT","Weight",".419","g","0.419",0.419,"g",NA,NA,"SPLEEN",NA,NA,NA,NA,NA,NA,NA,NA,"2007-07-26",43
"GLP003","OM","107001561",627,"WEIGHT","Weight",".363","g","0.363",0.363,"g",NA,NA,"THYMUS",NA,NA,NA,NA,NA,NA,NA,NA,"2007-07-26",43
"GLP003","OM","107001559",628,"WEIGHT","Weight","1.897","g","1.897",1.897,"g",NA,NA,"BRAIN",NA,NA,NA,NA,NA,NA,NA,NA,"2007-07-26",43
"GLP003","OM","107001559",629,"WEIGHT","Weight","1.172","g","1.172",1.172,"g",NA,NA,"HEART",NA,NA,NA,NA,NA,NA,NA,NA,"2007-07-26",43
"GLP003","OM","107001559",630,"WEIGHT","Weight","7.197","g","7.197",7.197,"g",NA,NA,"LIVER",NA,NA,NA,NA,NA,NA,NA,NA,"2007-07-26",43
"GLP003","OM","107001559",631,"WEIGHT","Weight","1.511","g","1.511",1.511,"g",NA,NA,"KIDNEY",NA,NA,NA,"BILATERAL",NA,NA,NA,NA,"2007-07-26",43
"GLP003","OM","107001559",632,"WEIGHT","Weight",".078","g","0.078",0.078,"g",NA,NA,"OVARY",NA,NA,NA,"BILATERAL",NA,NA,NA,NA,"2007-07-26",43
"GLP003","OM","107001559",633,"WEIGHT","Weight","1.609","g","1.609",1.609,"g",NA,NA,"UTERUS",NA,NA,NA,NA,NA,NA,NA,NA,"2007-07-26",43
"GLP003","OM","107001559",634,"WEIGHT","Weight",".01","g","0.01",0.01,"g",NA,NA,"GLAND, PITUITARY",NA,NA,NA,NA,NA,NA,NA,NA,"2007-07-26",43
"GLP003","OM","107001559",635,"WEIGHT","Weight",".017","g","0.017",0.017,"g",NA,NA,"GLAND, THYROID",NA,NA,NA,NA,NA,NA,NA,NA,"2007-07-26",43
"GLP003","OM","107001559",636,"WEIGHT","Weight",".058","g","0.058",0.058,"g",NA,NA,"GLAND, ADRENAL",NA,NA,NA,"BILATERAL",NA,NA,NA,NA,"2007-07-26",43
"GLP003","OM","107001559",637,"WEIGHT","Weight",".915","g","0.915",0.915,"g",NA,NA,"SPLEEN",NA,NA,NA,NA,NA,NA,NA,NA,"2007-07-26",43
"GLP003","OM","107001559",638,"WEIGHT","Weight",".409","g","0.409",0.409,"g",NA,NA,"THYMUS",NA,NA,NA,NA,NA,NA,NA,NA,"2007-07-26",43
"GLP003","OM","107001609",639,"WEIGHT","Weight","2.116","g","2.116",2.116,"g",NA,NA,"BRAIN",NA,NA,NA,NA,NA,NA,NA,NA,"2007-07-26",43
"GLP003","OM","107001609",640,"WEIGHT","Weight","1.059","g","1.059",1.059,"g",NA,NA,"HEART",NA,NA,NA,NA,NA,NA,NA,NA,"2007-07-26",43
"GLP003","OM","107001609",641,"WEIGHT","Weight","6.844","g","6.844",6.844,"g",NA,NA,"LIVER",NA,NA,NA,NA,NA,NA,NA,NA,"2007-07-26",43
"GLP003","OM","107001609",642,"WEIGHT","Weight","1.736","g","1.736",1.736,"g",NA,NA,"KIDNEY",NA,NA,NA,"BILATERAL",NA,NA,NA,NA,"2007-07-26",43
"GLP003","OM","107001609",643,"WEIGHT","Weight",".098","g","0.098",0.098,"g",NA,NA,"OVARY",NA,NA,NA,"BILATERAL",NA,NA,NA,NA,"2007-07-26",43
"GLP003","OM","107001609",644,"WEIGHT","Weight",".643","g","0.643",0.643,"g",NA,NA,"UTERUS",NA,NA,NA,NA,NA,NA,NA,NA,"2007-07-26",43
"GLP003","OM","107001609",645,"WEIGHT","Weight",".015","g","0.015",0.015,"g",NA,NA,"GLAND, PITUITARY",NA,NA,NA,NA,NA,NA,NA,NA,"2007-07-26",43
"GLP003","OM","107001609",646,"WEIGHT","Weight",".022","g","0.022",0.022,"g",NA,NA,"GLAND, THYROID",NA,NA,NA,NA,NA,NA,NA,NA,"2007-07-26",43
"GLP003","OM","107001609",647,"WEIGHT","Weight",".054","g","0.054",0.054,"g",NA,NA,"GLAND, ADRENAL",NA,NA,NA,"BILATERAL",NA,NA,NA,NA,"2007-07-26",43
"GLP003","OM","107001609",648,"WEIGHT","Weight",".423","g","0.423",0.423,"g",NA,NA,"SPLEEN",NA,NA,NA,NA,NA,NA,NA,NA,"2007-07-26",43
"GLP003","OM","107001609",649,"WEIGHT","Weight",".537","g","0.537",0.537,"g",NA,NA,"THYMUS",NA,NA,NA,NA,NA,NA,NA,NA,"2007-07-26",43
"GLP003","OM","107001563",650,"WEIGHT","Weight","1.912","g","1.912",1.912,"g",NA,NA,"BRAIN",NA,NA,NA,NA,NA,NA,NA,NA,"2007-07-26",43
"GLP003","OM","107001563",651,"WEIGHT","Weight",".837","g","0.837",0.837,"g",NA,NA,"HEART",NA,NA,NA,NA,NA,NA,NA,NA,"2007-07-26",43
"GLP003","OM","107001563",652,"WEIGHT","Weight","5.817","g","5.817",5.817,"g",NA,NA,"LIVER",NA,NA,NA,NA,NA,NA,NA,NA,"2007-07-26",43
"GLP003","OM","107001563",653,"WEIGHT","Weight","1.525","g","1.525",1.525,"g",NA,NA,"KIDNEY",NA,NA,NA,"BILATERAL",NA,NA,NA,NA,"2007-07-26",43
"GLP003","OM","107001563",654,"WEIGHT","Weight",".106","g","0.106",0.106,"g",NA,NA,"OVARY",NA,NA,NA,"BILATERAL",NA,NA,NA,NA,"2007-07-26",43
"GLP003","OM","107001563",655,"WEIGHT","Weight",".548","g","0.548",0.548,"g",NA,NA,"UTERUS",NA,NA,NA,NA,NA,NA,NA,NA,"2007-07-26",43
"GLP003","OM","107001563",656,"WEIGHT","Weight",".011","g","0.011",0.011,"g",NA,NA,"GLAND, PITUITARY",NA,NA,NA,NA,NA,NA,NA,NA,"2007-07-26",43
"GLP003","OM","107001563",657,"WEIGHT","Weight",".015","g","0.015",0.015,"g",NA,NA,"GLAND, THYROID",NA,NA,NA,NA,NA,NA,NA,NA,"2007-07-26",43
"GLP003","OM","107001563",658,"WEIGHT","Weight",".069","g","0.069",0.069,"g",NA,NA,"GLAND, ADRENAL",NA,NA,NA,"BILATERAL",NA,NA,NA,NA,"2007-07-26",43
"GLP003","OM","107001563",659,"WEIGHT","Weight",".461","g","0.461",0.461,"g",NA,NA,"SPLEEN",NA,NA,NA,NA,NA,NA,NA,NA,"2007-07-26",43
"GLP003","OM","107001563",660,"WEIGHT","Weight",".351","g","0.351",0.351,"g",NA,NA,"THYMUS",NA,NA,NA,NA,NA,NA,NA,NA,"2007-07-26",43
"GLP003","OM","107001441",661,"WEIGHT","Weight","2.282","g","2.282",2.282,"g",NA,NA,"BRAIN",NA,NA,NA,NA,NA,NA,NA,NA,"2007-07-10",29
"GLP003","OM","107001441",662,"WEIGHT","Weight","1.143","g","1.143",1.143,"g",NA,NA,"HEART",NA,NA,NA,NA,NA,NA,NA,NA,"2007-07-10",29
"GLP003","OM","107001441",663,"WEIGHT","Weight","10.839","g","10.839",10.839,"g",NA,NA,"LIVER",NA,NA,NA,NA,NA,NA,NA,NA,"2007-07-10",29
"GLP003","OM","107001441",664,"WEIGHT","Weight","2.702","g","2.702",2.702,"g",NA,NA,"KIDNEY",NA,NA,NA,"BILATERAL",NA,NA,NA,NA,"2007-07-10",29
"GLP003","OM","107001441",665,"WEIGHT","Weight","3.344","g","3.344",3.344,"g",NA,NA,"TESTIS",NA,NA,NA,"BILATERAL",NA,NA,NA,NA,"2007-07-10",29
"GLP003","OM","107001441",666,"WEIGHT","Weight","2.433","g","2.433",2.433,"g",NA,NA,"GLAND, PROSTATE",NA,NA,NA,NA,NA,NA,NA,NA,"2007-07-10",29
"GLP003","OM","107001441",667,"WEIGHT","Weight",".006","g","0.006",0.006,"g",NA,NA,"GLAND, PITUITARY",NA,NA,NA,NA,NA,NA,NA,NA,"2007-07-10",29
"GLP003","OM","107001441",668,"WEIGHT","Weight",".021","g","0.021",0.021,"g",NA,NA,"GLAND, THYROID",NA,NA,NA,NA,NA,NA,NA,NA,"2007-07-10",29
"GLP003","OM","107001441",669,"WEIGHT","Weight",".051","g","0.051",0.051,"g",NA,NA,"GLAND, ADRENAL",NA,NA,NA,"BILATERAL",NA,NA,NA,NA,"2007-07-10",29
"GLP003","OM","107001441",670,"WEIGHT","Weight",".714","g","0.714",0.714,"g",NA,NA,"SPLEEN",NA,NA,NA,NA,NA,NA,NA,NA,"2007-07-10",29
"GLP003","OM","107001441",671,"WEIGHT","Weight",".341","g","0.341",0.341,"g",NA,NA,"THYMUS",NA,NA,NA,NA,NA,NA,NA,NA,"2007-07-10",29
"GLP003","OM","107001488",672,"WEIGHT","Weight","2.096","g","2.096",2.096,"g",NA,NA,"BRAIN",NA,NA,NA,NA,NA,NA,NA,NA,"2007-07-10",29
"GLP003","OM","107001488",673,"WEIGHT","Weight","1.305","g","1.305",1.305,"g",NA,NA,"HEART",NA,NA,NA,NA,NA,NA,NA,NA,"2007-07-10",29
"GLP003","OM","107001488",674,"WEIGHT","Weight","10.249","g","10.249",10.249,"g",NA,NA,"LIVER",NA,NA,NA,NA,NA,NA,NA,NA,"2007-07-10",29
"GLP003","OM","107001488",675,"WEIGHT","Weight","2.594","g","2.594",2.594,"g",NA,NA,"KIDNEY",NA,NA,NA,"BILATERAL",NA,NA,NA,NA,"2007-07-10",29
"GLP003","OM","107001488",676,"WEIGHT","Weight","3.572","g","3.572",3.572,"g",NA,NA,"TESTIS",NA,NA,NA,"BILATERAL",NA,NA,NA,NA,"2007-07-10",29
"GLP003","OM","107001488",677,"WEIGHT","Weight","2.425","g","2.425",2.425,"g",NA,NA,"GLAND, PROSTATE",NA,NA,NA,NA,NA,NA,NA,NA,"2007-07-10",29
"GLP003","OM","107001488",678,"WEIGHT","Weight",".011","g","0.011",0.011,"g",NA,NA,"GLAND, PITUITARY",NA,NA,NA,NA,NA,NA,NA,NA,"2007-07-10",29
"GLP003","OM","107001488",679,"WEIGHT","Weight",".029","g","0.029",0.029,"g",NA,NA,"GLAND, THYROID",NA,NA,NA,NA,NA,NA,NA,NA,"2007-07-10",29
"GLP003","OM","107001488",680,"WEIGHT","Weight",".094","g","0.094",0.094,"g",NA,NA,"GLAND, ADRENAL",NA,NA,NA,"BILATERAL",NA,NA,NA,NA,"2007-07-10",29
"GLP003","OM","107001488",681,"WEIGHT","Weight",".75","g","0.75",0.75,"g",NA,NA,"SPLEEN",NA,NA,NA,NA,NA,NA,NA,NA,"2007-07-10",29
"GLP003","OM","107001488",682,"WEIGHT","Weight",".618","g","0.618",0.618,"g",NA,NA,"THYMUS",NA,NA,NA,NA,NA,NA,NA,NA,"2007-07-10",29
"GLP003","OM","107001431",683,"WEIGHT","Weight","2.227","g","2.227",2.227,"g",NA,NA,"BRAIN",NA,NA,NA,NA,NA,NA,NA,NA,"2007-07-10",29
"GLP003","OM","107001431",684,"WEIGHT","Weight",".985","g","0.985",0.985,"g",NA,NA,"HEART",NA,NA,NA,NA,NA,NA,NA,NA,"2007-07-10",29
"GLP003","OM","107001431",685,"WEIGHT","Weight","8.345","g","8.345",8.345,"g",NA,NA,"LIVER",NA,NA,NA,NA,NA,NA,NA,NA,"2007-07-10",29
"GLP003","OM","107001431",686,"WEIGHT","Weight","2.197","g","2.197",2.197,"g",NA,NA,"KIDNEY",NA,NA,NA,"BILATERAL",NA,NA,NA,NA,"2007-07-10",29
"GLP003","OM","107001431",687,"WEIGHT","Weight","3.66","g","3.66",3.66,"g",NA,NA,"TESTIS",NA,NA,NA,"BILATERAL",NA,NA,NA,NA,"2007-07-10",29
"GLP003","OM","107001431",688,"WEIGHT","Weight","1.774","g","1.774",1.774,"g",NA,NA,"GLAND, PROSTATE",NA,NA,NA,NA,NA,NA,NA,NA,"2007-07-10",29
"GLP003","OM","107001431",689,"WEIGHT","Weight",".006","g","0.006",0.006,"g",NA,NA,"GLAND, PITUITARY",NA,NA,NA,NA,NA,NA,NA,NA,"2007-07-10",29
"GLP003","OM","107001431",690,"WEIGHT","Weight",".024","g","0.024",0.024,"g",NA,NA,"GLAND, THYROID",NA,NA,NA,NA,NA,NA,NA,NA,"2007-07-10",29
"GLP003","OM","107001431",691,"WEIGHT","Weight",".06","g","0.06",0.06,"g",NA,NA,"GLAND, ADRENAL",NA,NA,NA,"BILATERAL",NA,NA,NA,NA,"2007-07-10",29
"GLP003","OM","107001431",692,"WEIGHT","Weight",".692","g","0.692",0.692,"g",NA,NA,"SPLEEN",NA,NA,NA,NA,NA,NA,NA,NA,"2007-07-10",29
"GLP003","OM","107001431",693,"WEIGHT","Weight",".426","g","0.426",0.426,"g",NA,NA,"THYMUS",NA,NA,NA,NA,NA,NA,NA,NA,"2007-07-10",29
"GLP003","OM","107001394",694,"WEIGHT","Weight","2.021","g","2.021",2.021,"g",NA,NA,"BRAIN",NA,NA,NA,NA,NA,NA,NA,NA,"2007-07-10",29
"GLP003","OM","107001394",695,"WEIGHT","Weight","1.151","g","1.151",1.151,"g",NA,NA,"HEART",NA,NA,NA,NA,NA,NA,NA,NA,"2007-07-10",29
"GLP003","OM","107001394",696,"WEIGHT","Weight","11.643","g","11.643",11.643,"g",NA,NA,"LIVER",NA,NA,NA,NA,NA,NA,NA,NA,"2007-07-10",29
"GLP003","OM","107001394",697,"WEIGHT","Weight","2.767","g","2.767",2.767,"g",NA,NA,"KIDNEY",NA,NA,NA,"BILATERAL",NA,NA,NA,NA,"2007-07-10",29
"GLP003","OM","107001394",698,"WEIGHT","Weight","2.782","g","2.782",2.782,"g",NA,NA,"TESTIS",NA,NA,NA,"BILATERAL",NA,NA,NA,NA,"2007-07-10",29
"GLP003","OM","107001394",699,"WEIGHT","Weight","3.293","g","3.293",3.293,"g",NA,NA,"GLAND, PROSTATE",NA,NA,NA,NA,NA,NA,NA,NA,"2007-07-10",29
"GLP003","OM","107001394",700,"WEIGHT","Weight",".012","g","0.012",0.012,"g",NA,NA,"GLAND, PITUITARY",NA,NA,NA,NA,NA,NA,NA,NA,"2007-07-10",29
"GLP003","OM","107001394",701,"WEIGHT","Weight",".026","g","0.026",0.026,"g",NA,NA,"GLAND, THYROID",NA,NA,NA,NA,NA,NA,NA,NA,"2007-07-10",29
"GLP003","OM","107001394",702,"WEIGHT","Weight",".078","g","0.078",0.078,"g",NA,NA,"GLAND, ADRENAL",NA,NA,NA,"BILATERAL",NA,NA,NA,NA,"2007-07-10",29
"GLP003","OM","107001394",703,"WEIGHT","Weight","1.2","g","1.2",1.2,"g",NA,NA,"SPLEEN",NA,NA,NA,NA,NA,NA,NA,NA,"2007-07-10",29
"GLP003","OM","107001394",704,"WEIGHT","Weight",".578","g","0.578",0.578,"g",NA,NA,"THYMUS",NA,NA,NA,NA,NA,NA,NA,NA,"2007-07-10",29
"GLP003","OM","107001480",705,"WEIGHT","Weight","1.998","g","1.998",1.998,"g",NA,NA,"BRAIN",NA,NA,NA,NA,NA,NA,NA,NA,"2007-07-10",29
"GLP003","OM","107001480",706,"WEIGHT","Weight","1.039","g","1.039",1.039,"g",NA,NA,"HEART",NA,NA,NA,NA,NA,NA,NA,NA,"2007-07-10",29
"GLP003","OM","107001480",707,"WEIGHT","Weight","8.564","g","8.564",8.564,"g",NA,NA,"LIVER",NA,NA,NA,NA,NA,NA,NA,NA,"2007-07-10",29
"GLP003","OM","107001480",708,"WEIGHT","Weight","2.546","g","2.546",2.546,"g",NA,NA,"KIDNEY",NA,NA,NA,"BILATERAL",NA,NA,NA,NA,"2007-07-10",29
"GLP003","OM","107001480",709,"WEIGHT","Weight","3.013","g","3.013",3.013,"g",NA,NA,"TESTIS",NA,NA,NA,"BILATERAL",NA,NA,NA,NA,"2007-07-10",29
"GLP003","OM","107001480",710,"WEIGHT","Weight","1.545","g","1.545",1.545,"g",NA,NA,"GLAND, PROSTATE",NA,NA,NA,NA,NA,NA,NA,NA,"2007-07-10",29
"GLP003","OM","107001480",711,"WEIGHT","Weight",".01","g","0.01",0.01,"g",NA,NA,"GLAND, PITUITARY",NA,NA,NA,NA,NA,NA,NA,NA,"2007-07-10",29
"GLP003","OM","107001480",712,"WEIGHT","Weight",".019","g","0.019",0.019,"g",NA,NA,"GLAND, THYROID",NA,NA,NA,NA,NA,NA,NA,NA,"2007-07-10",29
"GLP003","OM","107001480",713,"WEIGHT","Weight",".086","g","0.086",0.086,"g",NA,NA,"GLAND, ADRENAL",NA,NA,NA,"BILATERAL",NA,NA,NA,NA,"2007-07-10",29
"GLP003","OM","107001480",714,"WEIGHT","Weight",".84","g","0.84",0.84,"g",NA,NA,"SPLEEN",NA,NA,NA,NA,NA,NA,NA,NA,"2007-07-10",29
"GLP003","OM","107001480",715,"WEIGHT","Weight",".369","g","0.369",0.369,"g",NA,NA,"THYMUS",NA,NA,NA,NA,NA,NA,NA,NA,"2007-07-10",29
"GLP003","OM","107001411",716,"WEIGHT","Weight","2.135","g","2.135",2.135,"g",NA,NA,"BRAIN",NA,NA,NA,NA,NA,NA,NA,NA,"2007-07-11",30
"GLP003","OM","107001411",717,"WEIGHT","Weight","1.283","g","1.283",1.283,"g",NA,NA,"HEART",NA,NA,NA,NA,NA,NA,NA,NA,"2007-07-11",30
"GLP003","OM","107001411",718,"WEIGHT","Weight","11.364","g","11.364",11.364,"g",NA,NA,"LIVER",NA,NA,NA,NA,NA,NA,NA,NA,"2007-07-11",30
"GLP003","OM","107001411",719,"WEIGHT","Weight","3.101","g","3.101",3.101,"g",NA,NA,"KIDNEY",NA,NA,NA,"BILATERAL",NA,NA,NA,NA,"2007-07-11",30
"GLP003","OM","107001411",720,"WEIGHT","Weight","3.885","g","3.885",3.885,"g",NA,NA,"TESTIS",NA,NA,NA,"BILATERAL",NA,NA,NA,NA,"2007-07-11",30
"GLP003","OM","107001411",721,"WEIGHT","Weight","3.838","g","3.838",3.838,"g",NA,NA,"GLAND, PROSTATE",NA,NA,NA,NA,NA,NA,NA,NA,"2007-07-11",30
"GLP003","OM","107001411",722,"WEIGHT","Weight",".012","g","0.012",0.012,"g",NA,NA,"GLAND, PITUITARY",NA,NA,NA,NA,NA,NA,NA,NA,"2007-07-11",30
"GLP003","OM","107001411",723,"WEIGHT","Weight",".022","g","0.022",0.022,"g",NA,NA,"GLAND, THYROID",NA,NA,NA,NA,NA,NA,NA,NA,"2007-07-11",30
"GLP003","OM","107001411",724,"WEIGHT","Weight",".056","g","0.056",0.056,"g",NA,NA,"GLAND, ADRENAL",NA,NA,NA,"BILATERAL",NA,NA,NA,NA,"2007-07-11",30
"GLP003","OM","107001411",725,"WEIGHT","Weight",".753","g","0.753",0.753,"g",NA,NA,"SPLEEN",NA,NA,NA,NA,NA,NA,NA,NA,"2007-07-11",30
"GLP003","OM","107001411",726,"WEIGHT","Weight",".456","g","0.456",0.456,"g",NA,NA,"THYMUS",NA,NA,NA,NA,NA,NA,NA,NA,"2007-07-11",30
"GLP003","OM","107001433",727,"WEIGHT","Weight","2.15","g","2.15",2.15,"g",NA,NA,"BRAIN",NA,NA,NA,NA,NA,NA,NA,NA,"2007-07-11",30
"GLP003","OM","107001433",728,"WEIGHT","Weight",".963","g","0.963",0.963,"g",NA,NA,"HEART",NA,NA,NA,NA,NA,NA,NA,NA,"2007-07-11",30
"GLP003","OM","107001433",729,"WEIGHT","Weight","8.038","g","8.038",8.038,"g",NA,NA,"LIVER",NA,NA,NA,NA,NA,NA,NA,NA,"2007-07-11",30
"GLP003","OM","107001433",730,"WEIGHT","Weight","2.195","g","2.195",2.195,"g",NA,NA,"KIDNEY",NA,NA,NA,"BILATERAL",NA,NA,NA,NA,"2007-07-11",30
"GLP003","OM","107001433",731,"WEIGHT","Weight","3.143","g","3.143",3.143,"g",NA,NA,"TESTIS",NA,NA,NA,"BILATERAL",NA,NA,NA,NA,"2007-07-11",30
"GLP003","OM","107001433",732,"WEIGHT","Weight","1.802","g","1.802",1.802,"g",NA,NA,"GLAND, PROSTATE",NA,NA,NA,NA,NA,NA,NA,NA,"2007-07-11",30
"GLP003","OM","107001433",733,"WEIGHT","Weight",".009","g","0.009",0.009,"g",NA,NA,"GLAND, PITUITARY",NA,NA,NA,NA,NA,NA,NA,NA,"2007-07-11",30
"GLP003","OM","107001433",734,"WEIGHT","Weight",".018","g","0.018",0.018,"g",NA,NA,"GLAND, THYROID",NA,NA,NA,NA,NA,NA,NA,NA,"2007-07-11",30
"GLP003","OM","107001433",735,"WEIGHT","Weight",".051","g","0.051",0.051,"g",NA,NA,"GLAND, ADRENAL",NA,NA,NA,"BILATERAL",NA,NA,NA,NA,"2007-07-11",30
"GLP003","OM","107001433",736,"WEIGHT","Weight",".791","g","0.791",0.791,"g",NA,NA,"SPLEEN",NA,NA,NA,NA,NA,NA,NA,NA,"2007-07-11",30
"GLP003","OM","107001433",737,"WEIGHT","Weight",".298","g","0.298",0.298,"g",NA,NA,"THYMUS",NA,NA,NA,NA,NA,NA,NA,NA,"2007-07-11",30
"GLP003","OM","107001375",738,"WEIGHT","Weight","2.206","g","2.206",2.206,"g",NA,NA,"BRAIN",NA,NA,NA,NA,NA,NA,NA,NA,"2007-07-11",30
"GLP003","OM","107001375",739,"WEIGHT","Weight","1.161","g","1.161",1.161,"g",NA,NA,"HEART",NA,NA,NA,NA,NA,NA,NA,NA,"2007-07-11",30
"GLP003","OM","107001375",740,"WEIGHT","Weight","11.674","g","11.674",11.674,"g",NA,NA,"LIVER",NA,NA,NA,NA,NA,NA,NA,NA,"2007-07-11",30
"GLP003","OM","107001375",741,"WEIGHT","Weight","2.819","g","2.819",2.819,"g",NA,NA,"KIDNEY",NA,NA,NA,"BILATERAL",NA,NA,NA,NA,"2007-07-11",30
"GLP003","OM","107001375",742,"WEIGHT","Weight","3.489","g","3.489",3.489,"g",NA,NA,"TESTIS",NA,NA,NA,"BILATERAL",NA,NA,NA,NA,"2007-07-11",30
"GLP003","OM","107001375",743,"WEIGHT","Weight","2.773","g","2.773",2.773,"g",NA,NA,"GLAND, PROSTATE",NA,NA,NA,NA,NA,NA,NA,NA,"2007-07-11",30
"GLP003","OM","107001375",744,"WEIGHT","Weight",".007","g","0.007",0.007,"g",NA,NA,"GLAND, PITUITARY",NA,NA,NA,NA,NA,NA,NA,NA,"2007-07-11",30
"GLP003","OM","107001375",745,"WEIGHT","Weight",".027","g","0.027",0.027,"g",NA,NA,"GLAND, THYROID",NA,NA,NA,NA,NA,NA,NA,NA,"2007-07-11",30
"GLP003","OM","107001375",746,"WEIGHT","Weight",".064","g","0.064",0.064,"g",NA,NA,"GLAND, ADRENAL",NA,NA,NA,"BILATERAL",NA,NA,NA,NA,"2007-07-11",30
"GLP003","OM","107001375",747,"WEIGHT","Weight",".788","g","0.788",0.788,"g",NA,NA,"SPLEEN",NA,NA,NA,NA,NA,NA,NA,NA,"2007-07-11",30
"GLP003","OM","107001375",748,"WEIGHT","Weight",".461","g","0.461",0.461,"g",NA,NA,"THYMUS",NA,NA,NA,NA,NA,NA,NA,NA,"2007-07-11",30
"GLP003","OM","107001381",749,"WEIGHT","Weight","2.014","g","2.014",2.014,"g",NA,NA,"BRAIN",NA,NA,NA,NA,NA,NA,NA,NA,"2007-07-11",30
"GLP003","OM","107001381",750,"WEIGHT","Weight","1.104","g","1.104",1.104,"g",NA,NA,"HEART",NA,NA,NA,NA,NA,NA,NA,NA,"2007-07-11",30
"GLP003","OM","107001381",751,"WEIGHT","Weight","9.665","g","9.665",9.665,"g",NA,NA,"LIVER",NA,NA,NA,NA,NA,NA,NA,NA,"2007-07-11",30
"GLP003","OM","107001381",752,"WEIGHT","Weight","2.582","g","2.582",2.582,"g",NA,NA,"KIDNEY",NA,NA,NA,"BILATERAL",NA,NA,NA,NA,"2007-07-11",30
"GLP003","OM","107001381",753,"WEIGHT","Weight","3.632","g","3.632",3.632,"g",NA,NA,"TESTIS",NA,NA,NA,"BILATERAL",NA,NA,NA,NA,"2007-07-11",30
"GLP003","OM","107001381",754,"WEIGHT","Weight","2.844","g","2.844",2.844,"g",NA,NA,"GLAND, PROSTATE",NA,NA,NA,NA,NA,NA,NA,NA,"2007-07-11",30
"GLP003","OM","107001381",755,"WEIGHT","Weight",".011","g","0.011",0.011,"g",NA,NA,"GLAND, PITUITARY",NA,NA,NA,NA,NA,NA,NA,NA,"2007-07-11",30
"GLP003","OM","107001381",756,"WEIGHT","Weight",".023","g","0.023",0.023,"g",NA,NA,"GLAND, THYROID",NA,NA,NA,NA,NA,NA,NA,NA,"2007-07-11",30
"GLP003","OM","107001381",757,"WEIGHT","Weight",".071","g","0.071",0.071,"g",NA,NA,"GLAND, ADRENAL",NA,NA,NA,"BILATERAL",NA,NA,NA,NA,"2007-07-11",30
"GLP003","OM","107001381",758,"WEIGHT","Weight",".749","g","0.749",0.749,"g",NA,NA,"SPLEEN",NA,NA,NA,NA,NA,NA,NA,NA,"2007-07-11",30
"GLP003","OM","107001381",759,"WEIGHT","Weight",".281","g","0.281",0.281,"g",NA,NA,"THYMUS",NA,NA,NA,NA,NA,NA,NA,NA,"2007-07-11",30
"GLP003","OM","107001416",760,"WEIGHT","Weight","1.953","g","1.953",1.953,"g",NA,NA,"BRAIN",NA,NA,NA,NA,NA,NA,NA,NA,"2007-07-11",30
"GLP003","OM","107001416",761,"WEIGHT","Weight","1.169","g","1.169",1.169,"g",NA,NA,"HEART",NA,NA,NA,NA,NA,NA,NA,NA,"2007-07-11",30
"GLP003","OM","107001416",762,"WEIGHT","Weight","11.789","g","11.789",11.789,"g",NA,NA,"LIVER",NA,NA,NA,NA,NA,NA,NA,NA,"2007-07-11",30
"GLP003","OM","107001416",763,"WEIGHT","Weight","2.665","g","2.665",2.665,"g",NA,NA,"KIDNEY",NA,NA,NA,"BILATERAL",NA,NA,NA,NA,"2007-07-11",30
"GLP003","OM","107001416",764,"WEIGHT","Weight","3.508","g","3.508",3.508,"g",NA,NA,"TESTIS",NA,NA,NA,"BILATERAL",NA,NA,NA,NA,"2007-07-11",30
"GLP003","OM","107001416",765,"WEIGHT","Weight","2.807","g","2.807",2.807,"g",NA,NA,"GLAND, PROSTATE",NA,NA,NA,NA,NA,NA,NA,NA,"2007-07-11",30
"GLP003","OM","107001416",766,"WEIGHT","Weight",".012","g","0.012",0.012,"g",NA,NA,"GLAND, PITUITARY",NA,NA,NA,NA,NA,NA,NA,NA,"2007-07-11",30
"GLP003","OM","107001416",767,"WEIGHT","Weight",".032","g","0.032",0.032,"g",NA,NA,"GLAND, THYROID",NA,NA,NA,NA,NA,NA,NA,NA,"2007-07-11",30
"GLP003","OM","107001416",768,"WEIGHT","Weight",".057","g","0.057",0.057,"g",NA,NA,"GLAND, ADRENAL",NA,NA,NA,"BILATERAL",NA,NA,NA,NA,"2007-07-11",30
"GLP003","OM","107001416",769,"WEIGHT","Weight",".696","g","0.696",0.696,"g",NA,NA,"SPLEEN",NA,NA,NA,NA,NA,NA,NA,NA,"2007-07-11",30
"GLP003","OM","107001416",770,"WEIGHT","Weight",".409","g","0.409",0.409,"g",NA,NA,"THYMUS",NA,NA,NA,NA,NA,NA,NA,NA,"2007-07-11",30
"GLP003","OM","107001386",771,"WEIGHT","Weight","2.113","g","2.113",2.113,"g",NA,NA,"BRAIN",NA,NA,NA,NA,NA,NA,NA,NA,"2007-07-24",43
"GLP003","OM","107001386",772,"WEIGHT","Weight","1.412","g","1.412",1.412,"g",NA,NA,"HEART",NA,NA,NA,NA,NA,NA,NA,NA,"2007-07-24",43
"GLP003","OM","107001386",773,"WEIGHT","Weight","11.73","g","11.73",11.73,"g",NA,NA,"LIVER",NA,NA,NA,NA,NA,NA,NA,NA,"2007-07-24",43
"GLP003","OM","107001386",774,"WEIGHT","Weight","2.922","g","2.922",2.922,"g",NA,NA,"KIDNEY",NA,NA,NA,"BILATERAL",NA,NA,NA,NA,"2007-07-24",43
"GLP003","OM","107001386",775,"WEIGHT","Weight","3.753","g","3.753",3.753,"g",NA,NA,"TESTIS",NA,NA,NA,"BILATERAL",NA,NA,NA,NA,"2007-07-24",43
"GLP003","OM","107001386",776,"WEIGHT","Weight","3.423","g","3.423",3.423,"g",NA,NA,"GLAND, PROSTATE",NA,NA,NA,NA,NA,NA,NA,NA,"2007-07-24",43
"GLP003","OM","107001386",777,"WEIGHT","Weight",".019","g","0.019",0.019,"g",NA,NA,"GLAND, PITUITARY",NA,NA,NA,NA,NA,NA,NA,NA,"2007-07-24",43
"GLP003","OM","107001386",778,"WEIGHT","Weight",".032","g","0.032",0.032,"g",NA,NA,"GLAND, THYROID",NA,NA,NA,NA,NA,NA,NA,NA,"2007-07-24",43
"GLP003","OM","107001386",779,"WEIGHT","Weight",".071","g","0.071",0.071,"g",NA,NA,"GLAND, ADRENAL",NA,NA,NA,"BILATERAL",NA,NA,NA,NA,"2007-07-24",43
"GLP003","OM","107001386",780,"WEIGHT","Weight",".848","g","0.848",0.848,"g",NA,NA,"SPLEEN",NA,NA,NA,NA,NA,NA,NA,NA,"2007-07-24",43
"GLP003","OM","107001386",781,"WEIGHT","Weight",".329","g","0.329",0.329,"g",NA,NA,"THYMUS",NA,NA,NA,NA,NA,NA,NA,NA,"2007-07-24",43
"GLP003","OM","107001379",782,"WEIGHT","Weight","2.17","g","2.17",2.17,"g",NA,NA,"BRAIN",NA,NA,NA,NA,NA,NA,NA,NA,"2007-07-24",43
"GLP003","OM","107001379",783,"WEIGHT","Weight","1.362","g","1.362",1.362,"g",NA,NA,"HEART",NA,NA,NA,NA,NA,NA,NA,NA,"2007-07-24",43
"GLP003","OM","107001379",784,"WEIGHT","Weight","11.184","g","11.184",11.184,"g",NA,NA,"LIVER",NA,NA,NA,NA,NA,NA,NA,NA,"2007-07-24",43
"GLP003","OM","107001379",785,"WEIGHT","Weight","2.837","g","2.837",2.837,"g",NA,NA,"KIDNEY",NA,NA,NA,"BILATERAL",NA,NA,NA,NA,"2007-07-24",43
"GLP003","OM","107001379",786,"WEIGHT","Weight","3.701","g","3.701",3.701,"g",NA,NA,"TESTIS",NA,NA,NA,"BILATERAL",NA,NA,NA,NA,"2007-07-24",43
"GLP003","OM","107001379",787,"WEIGHT","Weight","3.213","g","3.213",3.213,"g",NA,NA,"GLAND, PROSTATE",NA,NA,NA,NA,NA,NA,NA,NA,"2007-07-24",43
"GLP003","OM","107001379",788,"WEIGHT","Weight",".009","g","0.009",0.009,"g",NA,NA,"GLAND, PITUITARY",NA,NA,NA,NA,NA,NA,NA,NA,"2007-07-24",43
"GLP003","OM","107001379",789,"WEIGHT","Weight",".026","g","0.026",0.026,"g",NA,NA,"GLAND, THYROID",NA,NA,NA,NA,NA,NA,NA,NA,"2007-07-24",43
"GLP003","OM","107001379",790,"WEIGHT","Weight",".064","g","0.064",0.064,"g",NA,NA,"GLAND, ADRENAL",NA,NA,NA,"BILATERAL",NA,NA,NA,NA,"2007-07-24",43
"GLP003","OM","107001379",791,"WEIGHT","Weight",".829","g","0.829",0.829,"g",NA,NA,"SPLEEN",NA,NA,NA,NA,NA,NA,NA,NA,"2007-07-24",43
"GLP003","OM","107001379",792,"WEIGHT","Weight",".486","g","0.486",0.486,"g",NA,NA,"THYMUS",NA,NA,NA,NA,NA,NA,NA,NA,"2007-07-24",43
"GLP003","OM","107001432",793,"WEIGHT","Weight","2.354","g","2.354",2.354,"g",NA,NA,"BRAIN",NA,NA,NA,NA,NA,NA,NA,NA,"2007-07-24",43
"GLP003","OM","107001432",794,"WEIGHT","Weight","1.209","g","1.209",1.209,"g",NA,NA,"HEART",NA,NA,NA,NA,NA,NA,NA,NA,"2007-07-24",43
"GLP003","OM","107001432",795,"WEIGHT","Weight","10.205","g","10.205",10.205,"g",NA,NA,"LIVER",NA,NA,NA,NA,NA,NA,NA,NA,"2007-07-24",43
"GLP003","OM","107001432",796,"WEIGHT","Weight","2.559","g","2.559",2.559,"g",NA,NA,"KIDNEY",NA,NA,NA,"BILATERAL",NA,NA,NA,NA,"2007-07-24",43
"GLP003","OM","107001432",797,"WEIGHT","Weight","3.533","g","3.533",3.533,"g",NA,NA,"TESTIS",NA,NA,NA,"BILATERAL",NA,NA,NA,NA,"2007-07-24",43
"GLP003","OM","107001432",798,"WEIGHT","Weight","2.983","g","2.983",2.983,"g",NA,NA,"GLAND, PROSTATE",NA,NA,NA,NA,NA,NA,NA,NA,"2007-07-24",43
"GLP003","OM","107001432",799,"WEIGHT","Weight",".011","g","0.011",0.011,"g",NA,NA,"GLAND, PITUITARY",NA,NA,NA,NA,NA,NA,NA,NA,"2007-07-24",43
"GLP003","OM","107001432",800,"WEIGHT","Weight",".021","g","0.021",0.021,"g",NA,NA,"GLAND, THYROID",NA,NA,NA,NA,NA,NA,NA,NA,"2007-07-24",43
"GLP003","OM","107001432",801,"WEIGHT","Weight",".05","g","0.05",0.05,"g",NA,NA,"GLAND, ADRENAL",NA,NA,NA,"BILATERAL",NA,NA,NA,NA,"2007-07-24",43
"GLP003","OM","107001432",802,"WEIGHT","Weight",".797","g","0.797",0.797,"g",NA,NA,"SPLEEN",NA,NA,NA,NA,NA,NA,NA,NA,"2007-07-24",43
"GLP003","OM","107001432",803,"WEIGHT","Weight",".348","g","0.348",0.348,"g",NA,NA,"THYMUS",NA,NA,NA,NA,NA,NA,NA,NA,"2007-07-24",43
"GLP003","OM","107001478",804,"WEIGHT","Weight","2.187","g","2.187",2.187,"g",NA,NA,"BRAIN",NA,NA,NA,NA,NA,NA,NA,NA,"2007-07-24",43
"GLP003","OM","107001478",805,"WEIGHT","Weight","1.3","g","1.3",1.3,"g",NA,NA,"HEART",NA,NA,NA,NA,NA,NA,NA,NA,"2007-07-24",43
"GLP003","OM","107001478",806,"WEIGHT","Weight","13.099","g","13.099",13.099,"g",NA,NA,"LIVER",NA,NA,NA,NA,NA,NA,NA,NA,"2007-07-24",43
"GLP003","OM","107001478",807,"WEIGHT","Weight","2.871","g","2.871",2.871,"g",NA,NA,"KIDNEY",NA,NA,NA,"BILATERAL",NA,NA,NA,NA,"2007-07-24",43
"GLP003","OM","107001478",808,"WEIGHT","Weight","3.307","g","3.307",3.307,"g",NA,NA,"TESTIS",NA,NA,NA,"BILATERAL",NA,NA,NA,NA,"2007-07-24",43
"GLP003","OM","107001478",809,"WEIGHT","Weight","2.626","g","2.626",2.626,"g",NA,NA,"GLAND, PROSTATE",NA,NA,NA,NA,NA,NA,NA,NA,"2007-07-24",43
"GLP003","OM","107001478",810,"WEIGHT","Weight",".009","g","0.009",0.009,"g",NA,NA,"GLAND, PITUITARY",NA,NA,NA,NA,NA,NA,NA,NA,"2007-07-24",43
"GLP003","OM","107001478",811,"WEIGHT","Weight",".035","g","0.035",0.035,"g",NA,NA,"GLAND, THYROID",NA,NA,NA,NA,NA,NA,NA,NA,"2007-07-24",43
"GLP003","OM","107001478",812,"WEIGHT","Weight",".063","g","0.063",0.063,"g",NA,NA,"GLAND, ADRENAL",NA,NA,NA,"BILATERAL",NA,NA,NA,NA,"2007-07-24",43
"GLP003","OM","107001478",813,"WEIGHT","Weight",".694","g","0.694",0.694,"g",NA,NA,"SPLEEN",NA,NA,NA,NA,NA,NA,NA,NA,"2007-07-24",43
"GLP003","OM","107001478",814,"WEIGHT","Weight",".491","g","0.491",0.491,"g",NA,NA,"THYMUS",NA,NA,NA,NA,NA,NA,NA,NA,"2007-07-24",43
"GLP003","OM","107001491",815,"WEIGHT","Weight","2.191","g","2.191",2.191,"g",NA,NA,"BRAIN",NA,NA,NA,NA,NA,NA,NA,NA,"2007-07-24",43
"GLP003","OM","107001491",816,"WEIGHT","Weight","1.383","g","1.383",1.383,"g",NA,NA,"HEART",NA,NA,NA,NA,NA,NA,NA,NA,"2007-07-24",43
"GLP003","OM","107001491",817,"WEIGHT","Weight","14.53","g","14.53",14.53,"g",NA,NA,"LIVER",NA,NA,NA,NA,NA,NA,NA,NA,"2007-07-24",43
"GLP003","OM","107001491",818,"WEIGHT","Weight","2.956","g","2.956",2.956,"g",NA,NA,"KIDNEY",NA,NA,NA,"BILATERAL",NA,NA,NA,NA,"2007-07-24",43
"GLP003","OM","107001491",819,"WEIGHT","Weight","3.43","g","3.43",3.43,"g",NA,NA,"TESTIS",NA,NA,NA,"BILATERAL",NA,NA,NA,NA,"2007-07-24",43
"GLP003","OM","107001491",820,"WEIGHT","Weight","2.648","g","2.648",2.648,"g",NA,NA,"GLAND, PROSTATE",NA,NA,NA,NA,NA,NA,NA,NA,"2007-07-24",43
"GLP003","OM","107001491",821,"WEIGHT","Weight",".012","g","0.012",0.012,"g",NA,NA,"GLAND, PITUITARY",NA,NA,NA,NA,NA,NA,NA,NA,"2007-07-24",43
"GLP003","OM","107001491",822,"WEIGHT","Weight",".034","g","0.034",0.034,"g",NA,NA,"GLAND, THYROID",NA,NA,NA,NA,NA,NA,NA,NA,"2007-07-24",43
"GLP003","OM","107001491",823,"WEIGHT","Weight",".064","g","0.064",0.064,"g",NA,NA,"GLAND, ADRENAL",NA,NA,NA,"BILATERAL",NA,NA,NA,NA,"2007-07-24",43
"GLP003","OM","107001491",824,"WEIGHT","Weight","1.092","g","1.092",1.092,"g",NA,NA,"SPLEEN",NA,NA,NA,NA,NA,NA,NA,NA,"2007-07-24",43
"GLP003","OM","107001491",825,"WEIGHT","Weight",".613","g","0.613",0.613,"g",NA,NA,"THYMUS",NA,NA,NA,NA,NA,NA,NA,NA,"2007-07-24",43
"GLP003","OM","107001570",826,"WEIGHT","Weight","2.039","g","2.039",2.039,"g",NA,NA,"BRAIN",NA,NA,NA,NA,NA,NA,NA,NA,"2007-07-12",29
"GLP003","OM","107001570",827,"WEIGHT","Weight",".879","g","0.879",0.879,"g",NA,NA,"HEART",NA,NA,NA,NA,NA,NA,NA,NA,"2007-07-12",29
"GLP003","OM","107001570",828,"WEIGHT","Weight","6.579","g","6.579",6.579,"g",NA,NA,"LIVER",NA,NA,NA,NA,NA,NA,NA,NA,"2007-07-12",29
"GLP003","OM","107001570",829,"WEIGHT","Weight","1.743","g","1.743",1.743,"g",NA,NA,"KIDNEY",NA,NA,NA,"BILATERAL",NA,NA,NA,NA,"2007-07-12",29
"GLP003","OM","107001570",830,"WEIGHT","Weight",".115","g","0.115",0.115,"g",NA,NA,"OVARY",NA,NA,NA,"BILATERAL",NA,NA,NA,NA,"2007-07-12",29
"GLP003","OM","107001570",831,"WEIGHT","Weight",".747","g","0.747",0.747,"g",NA,NA,"UTERUS",NA,NA,NA,NA,NA,NA,NA,NA,"2007-07-12",29
"GLP003","OM","107001570",832,"WEIGHT","Weight",".015","g","0.015",0.015,"g",NA,NA,"GLAND, PITUITARY",NA,NA,NA,NA,NA,NA,NA,NA,"2007-07-12",29
"GLP003","OM","107001570",833,"WEIGHT","Weight",".017","g","0.017",0.017,"g",NA,NA,"GLAND, THYROID",NA,NA,NA,NA,NA,NA,NA,NA,"2007-07-12",29
"GLP003","OM","107001570",834,"WEIGHT","Weight",".076","g","0.076",0.076,"g",NA,NA,"GLAND, ADRENAL",NA,NA,NA,"BILATERAL",NA,NA,NA,NA,"2007-07-12",29
"GLP003","OM","107001570",835,"WEIGHT","Weight",".505","g","0.505",0.505,"g",NA,NA,"SPLEEN",NA,NA,NA,NA,NA,NA,NA,NA,"2007-07-12",29
"GLP003","OM","107001570",836,"WEIGHT","Weight",".562","g","0.562",0.562,"g",NA,NA,"THYMUS",NA,NA,NA,NA,NA,NA,NA,NA,"2007-07-12",29
"GLP003","OM","107001618",837,"WEIGHT","Weight","1.769","g","1.769",1.769,"g",NA,NA,"BRAIN",NA,NA,NA,NA,NA,NA,NA,NA,"2007-07-12",29
"GLP003","OM","107001618",838,"WEIGHT","Weight",".725","g","0.725",0.725,"g",NA,NA,"HEART",NA,NA,NA,NA,NA,NA,NA,NA,"2007-07-12",29
"GLP003","OM","107001618",839,"WEIGHT","Weight","6.011","g","6.011",6.011,"g",NA,NA,"LIVER",NA,NA,NA,NA,NA,NA,NA,NA,"2007-07-12",29
"GLP003","OM","107001618",840,"WEIGHT","Weight","1.67","g","1.67",1.67,"g",NA,NA,"KIDNEY",NA,NA,NA,"BILATERAL",NA,NA,NA,NA,"2007-07-12",29
"GLP003","OM","107001618",841,"WEIGHT","Weight",".134","g","0.134",0.134,"g",NA,NA,"OVARY",NA,NA,NA,"BILATERAL",NA,NA,NA,NA,"2007-07-12",29
"GLP003","OM","107001618",842,"WEIGHT","Weight",".785","g","0.785",0.785,"g",NA,NA,"UTERUS",NA,NA,NA,NA,NA,NA,NA,NA,"2007-07-12",29
"GLP003","OM","107001618",843,"WEIGHT","Weight",".012","g","0.012",0.012,"g",NA,NA,"GLAND, PITUITARY",NA,NA,NA,NA,NA,NA,NA,NA,"2007-07-12",29
"GLP003","OM","107001618",844,"WEIGHT","Weight",".014","g","0.014",0.014,"g",NA,NA,"GLAND, THYROID",NA,NA,NA,NA,NA,NA,NA,NA,"2007-07-12",29
"GLP003","OM","107001618",845,"WEIGHT","Weight",".077","g","0.077",0.077,"g",NA,NA,"GLAND, ADRENAL",NA,NA,NA,"BILATERAL",NA,NA,NA,NA,"2007-07-12",29
"GLP003","OM","107001618",846,"WEIGHT","Weight",".515","g","0.515",0.515,"g",NA,NA,"SPLEEN",NA,NA,NA,NA,NA,NA,NA,NA,"2007-07-12",29
"GLP003","OM","107001618",847,"WEIGHT","Weight",".492","g","0.492",0.492,"g",NA,NA,"THYMUS",NA,NA,NA,NA,NA,NA,NA,NA,"2007-07-12",29
"GLP003","OM","107001520",848,"WEIGHT","Weight","1.94","g","1.94",1.94,"g",NA,NA,"BRAIN",NA,NA,NA,NA,NA,NA,NA,NA,"2007-07-12",29
"GLP003","OM","107001520",849,"WEIGHT","Weight",".924","g","0.924",0.924,"g",NA,NA,"HEART",NA,NA,NA,NA,NA,NA,NA,NA,"2007-07-12",29
"GLP003","OM","107001520",850,"WEIGHT","Weight","6.922","g","6.922",6.922,"g",NA,NA,"LIVER",NA,NA,NA,NA,NA,NA,NA,NA,"2007-07-12",29
"GLP003","OM","107001520",851,"WEIGHT","Weight","1.689","g","1.689",1.689,"g",NA,NA,"KIDNEY",NA,NA,NA,"BILATERAL",NA,NA,NA,NA,"2007-07-12",29
"GLP003","OM","107001520",852,"WEIGHT","Weight",".105","g","0.105",0.105,"g",NA,NA,"OVARY",NA,NA,NA,"BILATERAL",NA,NA,NA,NA,"2007-07-12",29
"GLP003","OM","107001520",853,"WEIGHT","Weight",".744","g","0.744",0.744,"g",NA,NA,"UTERUS",NA,NA,NA,NA,NA,NA,NA,NA,"2007-07-12",29
"GLP003","OM","107001520",854,"WEIGHT","Weight",".01","g","0.01",0.01,"g",NA,NA,"GLAND, PITUITARY",NA,NA,NA,NA,NA,NA,NA,NA,"2007-07-12",29
"GLP003","OM","107001520",855,"WEIGHT","Weight",".014","g","0.014",0.014,"g",NA,NA,"GLAND, THYROID",NA,NA,NA,NA,NA,NA,NA,NA,"2007-07-12",29
"GLP003","OM","107001520",856,"WEIGHT","Weight",".08","g","0.08",0.08,"g",NA,NA,"GLAND, ADRENAL",NA,NA,NA,"BILATERAL",NA,NA,NA,NA,"2007-07-12",29
"GLP003","OM","107001520",857,"WEIGHT","Weight",".687","g","0.687",0.687,"g",NA,NA,"SPLEEN",NA,NA,NA,NA,NA,NA,NA,NA,"2007-07-12",29
"GLP003","OM","107001520",858,"WEIGHT","Weight",".327","g","0.327",0.327,"g",NA,NA,"THYMUS",NA,NA,NA,NA,NA,NA,NA,NA,"2007-07-12",29
"GLP003","OM","107001553",859,"WEIGHT","Weight","1.858","g","1.858",1.858,"g",NA,NA,"BRAIN",NA,NA,NA,NA,NA,NA,NA,NA,"2007-07-12",29
"GLP003","OM","107001553",860,"WEIGHT","Weight",".791","g","0.791",0.791,"g",NA,NA,"HEART",NA,NA,NA,NA,NA,NA,NA,NA,"2007-07-12",29
"GLP003","OM","107001553",861,"WEIGHT","Weight","6.29","g","6.29",6.29,"g",NA,NA,"LIVER",NA,NA,NA,NA,NA,NA,NA,NA,"2007-07-12",29
"GLP003","OM","107001553",862,"WEIGHT","Weight","1.419","g","1.419",1.419,"g",NA,NA,"KIDNEY",NA,NA,NA,"BILATERAL",NA,NA,NA,NA,"2007-07-12",29
"GLP003","OM","107001553",863,"WEIGHT","Weight",".063","g","0.063",0.063,"g",NA,NA,"OVARY",NA,NA,NA,"BILATERAL",NA,NA,NA,NA,"2007-07-12",29
"GLP003","OM","107001553",864,"WEIGHT","Weight",".702","g","0.702",0.702,"g",NA,NA,"UTERUS",NA,NA,NA,NA,NA,NA,NA,NA,"2007-07-12",29
"GLP003","OM","107001553",865,"WEIGHT","Weight","10.385","g","10.385",10.385,"g",NA,NA,"GLAND, PITUITARY",NA,NA,NA,NA,NA,NA,NA,NA,"2007-07-12",29
"GLP003","OM","107001553",866,"WEIGHT","Weight",".015","g","0.015",0.015,"g",NA,NA,"GLAND, THYROID",NA,NA,NA,NA,NA,NA,NA,NA,"2007-07-12",29
"GLP003","OM","107001553",867,"WEIGHT","Weight",".055","g","0.055",0.055,"g",NA,NA,"GLAND, ADRENAL",NA,NA,NA,"BILATERAL",NA,NA,NA,NA,"2007-07-12",29
"GLP003","OM","107001553",868,"WEIGHT","Weight",".574","g","0.574",0.574,"g",NA,NA,"SPLEEN",NA,NA,NA,NA,NA,NA,NA,NA,"2007-07-12",29
"GLP003","OM","107001553",869,"WEIGHT","Weight",".404","g","0.404",0.404,"g",NA,NA,"THYMUS",NA,NA,NA,NA,NA,NA,NA,NA,"2007-07-12",29
"GLP003","OM","107001540",870,"WEIGHT","Weight","2.003","g","2.003",2.003,"g",NA,NA,"BRAIN",NA,NA,NA,NA,NA,NA,NA,NA,"2007-07-12",29
"GLP003","OM","107001540",871,"WEIGHT","Weight",".847","g","0.847",0.847,"g",NA,NA,"HEART",NA,NA,NA,NA,NA,NA,NA,NA,"2007-07-12",29
"GLP003","OM","107001540",872,"WEIGHT","Weight","6.556","g","6.556",6.556,"g",NA,NA,"LIVER",NA,NA,NA,NA,NA,NA,NA,NA,"2007-07-12",29
"GLP003","OM","107001540",873,"WEIGHT","Weight","1.765","g","1.765",1.765,"g",NA,NA,"KIDNEY",NA,NA,NA,"BILATERAL",NA,NA,NA,NA,"2007-07-12",29
"GLP003","OM","107001540",874,"WEIGHT","Weight",".178","g","0.178",0.178,"g",NA,NA,"OVARY",NA,NA,NA,"BILATERAL",NA,NA,NA,NA,"2007-07-12",29
"GLP003","OM","107001540",875,"WEIGHT","Weight",".574","g","0.574",0.574,"g",NA,NA,"UTERUS",NA,NA,NA,NA,NA,NA,NA,NA,"2007-07-12",29
"GLP003","OM","107001540",876,"WEIGHT","Weight",".014","g","0.014",0.014,"g",NA,NA,"GLAND, PITUITARY",NA,NA,NA,NA,NA,NA,NA,NA,"2007-07-12",29
"GLP003","OM","107001540",877,"WEIGHT","Weight",".018","g","0.018",0.018,"g",NA,NA,"GLAND, THYROID",NA,NA,NA,NA,NA,NA,NA,NA,"2007-07-12",29
"GLP003","OM","107001540",878,"WEIGHT","Weight",".072","g","0.072",0.072,"g",NA,NA,"GLAND, ADRENAL",NA,NA,NA,"BILATERAL",NA,NA,NA,NA,"2007-07-12",29
"GLP003","OM","107001540",879,"WEIGHT","Weight",".502","g","0.502",0.502,"g",NA,NA,"SPLEEN",NA,NA,NA,NA,NA,NA,NA,NA,"2007-07-12",29
"GLP003","OM","107001540",880,"WEIGHT","Weight",".339","g","0.339",0.339,"g",NA,NA,"THYMUS",NA,NA,NA,NA,NA,NA,NA,NA,"2007-07-12",29
"GLP003","OM","107001562",881,"WEIGHT","Weight","1.84","g","1.84",1.84,"g",NA,NA,"BRAIN",NA,NA,NA,NA,NA,NA,NA,NA,"2007-07-13",30
"GLP003","OM","107001562",882,"WEIGHT","Weight",".908","g","0.908",0.908,"g",NA,NA,"HEART",NA,NA,NA,NA,NA,NA,NA,NA,"2007-07-13",30
"GLP003","OM","107001562",883,"WEIGHT","Weight","6.6","g","6.6",6.6,"g",NA,NA,"LIVER",NA,NA,NA,NA,NA,NA,NA,NA,"2007-07-13",30
"GLP003","OM","107001562",884,"WEIGHT","Weight","1.589","g","1.589",1.589,"g",NA,NA,"KIDNEY",NA,NA,NA,"BILATERAL",NA,NA,NA,NA,"2007-07-13",30
"GLP003","OM","107001562",885,"WEIGHT","Weight",".077","g","0.077",0.077,"g",NA,NA,"OVARY",NA,NA,NA,"BILATERAL",NA,NA,NA,NA,"2007-07-13",30
"GLP003","OM","107001562",886,"WEIGHT","Weight",".675","g","0.675",0.675,"g",NA,NA,"UTERUS",NA,NA,NA,NA,NA,NA,NA,NA,"2007-07-13",30
"GLP003","OM","107001562",887,"WEIGHT","Weight",".009","g","0.009",0.009,"g",NA,NA,"GLAND, PITUITARY",NA,NA,NA,NA,NA,NA,NA,NA,"2007-07-13",30
"GLP003","OM","107001562",888,"WEIGHT","Weight",".009","g","0.009",0.009,"g",NA,NA,"GLAND, THYROID",NA,NA,NA,NA,NA,NA,NA,NA,"2007-07-13",30
"GLP003","OM","107001562",889,"WEIGHT","Weight",".077","g","0.077",0.077,"g",NA,NA,"GLAND, ADRENAL",NA,NA,NA,"BILATERAL",NA,NA,NA,NA,"2007-07-13",30
"GLP003","OM","107001562",890,"WEIGHT","Weight",".587","g","0.587",0.587,"g",NA,NA,"SPLEEN",NA,NA,NA,NA,NA,NA,NA,NA,"2007-07-13",30
"GLP003","OM","107001562",891,"WEIGHT","Weight",".43","g","0.43",0.43,"g",NA,NA,"THYMUS",NA,NA,NA,NA,NA,NA,NA,NA,"2007-07-13",30
"GLP003","OM","107001631",892,"WEIGHT","Weight","1.902","g","1.902",1.902,"g",NA,NA,"BRAIN",NA,NA,NA,NA,NA,NA,NA,NA,"2007-07-13",30
"GLP003","OM","107001631",893,"WEIGHT","Weight",".836","g","0.836",0.836,"g",NA,NA,"HEART",NA,NA,NA,NA,NA,NA,NA,NA,"2007-07-13",30
"GLP003","OM","107001631",894,"WEIGHT","Weight","6.306","g","6.306",6.306,"g",NA,NA,"LIVER",NA,NA,NA,NA,NA,NA,NA,NA,"2007-07-13",30
"GLP003","OM","107001631",895,"WEIGHT","Weight","1.784","g","1.784",1.784,"g",NA,NA,"KIDNEY",NA,NA,NA,"BILATERAL",NA,NA,NA,NA,"2007-07-13",30
"GLP003","OM","107001631",896,"WEIGHT","Weight",".113","g","0.113",0.113,"g",NA,NA,"OVARY",NA,NA,NA,"BILATERAL",NA,NA,NA,NA,"2007-07-13",30
"GLP003","OM","107001631",897,"WEIGHT","Weight",".648","g","0.648",0.648,"g",NA,NA,"UTERUS",NA,NA,NA,NA,NA,NA,NA,NA,"2007-07-13",30
"GLP003","OM","107001631",898,"WEIGHT","Weight",".017","g","0.017",0.017,"g",NA,NA,"GLAND, PITUITARY",NA,NA,NA,NA,NA,NA,NA,NA,"2007-07-13",30
"GLP003","OM","107001631",899,"WEIGHT","Weight",".014","g","0.014",0.014,"g",NA,NA,"GLAND, THYROID",NA,NA,NA,NA,NA,NA,NA,NA,"2007-07-13",30
"GLP003","OM","107001631",900,"WEIGHT","Weight",".019","g","0.019",0.019,"g",NA,NA,"GLAND, ADRENAL",NA,NA,NA,"BILATERAL",NA,NA,NA,NA,"2007-07-13",30
"GLP003","OM","107001631",901,"WEIGHT","Weight",".698","g","0.698",0.698,"g",NA,NA,"SPLEEN",NA,NA,NA,NA,NA,NA,NA,NA,"2007-07-13",30
"GLP003","OM","107001631",902,"WEIGHT","Weight",".406","g","0.406",0.406,"g",NA,NA,"THYMUS",NA,NA,NA,NA,NA,NA,NA,NA,"2007-07-13",30
"GLP003","OM","107001499",903,"WEIGHT","Weight","1.878","g","1.878",1.878,"g",NA,NA,"BRAIN",NA,NA,NA,NA,NA,NA,NA,NA,"2007-07-13",30
"GLP003","OM","107001499",904,"WEIGHT","Weight",".86","g","0.86",0.86,"g",NA,NA,"HEART",NA,NA,NA,NA,NA,NA,NA,NA,"2007-07-13",30
"GLP003","OM","107001499",905,"WEIGHT","Weight","6.874","g","6.874",6.874,"g",NA,NA,"LIVER",NA,NA,NA,NA,NA,NA,NA,NA,"2007-07-13",30
"GLP003","OM","107001499",906,"WEIGHT","Weight","1.781","g","1.781",1.781,"g",NA,NA,"KIDNEY",NA,NA,NA,"BILATERAL",NA,NA,NA,NA,"2007-07-13",30
"GLP003","OM","107001499",907,"WEIGHT","Weight",".161","g","0.161",0.161,"g",NA,NA,"OVARY",NA,NA,NA,"BILATERAL",NA,NA,NA,NA,"2007-07-13",30
"GLP003","OM","107001499",908,"WEIGHT","Weight",".603","g","0.603",0.603,"g",NA,NA,"UTERUS",NA,NA,NA,NA,NA,NA,NA,NA,"2007-07-13",30
"GLP003","OM","107001499",909,"WEIGHT","Weight",".013","g","0.013",0.013,"g",NA,NA,"GLAND, PITUITARY",NA,NA,NA,NA,NA,NA,NA,NA,"2007-07-13",30
"GLP003","OM","107001499",910,"WEIGHT","Weight",".025","g","0.025",0.025,"g",NA,NA,"GLAND, THYROID",NA,NA,NA,NA,NA,NA,NA,NA,"2007-07-13",30
"GLP003","OM","107001499",911,"WEIGHT","Weight",".076","g","0.076",0.076,"g",NA,NA,"GLAND, ADRENAL",NA,NA,NA,"BILATERAL",NA,NA,NA,NA,"2007-07-13",30
"GLP003","OM","107001499",912,"WEIGHT","Weight",".547","g","0.547",0.547,"g",NA,NA,"SPLEEN",NA,NA,NA,NA,NA,NA,NA,NA,"2007-07-13",30
"GLP003","OM","107001499",913,"WEIGHT","Weight",".484","g","0.484",0.484,"g",NA,NA,"THYMUS",NA,NA,NA,NA,NA,NA,NA,NA,"2007-07-13",30
"GLP003","OM","107001552",914,"WEIGHT","Weight","1.889","g","1.889",1.889,"g",NA,NA,"BRAIN",NA,NA,NA,NA,NA,NA,NA,NA,"2007-07-13",30
"GLP003","OM","107001552",915,"WEIGHT","Weight",".77","g","0.77",0.77,"g",NA,NA,"HEART",NA,NA,NA,NA,NA,NA,NA,NA,"2007-07-13",30
"GLP003","OM","107001552",916,"WEIGHT","Weight","6.07","g","6.07",6.07,"g",NA,NA,"LIVER",NA,NA,NA,NA,NA,NA,NA,NA,"2007-07-13",30
"GLP003","OM","107001552",917,"WEIGHT","Weight","1.516","g","1.516",1.516,"g",NA,NA,"KIDNEY",NA,NA,NA,"BILATERAL",NA,NA,NA,NA,"2007-07-13",30
"GLP003","OM","107001552",918,"WEIGHT","Weight",".115","g","0.115",0.115,"g",NA,NA,"OVARY",NA,NA,NA,"BILATERAL",NA,NA,NA,NA,"2007-07-13",30
"GLP003","OM","107001552",919,"WEIGHT","Weight",".601","g","0.601",0.601,"g",NA,NA,"UTERUS",NA,NA,NA,NA,NA,NA,NA,NA,"2007-07-13",30
"GLP003","OM","107001552",920,"WEIGHT","Weight",".018","g","0.018",0.018,"g",NA,NA,"GLAND, PITUITARY",NA,NA,NA,NA,NA,NA,NA,NA,"2007-07-13",30
"GLP003","OM","107001552",921,"WEIGHT","Weight",".016","g","0.016",0.016,"g",NA,NA,"GLAND, THYROID",NA,NA,NA,NA,NA,NA,NA,NA,"2007-07-13",30
"GLP003","OM","107001552",922,"WEIGHT","Weight",".08","g","0.08",0.08,"g",NA,NA,"GLAND, ADRENAL",NA,NA,NA,"BILATERAL",NA,NA,NA,NA,"2007-07-13",30
"GLP003","OM","107001552",923,"WEIGHT","Weight",".574","g","0.574",0.574,"g",NA,NA,"SPLEEN",NA,NA,NA,NA,NA,NA,NA,NA,"2007-07-13",30
"GLP003","OM","107001552",924,"WEIGHT","Weight",".475","g","0.475",0.475,"g",NA,NA,"THYMUS",NA,NA,NA,NA,NA,NA,NA,NA,"2007-07-13",30
"GLP003","OM","107001505",925,"WEIGHT","Weight","1.878","g","1.878",1.878,"g",NA,NA,"BRAIN",NA,NA,NA,NA,NA,NA,NA,NA,"2007-07-13",30
"GLP003","OM","107001505",926,"WEIGHT","Weight",".855","g","0.855",0.855,"g",NA,NA,"HEART",NA,NA,NA,NA,NA,NA,NA,NA,"2007-07-13",30
"GLP003","OM","107001505",927,"WEIGHT","Weight","6.911","g","6.911",6.911,"g",NA,NA,"LIVER",NA,NA,NA,NA,NA,NA,NA,NA,"2007-07-13",30
"GLP003","OM","107001505",928,"WEIGHT","Weight","1.613","g","1.613",1.613,"g",NA,NA,"KIDNEY",NA,NA,NA,"BILATERAL",NA,NA,NA,NA,"2007-07-13",30
"GLP003","OM","107001505",929,"WEIGHT","Weight",".097","g","0.097",0.097,"g",NA,NA,"OVARY",NA,NA,NA,"BILATERAL",NA,NA,NA,NA,"2007-07-13",30
"GLP003","OM","107001505",930,"WEIGHT","Weight",".92","g","0.92",0.92,"g",NA,NA,"UTERUS",NA,NA,NA,NA,NA,NA,NA,NA,"2007-07-13",30
"GLP003","OM","107001505",931,"WEIGHT","Weight",".013","g","0.013",0.013,"g",NA,NA,"GLAND, PITUITARY",NA,NA,NA,NA,NA,NA,NA,NA,"2007-07-13",30
"GLP003","OM","107001505",932,"WEIGHT","Weight",".013","g","0.013",0.013,"g",NA,NA,"GLAND, THYROID",NA,NA,NA,NA,NA,NA,NA,NA,"2007-07-13",30
"GLP003","OM","107001505",933,"WEIGHT","Weight",".07","g","0.07",0.07,"g",NA,NA,"GLAND, ADRENAL",NA,NA,NA,"BILATERAL",NA,NA,NA,NA,"2007-07-13",30
"GLP003","OM","107001505",934,"WEIGHT","Weight",".511","g","0.511",0.511,"g",NA,NA,"SPLEEN",NA,NA,NA,NA,NA,NA,NA,NA,"2007-07-13",30
"GLP003","OM","107001505",935,"WEIGHT","Weight",".415","g","0.415",0.415,"g",NA,NA,"THYMUS",NA,NA,NA,NA,NA,NA,NA,NA,"2007-07-13",30
"GLP003","OM","107001637",936,"WEIGHT","Weight","1.861","g","1.861",1.861,"g",NA,NA,"BRAIN",NA,NA,NA,NA,NA,NA,NA,NA,"2007-07-26",43
"GLP003","OM","107001637",937,"WEIGHT","Weight",".912","g","0.912",0.912,"g",NA,NA,"HEART",NA,NA,NA,NA,NA,NA,NA,NA,"2007-07-26",43
"GLP003","OM","107001637",938,"WEIGHT","Weight","7.417","g","7.417",7.417,"g",NA,NA,"LIVER",NA,NA,NA,NA,NA,NA,NA,NA,"2007-07-26",43
"GLP003","OM","107001637",939,"WEIGHT","Weight","1.883","g","1.883",1.883,"g",NA,NA,"KIDNEY",NA,NA,NA,"BILATERAL",NA,NA,NA,NA,"2007-07-26",43
"GLP003","OM","107001637",940,"WEIGHT","Weight",".126","g","0.126",0.126,"g",NA,NA,"OVARY",NA,NA,NA,"BILATERAL",NA,NA,NA,NA,"2007-07-26",43
"GLP003","OM","107001637",941,"WEIGHT","Weight",".702","g","0.702",0.702,"g",NA,NA,"UTERUS",NA,NA,NA,NA,NA,NA,NA,NA,"2007-07-26",43
"GLP003","OM","107001637",942,"WEIGHT","Weight",".019","g","0.019",0.019,"g",NA,NA,"GLAND, PITUITARY",NA,NA,NA,NA,NA,NA,NA,NA,"2007-07-26",43
"GLP003","OM","107001637",943,"WEIGHT","Weight",".015","g","0.015",0.015,"g",NA,NA,"GLAND, THYROID",NA,NA,NA,NA,NA,NA,NA,NA,"2007-07-26",43
"GLP003","OM","107001637",944,"WEIGHT","Weight",".085","g","0.085",0.085,"g",NA,NA,"GLAND, ADRENAL",NA,NA,NA,"BILATERAL",NA,NA,NA,NA,"2007-07-26",43
"GLP003","OM","107001637",945,"WEIGHT","Weight",".508","g","0.508",0.508,"g",NA,NA,"SPLEEN",NA,NA,NA,NA,NA,NA,NA,NA,"2007-07-26",43
"GLP003","OM","107001637",946,"WEIGHT","Weight",".336","g","0.336",0.336,"g",NA,NA,"THYMUS",NA,NA,NA,NA,NA,NA,NA,NA,"2007-07-26",43
"GLP003","OM","107001612",947,"WEIGHT","Weight","1.826","g","1.826",1.826,"g",NA,NA,"BRAIN",NA,NA,NA,NA,NA,NA,NA,NA,"2007-07-26",43
"GLP003","OM","107001612",948,"WEIGHT","Weight",".926","g","0.926",0.926,"g",NA,NA,"HEART",NA,NA,NA,NA,NA,NA,NA,NA,"2007-07-26",43
"GLP003","OM","107001612",949,"WEIGHT","Weight","7.835","g","7.835",7.835,"g",NA,NA,"LIVER",NA,NA,NA,NA,NA,NA,NA,NA,"2007-07-26",43
"GLP003","OM","107001612",950,"WEIGHT","Weight","1.736","g","1.736",1.736,"g",NA,NA,"KIDNEY",NA,NA,NA,"BILATERAL",NA,NA,NA,NA,"2007-07-26",43
"GLP003","OM","107001612",951,"WEIGHT","Weight",".115","g","0.115",0.115,"g",NA,NA,"OVARY",NA,NA,NA,"BILATERAL",NA,NA,NA,NA,"2007-07-26",43
"GLP003","OM","107001612",952,"WEIGHT","Weight",".715","g","0.715",0.715,"g",NA,NA,"UTERUS",NA,NA,NA,NA,NA,NA,NA,NA,"2007-07-26",43
"GLP003","OM","107001612",953,"WEIGHT","Weight",".014","g","0.014",0.014,"g",NA,NA,"GLAND, PITUITARY",NA,NA,NA,NA,NA,NA,NA,NA,"2007-07-26",43
"GLP003","OM","107001612",954,"WEIGHT","Weight",".016","g","0.016",0.016,"g",NA,NA,"GLAND, THYROID",NA,NA,NA,NA,NA,NA,NA,NA,"2007-07-26",43
"GLP003","OM","107001612",955,"WEIGHT","Weight",".079","g","0.079",0.079,"g",NA,NA,"GLAND, ADRENAL",NA,NA,NA,"BILATERAL",NA,NA,NA,NA,"2007-07-26",43
"GLP003","OM","107001612",956,"WEIGHT","Weight",".507","g","0.507",0.507,"g",NA,NA,"SPLEEN",NA,NA,NA,NA,NA,NA,NA,NA,"2007-07-26",43
"GLP003","OM","107001612",957,"WEIGHT","Weight",".528","g","0.528",0.528,"g",NA,NA,"THYMUS",NA,NA,NA,NA,NA,NA,NA,NA,"2007-07-26",43
"GLP003","OM","107001574",958,"WEIGHT","Weight","2.004","g","2.004",2.004,"g",NA,NA,"BRAIN",NA,NA,NA,NA,NA,NA,NA,NA,"2007-07-26",43
"GLP003","OM","107001574",959,"WEIGHT","Weight",".935","g","0.935",0.935,"g",NA,NA,"HEART",NA,NA,NA,NA,NA,NA,NA,NA,"2007-07-26",43
"GLP003","OM","107001574",960,"WEIGHT","Weight","7.329","g","7.329",7.329,"g",NA,NA,"LIVER",NA,NA,NA,NA,NA,NA,NA,NA,"2007-07-26",43
"GLP003","OM","107001574",961,"WEIGHT","Weight","1.854","g","1.854",1.854,"g",NA,NA,"KIDNEY",NA,NA,NA,"BILATERAL",NA,NA,NA,NA,"2007-07-26",43
"GLP003","OM","107001574",962,"WEIGHT","Weight",".099","g","0.099",0.099,"g",NA,NA,"OVARY",NA,NA,NA,"BILATERAL",NA,NA,NA,NA,"2007-07-26",43
"GLP003","OM","107001574",963,"WEIGHT","Weight","1.102","g","1.102",1.102,"g",NA,NA,"UTERUS",NA,NA,NA,NA,NA,NA,NA,NA,"2007-07-26",43
"GLP003","OM","107001574",964,"WEIGHT","Weight",".009","g","0.009",0.009,"g",NA,NA,"GLAND, PITUITARY",NA,NA,NA,NA,NA,NA,NA,NA,"2007-07-26",43
"GLP003","OM","107001574",965,"WEIGHT","Weight",".019","g","0.019",0.019,"g",NA,NA,"GLAND, THYROID",NA,NA,NA,NA,NA,NA,NA,NA,"2007-07-26",43
"GLP003","OM","107001574",966,"WEIGHT","Weight",".038","g","0.038",0.038,"g",NA,NA,"GLAND, ADRENAL",NA,NA,NA,"BILATERAL",NA,NA,NA,NA,"2007-07-26",43
"GLP003","OM","107001574",967,"WEIGHT","Weight",".762","g","0.762",0.762,"g",NA,NA,"SPLEEN",NA,NA,NA,NA,NA,NA,NA,NA,"2007-07-26",43
"GLP003","OM","107001574",968,"WEIGHT","Weight",".383","g","0.383",0.383,"g",NA,NA,"THYMUS",NA,NA,NA,NA,NA,NA,NA,NA,"2007-07-26",43
"GLP003","OM","107001519",969,"WEIGHT","Weight","2.12","g","2.12",2.12,"g",NA,NA,"BRAIN",NA,NA,NA,NA,NA,NA,NA,NA,"2007-07-26",43
"GLP003","OM","107001519",970,"WEIGHT","Weight","1.005","g","1.005",1.005,"g",NA,NA,"HEART",NA,NA,NA,NA,NA,NA,NA,NA,"2007-07-26",43
"GLP003","OM","107001519",971,"WEIGHT","Weight","7.67","g","7.67",7.67,"g",NA,NA,"LIVER",NA,NA,NA,NA,NA,NA,NA,NA,"2007-07-26",43
"GLP003","OM","107001519",972,"WEIGHT","Weight","1.896","g","1.896",1.896,"g",NA,NA,"KIDNEY",NA,NA,NA,"BILATERAL",NA,NA,NA,NA,"2007-07-26",43
"GLP003","OM","107001519",973,"WEIGHT","Weight",".16","g","0.16",0.16,"g",NA,NA,"OVARY",NA,NA,NA,"BILATERAL",NA,NA,NA,NA,"2007-07-26",43
"GLP003","OM","107001519",974,"WEIGHT","Weight",".681","g","0.681",0.681,"g",NA,NA,"UTERUS",NA,NA,NA,NA,NA,NA,NA,NA,"2007-07-26",43
"GLP003","OM","107001519",975,"WEIGHT","Weight",".018","g","0.018",0.018,"g",NA,NA,"GLAND, PITUITARY",NA,NA,NA,NA,NA,NA,NA,NA,"2007-07-26",43
"GLP003","OM","107001519",976,"WEIGHT","Weight",".021","g","0.021",0.021,"g",NA,NA,"GLAND, THYROID",NA,NA,NA,NA,NA,NA,NA,NA,"2007-07-26",43
"GLP003","OM","107001519",977,"WEIGHT","Weight",".101","g","0.101",0.101,"g",NA,NA,"GLAND, ADRENAL",NA,NA,NA,"BILATERAL",NA,NA,NA,NA,"2007-07-26",43
"GLP003","OM","107001519",978,"WEIGHT","Weight",".681","g","0.681",0.681,"g",NA,NA,"SPLEEN",NA,NA,NA,NA,NA,NA,NA,NA,"2007-07-26",43
"GLP003","OM","107001519",979,"WEIGHT","Weight",".519","g","0.519",0.519,"g",NA,NA,"THYMUS",NA,NA,NA,NA,NA,NA,NA,NA,"2007-07-26",43
"GLP003","OM","107001589",980,"WEIGHT","Weight","2.001","g","2.001",2.001,"g",NA,NA,"BRAIN",NA,NA,NA,NA,NA,NA,NA,NA,"2007-07-26",43
"GLP003","OM","107001589",981,"WEIGHT","Weight",".798","g","0.798",0.798,"g",NA,NA,"HEART",NA,NA,NA,NA,NA,NA,NA,NA,"2007-07-26",43
"GLP003","OM","107001589",982,"WEIGHT","Weight","6.383","g","6.383",6.383,"g",NA,NA,"LIVER",NA,NA,NA,NA,NA,NA,NA,NA,"2007-07-26",43
"GLP003","OM","107001589",983,"WEIGHT","Weight","1.532","g","1.532",1.532,"g",NA,NA,"KIDNEY",NA,NA,NA,"BILATERAL",NA,NA,NA,NA,"2007-07-26",43
"GLP003","OM","107001589",984,"WEIGHT","Weight",".094","g","0.094",0.094,"g",NA,NA,"OVARY",NA,NA,NA,"BILATERAL",NA,NA,NA,NA,"2007-07-26",43
"GLP003","OM","107001589",985,"WEIGHT","Weight",".8","g","0.8",0.8,"g",NA,NA,"UTERUS",NA,NA,NA,NA,NA,NA,NA,NA,"2007-07-26",43
"GLP003","OM","107001589",986,"WEIGHT","Weight",".014","g","0.014",0.014,"g",NA,NA,"GLAND, PITUITARY",NA,NA,NA,NA,NA,NA,NA,NA,"2007-07-26",43
"GLP003","OM","107001589",987,"WEIGHT","Weight",".013","g","0.013",0.013,"g",NA,NA,"GLAND, THYROID",NA,NA,NA,NA,NA,NA,NA,NA,"2007-07-26",43
"GLP003","OM","107001589",988,"WEIGHT","Weight",".078","g","0.078",0.078,"g",NA,NA,"GLAND, ADRENAL",NA,NA,NA,"BILATERAL",NA,NA,NA,NA,"2007-07-26",43
"GLP003","OM","107001589",989,"WEIGHT","Weight",".612","g","0.612",0.612,"g",NA,NA,"SPLEEN",NA,NA,NA,NA,NA,NA,NA,NA,"2007-07-26",43
"GLP003","OM","107001589",990,"WEIGHT","Weight",".337","g","0.337",0.337,"g",NA,NA,"THYMUS",NA,NA,NA,NA,NA,NA,NA,NA,"2007-07-26",43
"GLP003","OM","107001447",991,"WEIGHT","Weight","2.048","g","2.048",2.048,"g",NA,NA,"BRAIN",NA,NA,NA,NA,NA,NA,NA,NA,"2007-07-10",29
"GLP003","OM","107001447",992,"WEIGHT","Weight","1.263","g","1.263",1.263,"g",NA,NA,"HEART",NA,NA,NA,NA,NA,NA,NA,NA,"2007-07-10",29
"GLP003","OM","107001447",993,"WEIGHT","Weight","10.698","g","10.698",10.698,"g",NA,NA,"LIVER",NA,NA,NA,NA,NA,NA,NA,NA,"2007-07-10",29
"GLP003","OM","107001447",994,"WEIGHT","Weight","2.833","g","2.833",2.833,"g",NA,NA,"KIDNEY",NA,NA,NA,"BILATERAL",NA,NA,NA,NA,"2007-07-10",29
"GLP003","OM","107001447",995,"WEIGHT","Weight","2.692","g","2.692",2.692,"g",NA,NA,"TESTIS",NA,NA,NA,"BILATERAL",NA,NA,NA,NA,"2007-07-10",29
"GLP003","OM","107001447",996,"WEIGHT","Weight","2.218","g","2.218",2.218,"g",NA,NA,"GLAND, PROSTATE",NA,NA,NA,NA,NA,NA,NA,NA,"2007-07-10",29
"GLP003","OM","107001447",997,"WEIGHT","Weight",".006","g","0.006",0.006,"g",NA,NA,"GLAND, PITUITARY",NA,NA,NA,NA,NA,NA,NA,NA,"2007-07-10",29
"GLP003","OM","107001447",998,"WEIGHT","Weight",".022","g","0.022",0.022,"g",NA,NA,"GLAND, THYROID",NA,NA,NA,NA,NA,NA,NA,NA,"2007-07-10",29
"GLP003","OM","107001447",999,"WEIGHT","Weight",".073","g","0.073",0.073,"g",NA,NA,"GLAND, ADRENAL",NA,NA,NA,"BILATERAL",NA,NA,NA,NA,"2007-07-10",29
"GLP003","OM","107001447",1000,"WEIGHT","Weight",".923","g","0.923",0.923,"g",NA,NA,"SPLEEN",NA,NA,NA,NA,NA,NA,NA,NA,"2007-07-10",29
"GLP003","OM","107001447",1001,"WEIGHT","Weight",".459","g","0.459",0.459,"g",NA,NA,"THYMUS",NA,NA,NA,NA,NA,NA,NA,NA,"2007-07-10",29
"GLP003","OM","107001414",1002,"WEIGHT","Weight","2.105","g","2.105",2.105,"g",NA,NA,"BRAIN",NA,NA,NA,NA,NA,NA,NA,NA,"2007-07-10",29
"GLP003","OM","107001414",1003,"WEIGHT","Weight","1.012","g","1.012",1.012,"g",NA,NA,"HEART",NA,NA,NA,NA,NA,NA,NA,NA,"2007-07-10",29
"GLP003","OM","107001414",1004,"WEIGHT","Weight","9.028","g","9.028",9.028,"g",NA,NA,"LIVER",NA,NA,NA,NA,NA,NA,NA,NA,"2007-07-10",29
"GLP003","OM","107001414",1005,"WEIGHT","Weight","2.329","g","2.329",2.329,"g",NA,NA,"KIDNEY",NA,NA,NA,"BILATERAL",NA,NA,NA,NA,"2007-07-10",29
"GLP003","OM","107001414",1006,"WEIGHT","Weight","3.147","g","3.147",3.147,"g",NA,NA,"TESTIS",NA,NA,NA,"BILATERAL",NA,NA,NA,NA,"2007-07-10",29
"GLP003","OM","107001414",1007,"WEIGHT","Weight","1.654","g","1.654",1.654,"g",NA,NA,"GLAND, PROSTATE",NA,NA,NA,NA,NA,NA,NA,NA,"2007-07-10",29
"GLP003","OM","107001414",1008,"WEIGHT","Weight",".008","g","0.008",0.008,"g",NA,NA,"GLAND, PITUITARY",NA,NA,NA,NA,NA,NA,NA,NA,"2007-07-10",29
"GLP003","OM","107001414",1009,"WEIGHT","Weight",".033","g","0.033",0.033,"g",NA,NA,"GLAND, THYROID",NA,NA,NA,NA,NA,NA,NA,NA,"2007-07-10",29
"GLP003","OM","107001414",1010,"WEIGHT","Weight",".089","g","0.089",0.089,"g",NA,NA,"GLAND, ADRENAL",NA,NA,NA,"BILATERAL",NA,NA,NA,NA,"2007-07-10",29
"GLP003","OM","107001414",1011,"WEIGHT","Weight",".702","g","0.702",0.702,"g",NA,NA,"SPLEEN",NA,NA,NA,NA,NA,NA,NA,NA,"2007-07-10",29
"GLP003","OM","107001414",1012,"WEIGHT","Weight",".533","g","0.533",0.533,"g",NA,NA,"THYMUS",NA,NA,NA,NA,NA,NA,NA,NA,"2007-07-10",29
"GLP003","OM","107001400",1013,"WEIGHT","Weight","2.13","g","2.13",2.13,"g",NA,NA,"BRAIN",NA,NA,NA,NA,NA,NA,NA,NA,"2007-07-10",29
"GLP003","OM","107001400",1014,"WEIGHT","Weight","1.295","g","1.295",1.295,"g",NA,NA,"HEART",NA,NA,NA,NA,NA,NA,NA,NA,"2007-07-10",29
"GLP003","OM","107001400",1015,"WEIGHT","Weight","13.084","g","13.084",13.084,"g",NA,NA,"LIVER",NA,NA,NA,NA,NA,NA,NA,NA,"2007-07-10",29
"GLP003","OM","107001400",1016,"WEIGHT","Weight","2.723","g","2.723",2.723,"g",NA,NA,"KIDNEY",NA,NA,NA,"BILATERAL",NA,NA,NA,NA,"2007-07-10",29
"GLP003","OM","107001400",1017,"WEIGHT","Weight","3.063","g","3.063",3.063,"g",NA,NA,"TESTIS",NA,NA,NA,"BILATERAL",NA,NA,NA,NA,"2007-07-10",29
"GLP003","OM","107001400",1018,"WEIGHT","Weight","2.062","g","2.062",2.062,"g",NA,NA,"GLAND, PROSTATE",NA,NA,NA,NA,NA,NA,NA,NA,"2007-07-10",29
"GLP003","OM","107001400",1019,"WEIGHT","Weight",".01","g","0.01",0.01,"g",NA,NA,"GLAND, PITUITARY",NA,NA,NA,NA,NA,NA,NA,NA,"2007-07-10",29
"GLP003","OM","107001400",1020,"WEIGHT","Weight",".035","g","0.035",0.035,"g",NA,NA,"GLAND, THYROID",NA,NA,NA,NA,NA,NA,NA,NA,"2007-07-10",29
"GLP003","OM","107001400",1021,"WEIGHT","Weight",".079","g","0.079",0.079,"g",NA,NA,"GLAND, ADRENAL",NA,NA,NA,"BILATERAL",NA,NA,NA,NA,"2007-07-10",29
"GLP003","OM","107001400",1022,"WEIGHT","Weight",".983","g","0.983",0.983,"g",NA,NA,"SPLEEN",NA,NA,NA,NA,NA,NA,NA,NA,"2007-07-10",29
"GLP003","OM","107001400",1023,"WEIGHT","Weight",".622","g","0.622",0.622,"g",NA,NA,"THYMUS",NA,NA,NA,NA,NA,NA,NA,NA,"2007-07-10",29
"GLP003","OM","107001454",1024,"WEIGHT","Weight","2.185","g","2.185",2.185,"g",NA,NA,"BRAIN",NA,NA,NA,NA,NA,NA,NA,NA,"2007-07-10",29
"GLP003","OM","107001454",1025,"WEIGHT","Weight",".949","g","0.949",0.949,"g",NA,NA,"HEART",NA,NA,NA,NA,NA,NA,NA,NA,"2007-07-10",29
"GLP003","OM","107001454",1026,"WEIGHT","Weight","8.42","g","8.42",8.42,"g",NA,NA,"LIVER",NA,NA,NA,NA,NA,NA,NA,NA,"2007-07-10",29
"GLP003","OM","107001454",1027,"WEIGHT","Weight","2.251","g","2.251",2.251,"g",NA,NA,"KIDNEY",NA,NA,NA,"BILATERAL",NA,NA,NA,NA,"2007-07-10",29
"GLP003","OM","107001454",1028,"WEIGHT","Weight","2.781","g","2.781",2.781,"g",NA,NA,"TESTIS",NA,NA,NA,"BILATERAL",NA,NA,NA,NA,"2007-07-10",29
"GLP003","OM","107001454",1029,"WEIGHT","Weight","1.029","g","1.029",1.029,"g",NA,NA,"GLAND, PROSTATE",NA,NA,NA,NA,NA,NA,NA,NA,"2007-07-10",29
"GLP003","OM","107001454",1030,"WEIGHT","Weight",".009","g","0.009",0.009,"g",NA,NA,"GLAND, PITUITARY",NA,NA,NA,NA,NA,NA,NA,NA,"2007-07-10",29
"GLP003","OM","107001454",1031,"WEIGHT","Weight",".026","g","0.026",0.026,"g",NA,NA,"GLAND, THYROID",NA,NA,NA,NA,NA,NA,NA,NA,"2007-07-10",29
"GLP003","OM","107001454",1032,"WEIGHT","Weight",".081","g","0.081",0.081,"g",NA,NA,"GLAND, ADRENAL",NA,NA,NA,"BILATERAL",NA,NA,NA,NA,"2007-07-10",29
"GLP003","OM","107001454",1033,"WEIGHT","Weight",".73","g","0.73",0.73,"g",NA,NA,"SPLEEN",NA,NA,NA,NA,NA,NA,NA,NA,"2007-07-10",29
"GLP003","OM","107001454",1034,"WEIGHT","Weight",".487","g","0.487",0.487,"g",NA,NA,"THYMUS",NA,NA,NA,NA,NA,NA,NA,NA,"2007-07-10",29
"GLP003","OM","107001393",1035,"WEIGHT","Weight","2.16","g","2.16",2.16,"g",NA,NA,"BRAIN",NA,NA,NA,NA,NA,NA,NA,NA,"2007-07-10",29
"GLP003","OM","107001393",1036,"WEIGHT","Weight","1.232","g","1.232",1.232,"g",NA,NA,"HEART",NA,NA,NA,NA,NA,NA,NA,NA,"2007-07-10",29
"GLP003","OM","107001393",1037,"WEIGHT","Weight","11.697","g","11.697",11.697,"g",NA,NA,"LIVER",NA,NA,NA,NA,NA,NA,NA,NA,"2007-07-10",29
"GLP003","OM","107001393",1038,"WEIGHT","Weight","2.883","g","2.883",2.883,"g",NA,NA,"KIDNEY",NA,NA,NA,"BILATERAL",NA,NA,NA,NA,"2007-07-10",29
"GLP003","OM","107001393",1039,"WEIGHT","Weight","3.495","g","3.495",3.495,"g",NA,NA,"TESTIS",NA,NA,NA,"BILATERAL",NA,NA,NA,NA,"2007-07-10",29
"GLP003","OM","107001393",1040,"WEIGHT","Weight","2.664","g","2.664",2.664,"g",NA,NA,"GLAND, PROSTATE",NA,NA,NA,NA,NA,NA,NA,NA,"2007-07-10",29
"GLP003","OM","107001393",1041,"WEIGHT","Weight",".01","g","0.01",0.01,"g",NA,NA,"GLAND, PITUITARY",NA,NA,NA,NA,NA,NA,NA,NA,"2007-07-10",29
"GLP003","OM","107001393",1042,"WEIGHT","Weight",".03","g","0.03",0.03,"g",NA,NA,"GLAND, THYROID",NA,NA,NA,NA,NA,NA,NA,NA,"2007-07-10",29
"GLP003","OM","107001393",1043,"WEIGHT","Weight",".107","g","0.107",0.107,"g",NA,NA,"GLAND, ADRENAL",NA,NA,NA,"BILATERAL",NA,NA,NA,NA,"2007-07-10",29
"GLP003","OM","107001393",1044,"WEIGHT","Weight","1.068","g","1.068",1.068,"g",NA,NA,"SPLEEN",NA,NA,NA,NA,NA,NA,NA,NA,"2007-07-10",29
"GLP003","OM","107001393",1045,"WEIGHT","Weight",".79","g","0.79",0.79,"g",NA,NA,"THYMUS",NA,NA,NA,NA,NA,NA,NA,NA,"2007-07-10",29
"GLP003","OM","107001355",1046,"WEIGHT","Weight","2.105","g","2.105",2.105,"g",NA,NA,"BRAIN",NA,NA,NA,NA,NA,NA,NA,NA,"2007-07-11",30
"GLP003","OM","107001355",1047,"WEIGHT","Weight","1.202","g","1.202",1.202,"g",NA,NA,"HEART",NA,NA,NA,NA,NA,NA,NA,NA,"2007-07-11",30
"GLP003","OM","107001355",1048,"WEIGHT","Weight","10.772","g","10.772",10.772,"g",NA,NA,"LIVER",NA,NA,NA,NA,NA,NA,NA,NA,"2007-07-11",30
"GLP003","OM","107001355",1049,"WEIGHT","Weight","2.746","g","2.746",2.746,"g",NA,NA,"KIDNEY",NA,NA,NA,"BILATERAL",NA,NA,NA,NA,"2007-07-11",30
"GLP003","OM","107001355",1050,"WEIGHT","Weight","3.656","g","3.656",3.656,"g",NA,NA,"TESTIS",NA,NA,NA,"BILATERAL",NA,NA,NA,NA,"2007-07-11",30
"GLP003","OM","107001355",1051,"WEIGHT","Weight","2.117","g","2.117",2.117,"g",NA,NA,"GLAND, PROSTATE",NA,NA,NA,NA,NA,NA,NA,NA,"2007-07-11",30
"GLP003","OM","107001355",1052,"WEIGHT","Weight",".011","g","0.011",0.011,"g",NA,NA,"GLAND, PITUITARY",NA,NA,NA,NA,NA,NA,NA,NA,"2007-07-11",30
"GLP003","OM","107001355",1053,"WEIGHT","Weight",".026","g","0.026",0.026,"g",NA,NA,"GLAND, THYROID",NA,NA,NA,NA,NA,NA,NA,NA,"2007-07-11",30
"GLP003","OM","107001355",1054,"WEIGHT","Weight",".061","g","0.061",0.061,"g",NA,NA,"GLAND, ADRENAL",NA,NA,NA,"BILATERAL",NA,NA,NA,NA,"2007-07-11",30
"GLP003","OM","107001355",1055,"WEIGHT","Weight",".681","g","0.681",0.681,"g",NA,NA,"SPLEEN",NA,NA,NA,NA,NA,NA,NA,NA,"2007-07-11",30
"GLP003","OM","107001355",1056,"WEIGHT","Weight",".336","g","0.336",0.336,"g",NA,NA,"THYMUS",NA,NA,NA,NA,NA,NA,NA,NA,"2007-07-11",30
"GLP003","OM","107001426",1057,"WEIGHT","Weight","2.174","g","2.174",2.174,"g",NA,NA,"BRAIN",NA,NA,NA,NA,NA,NA,NA,NA,"2007-07-11",30
"GLP003","OM","107001426",1058,"WEIGHT","Weight","1.309","g","1.309",1.309,"g",NA,NA,"HEART",NA,NA,NA,NA,NA,NA,NA,NA,"2007-07-11",30
"GLP003","OM","107001426",1059,"WEIGHT","Weight","14.108","g","14.108",14.108,"g",NA,NA,"LIVER",NA,NA,NA,NA,NA,NA,NA,NA,"2007-07-11",30
"GLP003","OM","107001426",1060,"WEIGHT","Weight","3.089","g","3.089",3.089,"g",NA,NA,"KIDNEY",NA,NA,NA,"BILATERAL",NA,NA,NA,NA,"2007-07-11",30
"GLP003","OM","107001426",1061,"WEIGHT","Weight","3.816","g","3.816",3.816,"g",NA,NA,"TESTIS",NA,NA,NA,"BILATERAL",NA,NA,NA,NA,"2007-07-11",30
"GLP003","OM","107001426",1062,"WEIGHT","Weight","2.483","g","2.483",2.483,"g",NA,NA,"GLAND, PROSTATE",NA,NA,NA,NA,NA,NA,NA,NA,"2007-07-11",30
"GLP003","OM","107001426",1063,"WEIGHT","Weight",".01","g","0.01",0.01,"g",NA,NA,"GLAND, PITUITARY",NA,NA,NA,NA,NA,NA,NA,NA,"2007-07-11",30
"GLP003","OM","107001426",1064,"WEIGHT","Weight",".031","g","0.031",0.031,"g",NA,NA,"GLAND, THYROID",NA,NA,NA,NA,NA,NA,NA,NA,"2007-07-11",30
"GLP003","OM","107001426",1065,"WEIGHT","Weight",".078","g","0.078",0.078,"g",NA,NA,"GLAND, ADRENAL",NA,NA,NA,"BILATERAL",NA,NA,NA,NA,"2007-07-11",30
"GLP003","OM","107001426",1066,"WEIGHT","Weight","1.061","g","1.061",1.061,"g",NA,NA,"SPLEEN",NA,NA,NA,NA,NA,NA,NA,NA,"2007-07-11",30
"GLP003","OM","107001426",1067,"WEIGHT","Weight",".749","g","0.749",0.749,"g",NA,NA,"THYMUS",NA,NA,NA,NA,NA,NA,NA,NA,"2007-07-11",30
"GLP003","OM","107001424",1068,"WEIGHT","Weight","2.116","g","2.116",2.116,"g",NA,NA,"BRAIN",NA,NA,NA,NA,NA,NA,NA,NA,"2007-07-11",30
"GLP003","OM","107001424",1069,"WEIGHT","Weight","1.148","g","1.148",1.148,"g",NA,NA,"HEART",NA,NA,NA,NA,NA,NA,NA,NA,"2007-07-11",30
"GLP003","OM","107001424",1070,"WEIGHT","Weight","14.481","g","14.481",14.481,"g",NA,NA,"LIVER",NA,NA,NA,NA,NA,NA,NA,NA,"2007-07-11",30
"GLP003","OM","107001424",1071,"WEIGHT","Weight","2.587","g","2.587",2.587,"g",NA,NA,"KIDNEY",NA,NA,NA,"BILATERAL",NA,NA,NA,NA,"2007-07-11",30
"GLP003","OM","107001424",1072,"WEIGHT","Weight","3.577","g","3.577",3.577,"g",NA,NA,"TESTIS",NA,NA,NA,"BILATERAL",NA,NA,NA,NA,"2007-07-11",30
"GLP003","OM","107001424",1073,"WEIGHT","Weight","1.719","g","1.719",1.719,"g",NA,NA,"GLAND, PROSTATE",NA,NA,NA,NA,NA,NA,NA,NA,"2007-07-11",30
"GLP003","OM","107001424",1074,"WEIGHT","Weight",".01","g","0.01",0.01,"g",NA,NA,"GLAND, PITUITARY",NA,NA,NA,NA,NA,NA,NA,NA,"2007-07-11",30
"GLP003","OM","107001424",1075,"WEIGHT","Weight",".033","g","0.033",0.033,"g",NA,NA,"GLAND, THYROID",NA,NA,NA,NA,NA,NA,NA,NA,"2007-07-11",30
"GLP003","OM","107001424",1076,"WEIGHT","Weight",".075","g","0.075",0.075,"g",NA,NA,"GLAND, ADRENAL",NA,NA,NA,"BILATERAL",NA,NA,NA,NA,"2007-07-11",30
"GLP003","OM","107001424",1077,"WEIGHT","Weight",".795","g","0.795",0.795,"g",NA,NA,"SPLEEN",NA,NA,NA,NA,NA,NA,NA,NA,"2007-07-11",30
"GLP003","OM","107001424",1078,"WEIGHT","Weight",".554","g","0.554",0.554,"g",NA,NA,"THYMUS",NA,NA,NA,NA,NA,NA,NA,NA,"2007-07-11",30
"GLP003","OM","107001438",1079,"WEIGHT","Weight","2.032","g","2.032",2.032,"g",NA,NA,"BRAIN",NA,NA,NA,NA,NA,NA,NA,NA,"2007-07-11",30
"GLP003","OM","107001438",1080,"WEIGHT","Weight",".956","g","0.956",0.956,"g",NA,NA,"HEART",NA,NA,NA,NA,NA,NA,NA,NA,"2007-07-11",30
"GLP003","OM","107001438",1081,"WEIGHT","Weight","8.212","g","8.212",8.212,"g",NA,NA,"LIVER",NA,NA,NA,NA,NA,NA,NA,NA,"2007-07-11",30
"GLP003","OM","107001438",1082,"WEIGHT","Weight","2.29","g","2.29",2.29,"g",NA,NA,"KIDNEY",NA,NA,NA,"BILATERAL",NA,NA,NA,NA,"2007-07-11",30
"GLP003","OM","107001438",1083,"WEIGHT","Weight","2.976","g","2.976",2.976,"g",NA,NA,"TESTIS",NA,NA,NA,"BILATERAL",NA,NA,NA,NA,"2007-07-11",30
"GLP003","OM","107001438",1084,"WEIGHT","Weight","1.009","g","1.009",1.009,"g",NA,NA,"GLAND, PROSTATE",NA,NA,NA,NA,NA,NA,NA,NA,"2007-07-11",30
"GLP003","OM","107001438",1085,"WEIGHT","Weight",".009","g","0.009",0.009,"g",NA,NA,"GLAND, PITUITARY",NA,NA,NA,NA,NA,NA,NA,NA,"2007-07-11",30
"GLP003","OM","107001438",1086,"WEIGHT","Weight",".022","g","0.022",0.022,"g",NA,NA,"GLAND, THYROID",NA,NA,NA,NA,NA,NA,NA,NA,"2007-07-11",30
"GLP003","OM","107001438",1087,"WEIGHT","Weight",".06","g","0.06",0.06,"g",NA,NA,"GLAND, ADRENAL",NA,NA,NA,"BILATERAL",NA,NA,NA,NA,"2007-07-11",30
"GLP003","OM","107001438",1088,"WEIGHT","Weight",".9","g","0.9",0.9,"g",NA,NA,"SPLEEN",NA,NA,NA,NA,NA,NA,NA,NA,"2007-07-11",30
"GLP003","OM","107001438",1089,"WEIGHT","Weight",".471","g","0.471",0.471,"g",NA,NA,"THYMUS",NA,NA,NA,NA,NA,NA,NA,NA,"2007-07-11",30
"GLP003","OM","107001404",1090,"WEIGHT","Weight","2.127","g","2.127",2.127,"g",NA,NA,"BRAIN",NA,NA,NA,NA,NA,NA,NA,NA,"2007-07-11",30
"GLP003","OM","107001404",1091,"WEIGHT","Weight","1.336","g","1.336",1.336,"g",NA,NA,"HEART",NA,NA,NA,NA,NA,NA,NA,NA,"2007-07-11",30
"GLP003","OM","107001404",1092,"WEIGHT","Weight","12.198","g","12.198",12.198,"g",NA,NA,"LIVER",NA,NA,NA,NA,NA,NA,NA,NA,"2007-07-11",30
"GLP003","OM","107001404",1093,"WEIGHT","Weight","2.959","g","2.959",2.959,"g",NA,NA,"KIDNEY",NA,NA,NA,"BILATERAL",NA,NA,NA,NA,"2007-07-11",30
"GLP003","OM","107001404",1094,"WEIGHT","Weight","3.775","g","3.775",3.775,"g",NA,NA,"TESTIS",NA,NA,NA,"BILATERAL",NA,NA,NA,NA,"2007-07-11",30
"GLP003","OM","107001404",1095,"WEIGHT","Weight","2.534","g","2.534",2.534,"g",NA,NA,"GLAND, PROSTATE",NA,NA,NA,NA,NA,NA,NA,NA,"2007-07-11",30
"GLP003","OM","107001404",1096,"WEIGHT","Weight",".01","g","0.01",0.01,"g",NA,NA,"GLAND, PITUITARY",NA,NA,NA,NA,NA,NA,NA,NA,"2007-07-11",30
"GLP003","OM","107001404",1097,"WEIGHT","Weight",".038","g","0.038",0.038,"g",NA,NA,"GLAND, THYROID",NA,NA,NA,NA,NA,NA,NA,NA,"2007-07-11",30
"GLP003","OM","107001404",1098,"WEIGHT","Weight",".075","g","0.075",0.075,"g",NA,NA,"GLAND, ADRENAL",NA,NA,NA,"BILATERAL",NA,NA,NA,NA,"2007-07-11",30
"GLP003","OM","107001404",1099,"WEIGHT","Weight",".757","g","0.757",0.757,"g",NA,NA,"SPLEEN",NA,NA,NA,NA,NA,NA,NA,NA,"2007-07-11",30
"GLP003","OM","107001404",1100,"WEIGHT","Weight",".621","g","0.621",0.621,"g",NA,NA,"THYMUS",NA,NA,NA,NA,NA,NA,NA,NA,"2007-07-11",30
"GLP003","OM","107001482",1101,"WEIGHT","Weight","2.181","g","2.181",2.181,"g",NA,NA,"BRAIN",NA,NA,NA,NA,NA,NA,NA,NA,"2007-07-24",43
"GLP003","OM","107001482",1102,"WEIGHT","Weight","1.314","g","1.314",1.314,"g",NA,NA,"HEART",NA,NA,NA,NA,NA,NA,NA,NA,"2007-07-24",43
"GLP003","OM","107001482",1103,"WEIGHT","Weight","11.954","g","11.954",11.954,"g",NA,NA,"LIVER",NA,NA,NA,NA,NA,NA,NA,NA,"2007-07-24",43
"GLP003","OM","107001482",1104,"WEIGHT","Weight","2.974","g","2.974",2.974,"g",NA,NA,"KIDNEY",NA,NA,NA,"BILATERAL",NA,NA,NA,NA,"2007-07-24",43
"GLP003","OM","107001482",1105,"WEIGHT","Weight","3.656","g","3.656",3.656,"g",NA,NA,"TESTIS",NA,NA,NA,"BILATERAL",NA,NA,NA,NA,"2007-07-24",43
"GLP003","OM","107001482",1106,"WEIGHT","Weight","2.963","g","2.963",2.963,"g",NA,NA,"GLAND, PROSTATE",NA,NA,NA,NA,NA,NA,NA,NA,"2007-07-24",43
"GLP003","OM","107001482",1107,"WEIGHT","Weight",".011","g","0.011",0.011,"g",NA,NA,"GLAND, PITUITARY",NA,NA,NA,NA,NA,NA,NA,NA,"2007-07-24",43
"GLP003","OM","107001482",1108,"WEIGHT","Weight",".019","g","0.019",0.019,"g",NA,NA,"GLAND, THYROID",NA,NA,NA,NA,NA,NA,NA,NA,"2007-07-24",43
"GLP003","OM","107001482",1109,"WEIGHT","Weight",".07","g","0.07",0.07,"g",NA,NA,"GLAND, ADRENAL",NA,NA,NA,"BILATERAL",NA,NA,NA,NA,"2007-07-24",43
"GLP003","OM","107001482",1110,"WEIGHT","Weight",".813","g","0.813",0.813,"g",NA,NA,"SPLEEN",NA,NA,NA,NA,NA,NA,NA,NA,"2007-07-24",43
"GLP003","OM","107001482",1111,"WEIGHT","Weight",".384","g","0.384",0.384,"g",NA,NA,"THYMUS",NA,NA,NA,NA,NA,NA,NA,NA,"2007-07-24",43
"GLP003","OM","107001486",1112,"WEIGHT","Weight","2.204","g","2.204",2.204,"g",NA,NA,"BRAIN",NA,NA,NA,NA,NA,NA,NA,NA,"2007-07-24",43
"GLP003","OM","107001486",1113,"WEIGHT","Weight","1.432","g","1.432",1.432,"g",NA,NA,"HEART",NA,NA,NA,NA,NA,NA,NA,NA,"2007-07-24",43
"GLP003","OM","107001486",1114,"WEIGHT","Weight","11.431","g","11.431",11.431,"g",NA,NA,"LIVER",NA,NA,NA,NA,NA,NA,NA,NA,"2007-07-24",43
"GLP003","OM","107001486",1115,"WEIGHT","Weight","2.856","g","2.856",2.856,"g",NA,NA,"KIDNEY",NA,NA,NA,"BILATERAL",NA,NA,NA,NA,"2007-07-24",43
"GLP003","OM","107001486",1116,"WEIGHT","Weight","3.874","g","3.874",3.874,"g",NA,NA,"TESTIS",NA,NA,NA,"BILATERAL",NA,NA,NA,NA,"2007-07-24",43
"GLP003","OM","107001486",1117,"WEIGHT","Weight","2.399","g","2.399",2.399,"g",NA,NA,"GLAND, PROSTATE",NA,NA,NA,NA,NA,NA,NA,NA,"2007-07-24",43
"GLP003","OM","107001486",1118,"WEIGHT","Weight",".009","g","0.009",0.009,"g",NA,NA,"GLAND, PITUITARY",NA,NA,NA,NA,NA,NA,NA,NA,"2007-07-24",43
"GLP003","OM","107001486",1119,"WEIGHT","Weight",".036","g","0.036",0.036,"g",NA,NA,"GLAND, THYROID",NA,NA,NA,NA,NA,NA,NA,NA,"2007-07-24",43
"GLP003","OM","107001486",1120,"WEIGHT","Weight",".052","g","0.052",0.052,"g",NA,NA,"GLAND, ADRENAL",NA,NA,NA,"BILATERAL",NA,NA,NA,NA,"2007-07-24",43
"GLP003","OM","107001486",1121,"WEIGHT","Weight","1.029","g","1.029",1.029,"g",NA,NA,"SPLEEN",NA,NA,NA,NA,NA,NA,NA,NA,"2007-07-24",43
"GLP003","OM","107001486",1122,"WEIGHT","Weight",".331","g","0.331",0.331,"g",NA,NA,"THYMUS",NA,NA,NA,NA,NA,NA,NA,NA,"2007-07-24",43
"GLP003","OM","107001398",1123,"WEIGHT","Weight","2.301","g","2.301",2.301,"g",NA,NA,"BRAIN",NA,NA,NA,NA,NA,NA,NA,NA,"2007-07-24",43
"GLP003","OM","107001398",1124,"WEIGHT","Weight","1.298","g","1.298",1.298,"g",NA,NA,"HEART",NA,NA,NA,NA,NA,NA,NA,NA,"2007-07-24",43
"GLP003","OM","107001398",1125,"WEIGHT","Weight","11.249","g","11.249",11.249,"g",NA,NA,"LIVER",NA,NA,NA,NA,NA,NA,NA,NA,"2007-07-24",43
"GLP003","OM","107001398",1126,"WEIGHT","Weight","2.947","g","2.947",2.947,"g",NA,NA,"KIDNEY",NA,NA,NA,"BILATERAL",NA,NA,NA,NA,"2007-07-24",43
"GLP003","OM","107001398",1127,"WEIGHT","Weight","4.065","g","4.065",4.065,"g",NA,NA,"TESTIS",NA,NA,NA,"BILATERAL",NA,NA,NA,NA,"2007-07-24",43
"GLP003","OM","107001398",1128,"WEIGHT","Weight","2.653","g","2.653",2.653,"g",NA,NA,"GLAND, PROSTATE",NA,NA,NA,NA,NA,NA,NA,NA,"2007-07-24",43
"GLP003","OM","107001398",1129,"WEIGHT","Weight",".013","g","0.013",0.013,"g",NA,NA,"GLAND, PITUITARY",NA,NA,NA,NA,NA,NA,NA,NA,"2007-07-24",43
"GLP003","OM","107001398",1130,"WEIGHT","Weight",".026","g","0.026",0.026,"g",NA,NA,"GLAND, THYROID",NA,NA,NA,NA,NA,NA,NA,NA,"2007-07-24",43
"GLP003","OM","107001398",1131,"WEIGHT","Weight",".07","g","0.07",0.07,"g",NA,NA,"GLAND, ADRENAL",NA,NA,NA,"BILATERAL",NA,NA,NA,NA,"2007-07-24",43
"GLP003","OM","107001398",1132,"WEIGHT","Weight",".794","g","0.794",0.794,"g",NA,NA,"SPLEEN",NA,NA,NA,NA,NA,NA,NA,NA,"2007-07-24",43
"GLP003","OM","107001398",1133,"WEIGHT","Weight",".498","g","0.498",0.498,"g",NA,NA,"THYMUS",NA,NA,NA,NA,NA,NA,NA,NA,"2007-07-24",43
"GLP003","OM","107001445",1134,"WEIGHT","Weight","2.199","g","2.199",2.199,"g",NA,NA,"BRAIN",NA,NA,NA,NA,NA,NA,NA,NA,"2007-07-24",43
"GLP003","OM","107001445",1135,"WEIGHT","Weight","1.344","g","1.344",1.344,"g",NA,NA,"HEART",NA,NA,NA,NA,NA,NA,NA,NA,"2007-07-24",43
"GLP003","OM","107001445",1136,"WEIGHT","Weight","11.192","g","11.192",11.192,"g",NA,NA,"LIVER",NA,NA,NA,NA,NA,NA,NA,NA,"2007-07-24",43
"GLP003","OM","107001445",1137,"WEIGHT","Weight","2.862","g","2.862",2.862,"g",NA,NA,"KIDNEY",NA,NA,NA,"BILATERAL",NA,NA,NA,NA,"2007-07-24",43
"GLP003","OM","107001445",1138,"WEIGHT","Weight","3.17","g","3.17",3.17,"g",NA,NA,"TESTIS",NA,NA,NA,"BILATERAL",NA,NA,NA,NA,"2007-07-24",43
"GLP003","OM","107001445",1139,"WEIGHT","Weight","1.238","g","1.238",1.238,"g",NA,NA,"GLAND, PROSTATE",NA,NA,NA,NA,NA,NA,NA,NA,"2007-07-24",43
"GLP003","OM","107001445",1140,"WEIGHT","Weight",".013","g","0.013",0.013,"g",NA,NA,"GLAND, PITUITARY",NA,NA,NA,NA,NA,NA,NA,NA,"2007-07-24",43
"GLP003","OM","107001445",1141,"WEIGHT","Weight",".033","g","0.033",0.033,"g",NA,NA,"GLAND, THYROID",NA,NA,NA,NA,NA,NA,NA,NA,"2007-07-24",43
"GLP003","OM","107001445",1142,"WEIGHT","Weight",".074","g","0.074",0.074,"g",NA,NA,"GLAND, ADRENAL",NA,NA,NA,"BILATERAL",NA,NA,NA,NA,"2007-07-24",43
"GLP003","OM","107001445",1143,"WEIGHT","Weight",".782","g","0.782",0.782,"g",NA,NA,"SPLEEN",NA,NA,NA,NA,NA,NA,NA,NA,"2007-07-24",43
"GLP003","OM","107001445",1144,"WEIGHT","Weight",".659","g","0.659",0.659,"g",NA,NA,"THYMUS",NA,NA,NA,NA,NA,NA,NA,NA,"2007-07-24",43
"GLP003","OM","107001399",1145,"WEIGHT","Weight","2.118","g","2.118",2.118,"g",NA,NA,"BRAIN",NA,NA,NA,NA,NA,NA,NA,NA,"2007-07-24",43
"GLP003","OM","107001399",1146,"WEIGHT","Weight","1.3","g","1.3",1.3,"g",NA,NA,"HEART",NA,NA,NA,NA,NA,NA,NA,NA,"2007-07-24",43
"GLP003","OM","107001399",1147,"WEIGHT","Weight","10.892","g","10.892",10.892,"g",NA,NA,"LIVER",NA,NA,NA,NA,NA,NA,NA,NA,"2007-07-24",43
"GLP003","OM","107001399",1148,"WEIGHT","Weight","2.928","g","2.928",2.928,"g",NA,NA,"KIDNEY",NA,NA,NA,"BILATERAL",NA,NA,NA,NA,"2007-07-24",43
"GLP003","OM","107001399",1149,"WEIGHT","Weight","3.499","g","3.499",3.499,"g",NA,NA,"TESTIS",NA,NA,NA,"BILATERAL",NA,NA,NA,NA,"2007-07-24",43
"GLP003","OM","107001399",1150,"WEIGHT","Weight","3.187","g","3.187",3.187,"g",NA,NA,"GLAND, PROSTATE",NA,NA,NA,NA,NA,NA,NA,NA,"2007-07-24",43
"GLP003","OM","107001399",1151,"WEIGHT","Weight",".02","g","0.02",0.02,"g",NA,NA,"GLAND, PITUITARY",NA,NA,NA,NA,NA,NA,NA,NA,"2007-07-24",43
"GLP003","OM","107001399",1152,"WEIGHT","Weight",".079","g","0.079",0.079,"g",NA,NA,"GLAND, THYROID",NA,NA,NA,NA,NA,NA,NA,NA,"2007-07-24",43
"GLP003","OM","107001399",1153,"WEIGHT","Weight",".071","g","0.071",0.071,"g",NA,NA,"GLAND, ADRENAL",NA,NA,NA,"BILATERAL",NA,NA,NA,NA,"2007-07-24",43
"GLP003","OM","107001399",1154,"WEIGHT","Weight",".831","g","0.831",0.831,"g",NA,NA,"SPLEEN",NA,NA,NA,NA,NA,NA,NA,NA,"2007-07-24",43
"GLP003","OM","107001399",1155,"WEIGHT","Weight",".392","g","0.392",0.392,"g",NA,NA,"THYMUS",NA,NA,NA,NA,NA,NA,NA,NA,"2007-07-24",43
"GLP003","OM","107001583",1156,"WEIGHT","Weight","1.919","g","1.919",1.919,"g",NA,NA,"BRAIN",NA,NA,NA,NA,NA,NA,NA,NA,"2007-07-12",29
"GLP003","OM","107001583",1157,"WEIGHT","Weight",".978","g","0.978",0.978,"g",NA,NA,"HEART",NA,NA,NA,NA,NA,NA,NA,NA,"2007-07-12",29
"GLP003","OM","107001583",1158,"WEIGHT","Weight","6.828","g","6.828",6.828,"g",NA,NA,"LIVER",NA,NA,NA,NA,NA,NA,NA,NA,"2007-07-12",29
"GLP003","OM","107001583",1159,"WEIGHT","Weight","1.919","g","1.919",1.919,"g",NA,NA,"KIDNEY",NA,NA,NA,"BILATERAL",NA,NA,NA,NA,"2007-07-12",29
"GLP003","OM","107001583",1160,"WEIGHT","Weight",".078","g","0.078",0.078,"g",NA,NA,"OVARY",NA,NA,NA,"BILATERAL",NA,NA,NA,NA,"2007-07-12",29
"GLP003","OM","107001583",1161,"WEIGHT","Weight","1.064","g","1.064",1.064,"g",NA,NA,"UTERUS",NA,NA,NA,NA,NA,NA,NA,NA,"2007-07-12",29
"GLP003","OM","107001583",1162,"WEIGHT","Weight",".012","g","0.012",0.012,"g",NA,NA,"GLAND, PITUITARY",NA,NA,NA,NA,NA,NA,NA,NA,"2007-07-12",29
"GLP003","OM","107001583",1163,"WEIGHT","Weight",".017","g","0.017",0.017,"g",NA,NA,"GLAND, THYROID",NA,NA,NA,NA,NA,NA,NA,NA,"2007-07-12",29
"GLP003","OM","107001583",1164,"WEIGHT","Weight",".064","g","0.064",0.064,"g",NA,NA,"GLAND, ADRENAL",NA,NA,NA,"BILATERAL",NA,NA,NA,NA,"2007-07-12",29
"GLP003","OM","107001583",1165,"WEIGHT","Weight",".69","g","0.69",0.69,"g",NA,NA,"SPLEEN",NA,NA,NA,NA,NA,NA,NA,NA,"2007-07-12",29
"GLP003","OM","107001583",1166,"WEIGHT","Weight",".44","g","0.44",0.44,"g",NA,NA,"THYMUS",NA,NA,NA,NA,NA,NA,NA,NA,"2007-07-12",29
"GLP003","OM","107001517",1167,"WEIGHT","Weight","2.008","g","2.008",2.008,"g",NA,NA,"BRAIN",NA,NA,NA,NA,NA,NA,NA,NA,"2007-07-12",29
"GLP003","OM","107001517",1168,"WEIGHT","Weight",".888","g","0.888",0.888,"g",NA,NA,"HEART",NA,NA,NA,NA,NA,NA,NA,NA,"2007-07-12",29
"GLP003","OM","107001517",1169,"WEIGHT","Weight","8.045","g","8.045",8.045,"g",NA,NA,"LIVER",NA,NA,NA,NA,NA,NA,NA,NA,"2007-07-12",29
"GLP003","OM","107001517",1170,"WEIGHT","Weight","1.879","g","1.879",1.879,"g",NA,NA,"KIDNEY",NA,NA,NA,"BILATERAL",NA,NA,NA,NA,"2007-07-12",29
"GLP003","OM","107001517",1171,"WEIGHT","Weight",".148","g","0.148",0.148,"g",NA,NA,"OVARY",NA,NA,NA,"BILATERAL",NA,NA,NA,NA,"2007-07-12",29
"GLP003","OM","107001517",1172,"WEIGHT","Weight",".661","g","0.661",0.661,"g",NA,NA,"UTERUS",NA,NA,NA,NA,NA,NA,NA,NA,"2007-07-12",29
"GLP003","OM","107001517",1173,"WEIGHT","Weight",".014","g","0.014",0.014,"g",NA,NA,"GLAND, PITUITARY",NA,NA,NA,NA,NA,NA,NA,NA,"2007-07-12",29
"GLP003","OM","107001517",1174,"WEIGHT","Weight",".021","g","0.021",0.021,"g",NA,NA,"GLAND, THYROID",NA,NA,NA,NA,NA,NA,NA,NA,"2007-07-12",29
"GLP003","OM","107001517",1175,"WEIGHT","Weight",".091","g","0.091",0.091,"g",NA,NA,"GLAND, ADRENAL",NA,NA,NA,"BILATERAL",NA,NA,NA,NA,"2007-07-12",29
"GLP003","OM","107001517",1176,"WEIGHT","Weight",".567","g","0.567",0.567,"g",NA,NA,"SPLEEN",NA,NA,NA,NA,NA,NA,NA,NA,"2007-07-12",29
"GLP003","OM","107001517",1177,"WEIGHT","Weight",".377","g","0.377",0.377,"g",NA,NA,"THYMUS",NA,NA,NA,NA,NA,NA,NA,NA,"2007-07-12",29
"GLP003","OM","107001545",1178,"WEIGHT","Weight","1.77","g","1.77",1.77,"g",NA,NA,"BRAIN",NA,NA,NA,NA,NA,NA,NA,NA,"2007-07-12",29
"GLP003","OM","107001545",1179,"WEIGHT","Weight",".929","g","0.929",0.929,"g",NA,NA,"HEART",NA,NA,NA,NA,NA,NA,NA,NA,"2007-07-12",29
"GLP003","OM","107001545",1180,"WEIGHT","Weight","7.329","g","7.329",7.329,"g",NA,NA,"LIVER",NA,NA,NA,NA,NA,NA,NA,NA,"2007-07-12",29
"GLP003","OM","107001545",1181,"WEIGHT","Weight","1.703","g","1.703",1.703,"g",NA,NA,"KIDNEY",NA,NA,NA,"BILATERAL",NA,NA,NA,NA,"2007-07-12",29
"GLP003","OM","107001545",1182,"WEIGHT","Weight",".086","g","0.086",0.086,"g",NA,NA,"OVARY",NA,NA,NA,"BILATERAL",NA,NA,NA,NA,"2007-07-12",29
"GLP003","OM","107001545",1183,"WEIGHT","Weight",".473","g","0.473",0.473,"g",NA,NA,"UTERUS",NA,NA,NA,NA,NA,NA,NA,NA,"2007-07-12",29
"GLP003","OM","107001545",1184,"WEIGHT","Weight",".016","g","0.016",0.016,"g",NA,NA,"GLAND, PITUITARY",NA,NA,NA,NA,NA,NA,NA,NA,"2007-07-12",29
"GLP003","OM","107001545",1185,"WEIGHT","Weight",".02","g","0.02",0.02,"g",NA,NA,"GLAND, THYROID",NA,NA,NA,NA,NA,NA,NA,NA,"2007-07-12",29
"GLP003","OM","107001545",1186,"WEIGHT","Weight",".055","g","0.055",0.055,"g",NA,NA,"GLAND, ADRENAL",NA,NA,NA,"BILATERAL",NA,NA,NA,NA,"2007-07-12",29
"GLP003","OM","107001545",1187,"WEIGHT","Weight",".573","g","0.573",0.573,"g",NA,NA,"SPLEEN",NA,NA,NA,NA,NA,NA,NA,NA,"2007-07-12",29
"GLP003","OM","107001545",1188,"WEIGHT","Weight",".458","g","0.458",0.458,"g",NA,NA,"THYMUS",NA,NA,NA,NA,NA,NA,NA,NA,"2007-07-12",29
"GLP003","OM","107001547",1189,"WEIGHT","Weight","1.935","g","1.935",1.935,"g",NA,NA,"BRAIN",NA,NA,NA,NA,NA,NA,NA,NA,"2007-07-12",29
"GLP003","OM","107001547",1190,"WEIGHT","Weight",".872","g","0.872",0.872,"g",NA,NA,"HEART",NA,NA,NA,NA,NA,NA,NA,NA,"2007-07-12",29
"GLP003","OM","107001547",1191,"WEIGHT","Weight","7.494","g","7.494",7.494,"g",NA,NA,"LIVER",NA,NA,NA,NA,NA,NA,NA,NA,"2007-07-12",29
"GLP003","OM","107001547",1192,"WEIGHT","Weight","1.661","g","1.661",1.661,"g",NA,NA,"KIDNEY",NA,NA,NA,"BILATERAL",NA,NA,NA,NA,"2007-07-12",29
"GLP003","OM","107001547",1193,"WEIGHT","Weight",".156","g","0.156",0.156,"g",NA,NA,"OVARY",NA,NA,NA,"BILATERAL",NA,NA,NA,NA,"2007-07-12",29
"GLP003","OM","107001547",1194,"WEIGHT","Weight",".417","g","0.417",0.417,"g",NA,NA,"UTERUS",NA,NA,NA,NA,NA,NA,NA,NA,"2007-07-12",29
"GLP003","OM","107001547",1195,"WEIGHT","Weight",".017","g","0.017",0.017,"g",NA,NA,"GLAND, PITUITARY",NA,NA,NA,NA,NA,NA,NA,NA,"2007-07-12",29
"GLP003","OM","107001547",1196,"WEIGHT","Weight",".018","g","0.018",0.018,"g",NA,NA,"GLAND, THYROID",NA,NA,NA,NA,NA,NA,NA,NA,"2007-07-12",29
"GLP003","OM","107001547",1197,"WEIGHT","Weight",".096","g","0.096",0.096,"g",NA,NA,"GLAND, ADRENAL",NA,NA,NA,"BILATERAL",NA,NA,NA,NA,"2007-07-12",29
"GLP003","OM","107001547",1198,"WEIGHT","Weight",".665","g","0.665",0.665,"g",NA,NA,"SPLEEN",NA,NA,NA,NA,NA,NA,NA,NA,"2007-07-12",29
"GLP003","OM","107001547",1199,"WEIGHT","Weight",".375","g","0.375",0.375,"g",NA,NA,"THYMUS",NA,NA,NA,NA,NA,NA,NA,NA,"2007-07-12",29
"GLP003","OM","107001627",1200,"WEIGHT","Weight","1.934","g","1.934",1.934,"g",NA,NA,"BRAIN",NA,NA,NA,NA,NA,NA,NA,NA,"2007-07-12",29
"GLP003","OM","107001627",1201,"WEIGHT","Weight","1.009","g","1.009",1.009,"g",NA,NA,"HEART",NA,NA,NA,NA,NA,NA,NA,NA,"2007-07-12",29
"GLP003","OM","107001627",1202,"WEIGHT","Weight","8.648","g","8.648",8.648,"g",NA,NA,"LIVER",NA,NA,NA,NA,NA,NA,NA,NA,"2007-07-12",29
"GLP003","OM","107001627",1203,"WEIGHT","Weight","1.57","g","1.57",1.57,"g",NA,NA,"KIDNEY",NA,NA,NA,"BILATERAL",NA,NA,NA,NA,"2007-07-12",29
"GLP003","OM","107001627",1204,"WEIGHT","Weight",".107","g","0.107",0.107,"g",NA,NA,"OVARY",NA,NA,NA,"BILATERAL",NA,NA,NA,NA,"2007-07-12",29
"GLP003","OM","107001627",1205,"WEIGHT","Weight",".572","g","0.572",0.572,"g",NA,NA,"UTERUS",NA,NA,NA,NA,NA,NA,NA,NA,"2007-07-12",29
"GLP003","OM","107001627",1206,"WEIGHT","Weight",".014","g","0.014",0.014,"g",NA,NA,"GLAND, PITUITARY",NA,NA,NA,NA,NA,NA,NA,NA,"2007-07-12",29
"GLP003","OM","107001627",1207,"WEIGHT","Weight",".029","g","0.029",0.029,"g",NA,NA,"GLAND, THYROID",NA,NA,NA,NA,NA,NA,NA,NA,"2007-07-12",29
"GLP003","OM","107001627",1208,"WEIGHT","Weight",".068","g","0.068",0.068,"g",NA,NA,"GLAND, ADRENAL",NA,NA,NA,"BILATERAL",NA,NA,NA,NA,"2007-07-12",29
"GLP003","OM","107001627",1209,"WEIGHT","Weight",".586","g","0.586",0.586,"g",NA,NA,"SPLEEN",NA,NA,NA,NA,NA,NA,NA,NA,"2007-07-12",29
"GLP003","OM","107001627",1210,"WEIGHT","Weight",".396","g","0.396",0.396,"g",NA,NA,"THYMUS",NA,NA,NA,NA,NA,NA,NA,NA,"2007-07-12",29
"GLP003","OM","107001565",1211,"WEIGHT","Weight","1.903","g","1.903",1.903,"g",NA,NA,"BRAIN",NA,NA,NA,NA,NA,NA,NA,NA,"2007-07-13",30
"GLP003","OM","107001565",1212,"WEIGHT","Weight",".762","g","0.762",0.762,"g",NA,NA,"HEART",NA,NA,NA,NA,NA,NA,NA,NA,"2007-07-13",30
"GLP003","OM","107001565",1213,"WEIGHT","Weight","5.744","g","5.744",5.744,"g",NA,NA,"LIVER",NA,NA,NA,NA,NA,NA,NA,NA,"2007-07-13",30
"GLP003","OM","107001565",1214,"WEIGHT","Weight","1.686","g","1.686",1.686,"g",NA,NA,"KIDNEY",NA,NA,NA,"BILATERAL",NA,NA,NA,NA,"2007-07-13",30
"GLP003","OM","107001565",1215,"WEIGHT","Weight",".117","g","0.117",0.117,"g",NA,NA,"OVARY",NA,NA,NA,"BILATERAL",NA,NA,NA,NA,"2007-07-13",30
"GLP003","OM","107001565",1216,"WEIGHT","Weight",".662","g","0.662",0.662,"g",NA,NA,"UTERUS",NA,NA,NA,NA,NA,NA,NA,NA,"2007-07-13",30
"GLP003","OM","107001565",1217,"WEIGHT","Weight",".016","g","0.016",0.016,"g",NA,NA,"GLAND, PITUITARY",NA,NA,NA,NA,NA,NA,NA,NA,"2007-07-13",30
"GLP003","OM","107001565",1218,"WEIGHT","Weight",".028","g","0.028",0.028,"g",NA,NA,"GLAND, THYROID",NA,NA,NA,NA,NA,NA,NA,NA,"2007-07-13",30
"GLP003","OM","107001565",1219,"WEIGHT","Weight",".059","g","0.059",0.059,"g",NA,NA,"GLAND, ADRENAL",NA,NA,NA,"BILATERAL",NA,NA,NA,NA,"2007-07-13",30
"GLP003","OM","107001565",1220,"WEIGHT","Weight",".483","g","0.483",0.483,"g",NA,NA,"SPLEEN",NA,NA,NA,NA,NA,NA,NA,NA,"2007-07-13",30
"GLP003","OM","107001565",1221,"WEIGHT","Weight",".346","g","0.346",0.346,"g",NA,NA,"THYMUS",NA,NA,NA,NA,NA,NA,NA,NA,"2007-07-13",30
"GLP003","OM","107001643",1222,"WEIGHT","Weight","2.021","g","2.021",2.021,"g",NA,NA,"BRAIN",NA,NA,NA,NA,NA,NA,NA,NA,"2007-07-13",30
"GLP003","OM","107001643",1223,"WEIGHT","Weight",".877","g","0.877",0.877,"g",NA,NA,"HEART",NA,NA,NA,NA,NA,NA,NA,NA,"2007-07-13",30
"GLP003","OM","107001643",1224,"WEIGHT","Weight","9.41","g","9.41",9.41,"g",NA,NA,"LIVER",NA,NA,NA,NA,NA,NA,NA,NA,"2007-07-13",30
"GLP003","OM","107001643",1225,"WEIGHT","Weight","1.807","g","1.807",1.807,"g",NA,NA,"KIDNEY",NA,NA,NA,"BILATERAL",NA,NA,NA,NA,"2007-07-13",30
"GLP003","OM","107001643",1226,"WEIGHT","Weight",".081","g","0.081",0.081,"g",NA,NA,"OVARY",NA,NA,NA,"BILATERAL",NA,NA,NA,NA,"2007-07-13",30
"GLP003","OM","107001643",1227,"WEIGHT","Weight",".804","g","0.804",0.804,"g",NA,NA,"UTERUS",NA,NA,NA,NA,NA,NA,NA,NA,"2007-07-13",30
"GLP003","OM","107001643",1228,"WEIGHT","Weight",".013","g","0.013",0.013,"g",NA,NA,"GLAND, PITUITARY",NA,NA,NA,NA,NA,NA,NA,NA,"2007-07-13",30
"GLP003","OM","107001643",1229,"WEIGHT","Weight",".027","g","0.027",0.027,"g",NA,NA,"GLAND, THYROID",NA,NA,NA,NA,NA,NA,NA,NA,"2007-07-13",30
"GLP003","OM","107001643",1230,"WEIGHT","Weight",".082","g","0.082",0.082,"g",NA,NA,"GLAND, ADRENAL",NA,NA,NA,"BILATERAL",NA,NA,NA,NA,"2007-07-13",30
"GLP003","OM","107001643",1231,"WEIGHT","Weight",".501","g","0.501",0.501,"g",NA,NA,"SPLEEN",NA,NA,NA,NA,NA,NA,NA,NA,"2007-07-13",30
"GLP003","OM","107001643",1232,"WEIGHT","Weight",".464","g","0.464",0.464,"g",NA,NA,"THYMUS",NA,NA,NA,NA,NA,NA,NA,NA,"2007-07-13",30
"GLP003","OM","107001515",1233,"WEIGHT","Weight","1.598","g","1.598",1.598,"g",NA,NA,"BRAIN",NA,NA,NA,NA,NA,NA,NA,NA,"2007-07-13",30
"GLP003","OM","107001515",1234,"WEIGHT","Weight",".902","g","0.902",0.902,"g",NA,NA,"HEART",NA,NA,NA,NA,NA,NA,NA,NA,"2007-07-13",30
"GLP003","OM","107001515",1235,"WEIGHT","Weight","6.562","g","6.562",6.562,"g",NA,NA,"LIVER",NA,NA,NA,NA,NA,NA,NA,NA,"2007-07-13",30
"GLP003","OM","107001515",1236,"WEIGHT","Weight","1.534","g","1.534",1.534,"g",NA,NA,"KIDNEY",NA,NA,NA,"BILATERAL",NA,NA,NA,NA,"2007-07-13",30
"GLP003","OM","107001515",1237,"WEIGHT","Weight",".092","g","0.092",0.092,"g",NA,NA,"OVARY",NA,NA,NA,"BILATERAL",NA,NA,NA,NA,"2007-07-13",30
"GLP003","OM","107001515",1238,"WEIGHT","Weight",".9","g","0.9",0.9,"g",NA,NA,"UTERUS",NA,NA,NA,NA,NA,NA,NA,NA,"2007-07-13",30
"GLP003","OM","107001515",1239,"WEIGHT","Weight",".012","g","0.012",0.012,"g",NA,NA,"GLAND, PITUITARY",NA,NA,NA,NA,NA,NA,NA,NA,"2007-07-13",30
"GLP003","OM","107001515",1240,"WEIGHT","Weight",".028","g","0.028",0.028,"g",NA,NA,"GLAND, THYROID",NA,NA,NA,NA,NA,NA,NA,NA,"2007-07-13",30
"GLP003","OM","107001515",1241,"WEIGHT","Weight",".058","g","0.058",0.058,"g",NA,NA,"GLAND, ADRENAL",NA,NA,NA,"BILATERAL",NA,NA,NA,NA,"2007-07-13",30
"GLP003","OM","107001515",1242,"WEIGHT","Weight",".605","g","0.605",0.605,"g",NA,NA,"SPLEEN",NA,NA,NA,NA,NA,NA,NA,NA,"2007-07-13",30
"GLP003","OM","107001515",1243,"WEIGHT","Weight",".46","g","0.46",0.46,"g",NA,NA,"THYMUS",NA,NA,NA,NA,NA,NA,NA,NA,"2007-07-13",30
"GLP003","OM","107001521",1244,"WEIGHT","Weight","1.887","g","1.887",1.887,"g",NA,NA,"BRAIN",NA,NA,NA,NA,NA,NA,NA,NA,"2007-07-13",30
"GLP003","OM","107001521",1245,"WEIGHT","Weight",".764","g","0.764",0.764,"g",NA,NA,"HEART",NA,NA,NA,NA,NA,NA,NA,NA,"2007-07-13",30
"GLP003","OM","107001521",1246,"WEIGHT","Weight","6.262","g","6.262",6.262,"g",NA,NA,"LIVER",NA,NA,NA,NA,NA,NA,NA,NA,"2007-07-13",30
"GLP003","OM","107001521",1247,"WEIGHT","Weight","1.605","g","1.605",1.605,"g",NA,NA,"KIDNEY",NA,NA,NA,"BILATERAL",NA,NA,NA,NA,"2007-07-13",30
"GLP003","OM","107001521",1248,"WEIGHT","Weight",".158","g","0.158",0.158,"g",NA,NA,"OVARY",NA,NA,NA,"BILATERAL",NA,NA,NA,NA,"2007-07-13",30
"GLP003","OM","107001521",1249,"WEIGHT","Weight",".526","g","0.526",0.526,"g",NA,NA,"UTERUS",NA,NA,NA,NA,NA,NA,NA,NA,"2007-07-13",30
"GLP003","OM","107001521",1250,"WEIGHT","Weight",".01","g","0.01",0.01,"g",NA,NA,"GLAND, PITUITARY",NA,NA,NA,NA,NA,NA,NA,NA,"2007-07-13",30
"GLP003","OM","107001521",1251,"WEIGHT","Weight",".021","g","0.021",0.021,"g",NA,NA,"GLAND, THYROID",NA,NA,NA,NA,NA,NA,NA,NA,"2007-07-13",30
"GLP003","OM","107001521",1252,"WEIGHT","Weight",".088","g","0.088",0.088,"g",NA,NA,"GLAND, ADRENAL",NA,NA,NA,"BILATERAL",NA,NA,NA,NA,"2007-07-13",30
"GLP003","OM","107001521",1253,"WEIGHT","Weight",".43","g","0.43",0.43,"g",NA,NA,"SPLEEN",NA,NA,NA,NA,NA,NA,NA,NA,"2007-07-13",30
"GLP003","OM","107001521",1254,"WEIGHT","Weight",".337","g","0.337",0.337,"g",NA,NA,"THYMUS",NA,NA,NA,NA,NA,NA,NA,NA,"2007-07-13",30
"GLP003","OM","107001508",1255,"WEIGHT","Weight","2.017","g","2.017",2.017,"g",NA,NA,"BRAIN",NA,NA,NA,NA,NA,NA,NA,NA,"2007-07-13",30
"GLP003","OM","107001508",1256,"WEIGHT","Weight",".875","g","0.875",0.875,"g",NA,NA,"HEART",NA,NA,NA,NA,NA,NA,NA,NA,"2007-07-13",30
"GLP003","OM","107001508",1257,"WEIGHT","Weight","7.942","g","7.942",7.942,"g",NA,NA,"LIVER",NA,NA,NA,NA,NA,NA,NA,NA,"2007-07-13",30
"GLP003","OM","107001508",1258,"WEIGHT","Weight","1.816","g","1.816",1.816,"g",NA,NA,"KIDNEY",NA,NA,NA,"BILATERAL",NA,NA,NA,NA,"2007-07-13",30
"GLP003","OM","107001508",1259,"WEIGHT","Weight",".184","g","0.184",0.184,"g",NA,NA,"OVARY",NA,NA,NA,"BILATERAL",NA,NA,NA,NA,"2007-07-13",30
"GLP003","OM","107001508",1260,"WEIGHT","Weight",".738","g","0.738",0.738,"g",NA,NA,"UTERUS",NA,NA,NA,NA,NA,NA,NA,NA,"2007-07-13",30
"GLP003","OM","107001508",1261,"WEIGHT","Weight",".013","g","0.013",0.013,"g",NA,NA,"GLAND, PITUITARY",NA,NA,NA,NA,NA,NA,NA,NA,"2007-07-13",30
"GLP003","OM","107001508",1262,"WEIGHT","Weight",".033","g","0.033",0.033,"g",NA,NA,"GLAND, THYROID",NA,NA,NA,NA,NA,NA,NA,NA,"2007-07-13",30
"GLP003","OM","107001508",1263,"WEIGHT","Weight",".096","g","0.096",0.096,"g",NA,NA,"GLAND, ADRENAL",NA,NA,NA,"BILATERAL",NA,NA,NA,NA,"2007-07-13",30
"GLP003","OM","107001508",1264,"WEIGHT","Weight",".66","g","0.66",0.66,"g",NA,NA,"SPLEEN",NA,NA,NA,NA,NA,NA,NA,NA,"2007-07-13",30
"GLP003","OM","107001508",1265,"WEIGHT","Weight",".418","g","0.418",0.418,"g",NA,NA,"THYMUS",NA,NA,NA,NA,NA,NA,NA,NA,"2007-07-13",30
"GLP003","OM","107001584",1266,"WEIGHT","Weight","1.88","g","1.88",1.88,"g",NA,NA,"BRAIN",NA,NA,NA,NA,NA,NA,NA,NA,"2007-07-26",43
"GLP003","OM","107001584",1267,"WEIGHT","Weight",".864","g","0.864",0.864,"g",NA,NA,"HEART",NA,NA,NA,NA,NA,NA,NA,NA,"2007-07-26",43
"GLP003","OM","107001584",1268,"WEIGHT","Weight","6.782","g","6.782",6.782,"g",NA,NA,"LIVER",NA,NA,NA,NA,NA,NA,NA,NA,"2007-07-26",43
"GLP003","OM","107001584",1269,"WEIGHT","Weight","1.77","g","1.77",1.77,"g",NA,NA,"KIDNEY",NA,NA,NA,"BILATERAL",NA,NA,NA,NA,"2007-07-26",43
"GLP003","OM","107001584",1270,"WEIGHT","Weight",".174","g","0.174",0.174,"g",NA,NA,"OVARY",NA,NA,NA,"BILATERAL",NA,NA,NA,NA,"2007-07-26",43
"GLP003","OM","107001584",1271,"WEIGHT","Weight",".531","g","0.531",0.531,"g",NA,NA,"UTERUS",NA,NA,NA,NA,NA,NA,NA,NA,"2007-07-26",43
"GLP003","OM","107001584",1272,"WEIGHT","Weight",".014","g","0.014",0.014,"g",NA,NA,"GLAND, PITUITARY",NA,NA,NA,NA,NA,NA,NA,NA,"2007-07-26",43
"GLP003","OM","107001584",1273,"WEIGHT","Weight",".017","g","0.017",0.017,"g",NA,NA,"GLAND, THYROID",NA,NA,NA,NA,NA,NA,NA,NA,"2007-07-26",43
"GLP003","OM","107001584",1274,"WEIGHT","Weight","1.253","g","1.253",1.253,"g",NA,NA,"GLAND, ADRENAL",NA,NA,NA,"BILATERAL",NA,NA,"Y","Incorrect weight based on review of data","2007-07-26",43
"GLP003","OM","107001584",1275,"WEIGHT","Weight",".519","g","0.519",0.519,"g",NA,NA,"SPLEEN",NA,NA,NA,NA,NA,NA,NA,NA,"2007-07-26",43
"GLP003","OM","107001584",1276,"WEIGHT","Weight",".47","g","0.47",0.47,"g",NA,NA,"THYMUS",NA,NA,NA,NA,NA,NA,NA,NA,"2007-07-26",43
"GLP003","OM","107001566",1277,"WEIGHT","Weight","2","g","2",2,"g",NA,NA,"BRAIN",NA,NA,NA,NA,NA,NA,NA,NA,"2007-07-26",43
"GLP003","OM","107001566",1278,"WEIGHT","Weight",".899","g","0.899",0.899,"g",NA,NA,"HEART",NA,NA,NA,NA,NA,NA,NA,NA,"2007-07-26",43
"GLP003","OM","107001566",1279,"WEIGHT","Weight","6.562","g","6.562",6.562,"g",NA,NA,"LIVER",NA,NA,NA,NA,NA,NA,NA,NA,"2007-07-26",43
"GLP003","OM","107001566",1280,"WEIGHT","Weight","1.696","g","1.696",1.696,"g",NA,NA,"KIDNEY",NA,NA,NA,"BILATERAL",NA,NA,NA,NA,"2007-07-26",43
"GLP003","OM","107001566",1281,"WEIGHT","Weight",".102","g","0.102",0.102,"g",NA,NA,"OVARY",NA,NA,NA,"BILATERAL",NA,NA,NA,NA,"2007-07-26",43
"GLP003","OM","107001566",1282,"WEIGHT","Weight",".566","g","0.566",0.566,"g",NA,NA,"UTERUS",NA,NA,NA,NA,NA,NA,NA,NA,"2007-07-26",43
"GLP003","OM","107001566",1283,"WEIGHT","Weight",".012","g","0.012",0.012,"g",NA,NA,"GLAND, PITUITARY",NA,NA,NA,NA,NA,NA,NA,NA,"2007-07-26",43
"GLP003","OM","107001566",1284,"WEIGHT","Weight",".015","g","0.015",0.015,"g",NA,NA,"GLAND, THYROID",NA,NA,NA,NA,NA,NA,NA,NA,"2007-07-26",43
"GLP003","OM","107001566",1285,"WEIGHT","Weight",".057","g","0.057",0.057,"g",NA,NA,"GLAND, ADRENAL",NA,NA,NA,"BILATERAL",NA,NA,NA,NA,"2007-07-26",43
"GLP003","OM","107001566",1286,"WEIGHT","Weight",".446","g","0.446",0.446,"g",NA,NA,"SPLEEN",NA,NA,NA,NA,NA,NA,NA,NA,"2007-07-26",43
"GLP003","OM","107001566",1287,"WEIGHT","Weight",".35","g","0.35",0.35,"g",NA,NA,"THYMUS",NA,NA,NA,NA,NA,NA,NA,NA,"2007-07-26",43
"GLP003","OM","107001644",1288,"WEIGHT","Weight","1.893","g","1.893",1.893,"g",NA,NA,"BRAIN",NA,NA,NA,NA,NA,NA,NA,NA,"2007-07-26",43
"GLP003","OM","107001644",1289,"WEIGHT","Weight",".845","g","0.845",0.845,"g",NA,NA,"HEART",NA,NA,NA,NA,NA,NA,NA,NA,"2007-07-26",43
"GLP003","OM","107001644",1290,"WEIGHT","Weight","6.346","g","6.346",6.346,"g",NA,NA,"LIVER",NA,NA,NA,NA,NA,NA,NA,NA,"2007-07-26",43
"GLP003","OM","107001644",1291,"WEIGHT","Weight","1.631","g","1.631",1.631,"g",NA,NA,"KIDNEY",NA,NA,NA,"BILATERAL",NA,NA,NA,NA,"2007-07-26",43
"GLP003","OM","107001644",1292,"WEIGHT","Weight",".076","g","0.076",0.076,"g",NA,NA,"OVARY",NA,NA,NA,"BILATERAL",NA,NA,NA,NA,"2007-07-26",43
"GLP003","OM","107001644",1293,"WEIGHT","Weight",".901","g","0.901",0.901,"g",NA,NA,"UTERUS",NA,NA,NA,NA,NA,NA,NA,NA,"2007-07-26",43
"GLP003","OM","107001644",1294,"WEIGHT","Weight",".018","g","0.018",0.018,"g",NA,NA,"GLAND, PITUITARY",NA,NA,NA,NA,NA,NA,NA,NA,"2007-07-26",43
"GLP003","OM","107001644",1295,"WEIGHT","Weight",".019","g","0.019",0.019,"g",NA,NA,"GLAND, THYROID",NA,NA,NA,NA,NA,NA,NA,NA,"2007-07-26",43
"GLP003","OM","107001644",1296,"WEIGHT","Weight",".084","g","0.084",0.084,"g",NA,NA,"GLAND, ADRENAL",NA,NA,NA,"BILATERAL",NA,NA,NA,NA,"2007-07-26",43
"GLP003","OM","107001644",1297,"WEIGHT","Weight",".488","g","0.488",0.488,"g",NA,NA,"SPLEEN",NA,NA,NA,NA,NA,NA,NA,NA,"2007-07-26",43
"GLP003","OM","107001644",1298,"WEIGHT","Weight",".412","g","0.412",0.412,"g",NA,NA,"THYMUS",NA,NA,NA,NA,NA,NA,NA,NA,"2007-07-26",43
"GLP003","OM","107001587",1299,"WEIGHT","Weight","1.825","g","1.825",1.825,"g",NA,NA,"BRAIN",NA,NA,NA,NA,NA,NA,NA,NA,"2007-07-26",43
"GLP003","OM","107001587",1300,"WEIGHT","Weight",".932","g","0.932",0.932,"g",NA,NA,"HEART",NA,NA,NA,NA,NA,NA,NA,NA,"2007-07-26",43
"GLP003","OM","107001587",1301,"WEIGHT","Weight","6.718","g","6.718",6.718,"g",NA,NA,"LIVER",NA,NA,NA,NA,NA,NA,NA,NA,"2007-07-26",43
"GLP003","OM","107001587",1302,"WEIGHT","Weight","1.625","g","1.625",1.625,"g",NA,NA,"KIDNEY",NA,NA,NA,"BILATERAL",NA,NA,NA,NA,"2007-07-26",43
"GLP003","OM","107001587",1303,"WEIGHT","Weight",".127","g","0.127",0.127,"g",NA,NA,"OVARY",NA,NA,NA,"BILATERAL",NA,NA,NA,NA,"2007-07-26",43
"GLP003","OM","107001587",1304,"WEIGHT","Weight",".858","g","0.858",0.858,"g",NA,NA,"UTERUS",NA,NA,NA,NA,NA,NA,NA,NA,"2007-07-26",43
"GLP003","OM","107001587",1305,"WEIGHT","Weight",".019","g","0.019",0.019,"g",NA,NA,"GLAND, PITUITARY",NA,NA,NA,NA,NA,NA,NA,NA,"2007-07-26",43
"GLP003","OM","107001587",1306,"WEIGHT","Weight",".016","g","0.016",0.016,"g",NA,NA,"GLAND, THYROID",NA,NA,NA,NA,NA,NA,NA,NA,"2007-07-26",43
"GLP003","OM","107001587",1307,"WEIGHT","Weight",".07","g","0.07",0.07,"g",NA,NA,"GLAND, ADRENAL",NA,NA,NA,"BILATERAL",NA,NA,NA,NA,"2007-07-26",43
"GLP003","OM","107001587",1308,"WEIGHT","Weight",".414","g","0.414",0.414,"g",NA,NA,"SPLEEN",NA,NA,NA,NA,NA,NA,NA,NA,"2007-07-26",43
"GLP003","OM","107001587",1309,"WEIGHT","Weight",".424","g","0.424",0.424,"g",NA,NA,"THYMUS",NA,NA,NA,NA,NA,NA,NA,NA,"2007-07-26",43
"GLP003","OM","107001638",1310,"WEIGHT","Weight","1.834","g","1.834",1.834,"g",NA,NA,"BRAIN",NA,NA,NA,NA,NA,NA,NA,NA,"2007-07-26",43
"GLP003","OM","107001638",1311,"WEIGHT","Weight",".959","g","0.959",0.959,"g",NA,NA,"HEART",NA,NA,NA,NA,NA,NA,NA,NA,"2007-07-26",43
"GLP003","OM","107001638",1312,"WEIGHT","Weight","6.165","g","6.165",6.165,"g",NA,NA,"LIVER",NA,NA,NA,NA,NA,NA,NA,NA,"2007-07-26",43
"GLP003","OM","107001638",1313,"WEIGHT","Weight","1.518","g","1.518",1.518,"g",NA,NA,"KIDNEY",NA,NA,NA,"BILATERAL",NA,NA,NA,NA,"2007-07-26",43
"GLP003","OM","107001638",1314,"WEIGHT","Weight",".072","g","0.072",0.072,"g",NA,NA,"OVARY",NA,NA,NA,"BILATERAL",NA,NA,NA,NA,"2007-07-26",43
"GLP003","OM","107001638",1315,"WEIGHT","Weight","1.018","g","1.018",1.018,"g",NA,NA,"UTERUS",NA,NA,NA,NA,NA,NA,NA,NA,"2007-07-26",43
"GLP003","OM","107001638",1316,"WEIGHT","Weight",".012","g","0.012",0.012,"g",NA,NA,"GLAND, PITUITARY",NA,NA,NA,NA,NA,NA,NA,NA,"2007-07-26",43
"GLP003","OM","107001638",1317,"WEIGHT","Weight",".022","g","0.022",0.022,"g",NA,NA,"GLAND, THYROID",NA,NA,NA,NA,NA,NA,NA,NA,"2007-07-26",43
"GLP003","OM","107001638",1318,"WEIGHT","Weight",".063","g","0.063",0.063,"g",NA,NA,"GLAND, ADRENAL",NA,NA,NA,"BILATERAL",NA,NA,NA,NA,"2007-07-26",43
"GLP003","OM","107001638",1319,"WEIGHT","Weight",".625","g","0.625",0.625,"g",NA,NA,"SPLEEN",NA,NA,NA,NA,NA,NA,NA,NA,"2007-07-26",43
"GLP003","OM","107001638",1320,"WEIGHT","Weight",".33","g","0.33",0.33,"g",NA,NA,"THYMUS",NA,NA,NA,NA,NA,NA,NA,NA,"2007-07-26",43
"GLP003","OM","107001449",1321,"WEIGHT","Weight","2.231","g","2.231",2.231,"g",NA,NA,"BRAIN",NA,NA,NA,NA,NA,NA,NA,NA,"2007-07-10",29
"GLP003","OM","107001449",1322,"WEIGHT","Weight","1.343","g","1.343",1.343,"g",NA,NA,"HEART",NA,NA,NA,NA,NA,NA,NA,NA,"2007-07-10",29
"GLP003","OM","107001449",1323,"WEIGHT","Weight","12.767","g","12.767",12.767,"g",NA,NA,"LIVER",NA,NA,NA,NA,NA,NA,NA,NA,"2007-07-10",29
"GLP003","OM","107001449",1324,"WEIGHT","Weight","2.854","g","2.854",2.854,"g",NA,NA,"KIDNEY",NA,NA,NA,"BILATERAL",NA,NA,NA,NA,"2007-07-10",29
"GLP003","OM","107001449",1325,"WEIGHT","Weight","3.743","g","3.743",3.743,"g",NA,NA,"TESTIS",NA,NA,NA,"BILATERAL",NA,NA,NA,NA,"2007-07-10",29
"GLP003","OM","107001449",1326,"WEIGHT","Weight","2.263","g","2.263",2.263,"g",NA,NA,"GLAND, PROSTATE",NA,NA,NA,NA,NA,NA,NA,NA,"2007-07-10",29
"GLP003","OM","107001449",1327,"WEIGHT","Weight",".009","g","0.009",0.009,"g",NA,NA,"GLAND, PITUITARY",NA,NA,NA,NA,NA,NA,NA,NA,"2007-07-10",29
"GLP003","OM","107001449",1328,"WEIGHT","Weight",".04","g","0.04",0.04,"g",NA,NA,"GLAND, THYROID",NA,NA,NA,NA,NA,NA,NA,NA,"2007-07-10",29
"GLP003","OM","107001449",1329,"WEIGHT","Weight",".085","g","0.085",0.085,"g",NA,NA,"GLAND, ADRENAL",NA,NA,NA,"BILATERAL",NA,NA,NA,NA,"2007-07-10",29
"GLP003","OM","107001449",1330,"WEIGHT","Weight",".85","g","0.85",0.85,"g",NA,NA,"SPLEEN",NA,NA,NA,NA,NA,NA,NA,NA,"2007-07-10",29
"GLP003","OM","107001449",1331,"WEIGHT","Weight",".484","g","0.484",0.484,"g",NA,NA,"THYMUS",NA,NA,NA,NA,NA,NA,NA,NA,"2007-07-10",29
"GLP003","OM","107001392",1332,"WEIGHT","Weight","2.1","g","2.1",2.1,"g",NA,NA,"BRAIN",NA,NA,NA,NA,NA,NA,NA,NA,"2007-07-10",29
"GLP003","OM","107001392",1333,"WEIGHT","Weight","1.261","g","1.261",1.261,"g",NA,NA,"HEART",NA,NA,NA,NA,NA,NA,NA,NA,"2007-07-10",29
"GLP003","OM","107001392",1334,"WEIGHT","Weight","10.542","g","10.542",10.542,"g",NA,NA,"LIVER",NA,NA,NA,NA,NA,NA,NA,NA,"2007-07-10",29
"GLP003","OM","107001392",1335,"WEIGHT","Weight","2.616","g","2.616",2.616,"g",NA,NA,"KIDNEY",NA,NA,NA,"BILATERAL",NA,NA,NA,NA,"2007-07-10",29
"GLP003","OM","107001392",1336,"WEIGHT","Weight","3.476","g","3.476",3.476,"g",NA,NA,"TESTIS",NA,NA,NA,"BILATERAL",NA,NA,NA,NA,"2007-07-10",29
"GLP003","OM","107001392",1337,"WEIGHT","Weight","2.401","g","2.401",2.401,"g",NA,NA,"GLAND, PROSTATE",NA,NA,NA,NA,NA,NA,NA,NA,"2007-07-10",29
"GLP003","OM","107001392",1338,"WEIGHT","Weight",".013","g","0.013",0.013,"g",NA,NA,"GLAND, PITUITARY",NA,NA,NA,NA,NA,NA,NA,NA,"2007-07-10",29
"GLP003","OM","107001392",1339,"WEIGHT","Weight",".032","g","0.032",0.032,"g",NA,NA,"GLAND, THYROID",NA,NA,NA,NA,NA,NA,NA,NA,"2007-07-10",29
"GLP003","OM","107001392",1340,"WEIGHT","Weight",".067","g","0.067",0.067,"g",NA,NA,"GLAND, ADRENAL",NA,NA,NA,"BILATERAL",NA,NA,NA,NA,"2007-07-10",29
"GLP003","OM","107001392",1341,"WEIGHT","Weight",".769","g","0.769",0.769,"g",NA,NA,"SPLEEN",NA,NA,NA,NA,NA,NA,NA,NA,"2007-07-10",29
"GLP003","OM","107001392",1342,"WEIGHT","Weight",".386","g","0.386",0.386,"g",NA,NA,"THYMUS",NA,NA,NA,NA,NA,NA,NA,NA,"2007-07-10",29
"GLP003","OM","107001495",1343,"WEIGHT","Weight","2.142","g","2.142",2.142,"g",NA,NA,"BRAIN",NA,NA,NA,NA,NA,NA,NA,NA,"2007-07-10",29
"GLP003","OM","107001495",1344,"WEIGHT","Weight","1.239","g","1.239",1.239,"g",NA,NA,"HEART",NA,NA,NA,NA,NA,NA,NA,NA,"2007-07-10",29
"GLP003","OM","107001495",1345,"WEIGHT","Weight","13.919","g","13.919",13.919,"g",NA,NA,"LIVER",NA,NA,NA,NA,NA,NA,NA,NA,"2007-07-10",29
"GLP003","OM","107001495",1346,"WEIGHT","Weight","2.954","g","2.954",2.954,"g",NA,NA,"KIDNEY",NA,NA,NA,"BILATERAL",NA,NA,NA,NA,"2007-07-10",29
"GLP003","OM","107001495",1347,"WEIGHT","Weight","3.504","g","3.504",3.504,"g",NA,NA,"TESTIS",NA,NA,NA,"BILATERAL",NA,NA,NA,NA,"2007-07-10",29
"GLP003","OM","107001495",1348,"WEIGHT","Weight","2.484","g","2.484",2.484,"g",NA,NA,"GLAND, PROSTATE",NA,NA,NA,NA,NA,NA,NA,NA,"2007-07-10",29
"GLP003","OM","107001495",1349,"WEIGHT","Weight",".016","g","0.016",0.016,"g",NA,NA,"GLAND, PITUITARY",NA,NA,NA,NA,NA,NA,NA,NA,"2007-07-10",29
"GLP003","OM","107001495",1350,"WEIGHT","Weight",".042","g","0.042",0.042,"g",NA,NA,"GLAND, THYROID",NA,NA,NA,NA,NA,NA,NA,NA,"2007-07-10",29
"GLP003","OM","107001495",1351,"WEIGHT","Weight",".103","g","0.103",0.103,"g",NA,NA,"GLAND, ADRENAL",NA,NA,NA,"BILATERAL",NA,NA,NA,NA,"2007-07-10",29
"GLP003","OM","107001495",1352,"WEIGHT","Weight",".76","g","0.76",0.76,"g",NA,NA,"SPLEEN",NA,NA,NA,NA,NA,NA,NA,NA,"2007-07-10",29
"GLP003","OM","107001495",1353,"WEIGHT","Weight",".64","g","0.64",0.64,"g",NA,NA,"THYMUS",NA,NA,NA,NA,NA,NA,NA,NA,"2007-07-10",29
"GLP003","OM","107001391",1354,"WEIGHT","Weight","2.252","g","2.252",2.252,"g",NA,NA,"BRAIN",NA,NA,NA,NA,NA,NA,NA,NA,"2007-07-10",29
"GLP003","OM","107001391",1355,"WEIGHT","Weight","1.379","g","1.379",1.379,"g",NA,NA,"HEART",NA,NA,NA,NA,NA,NA,NA,NA,"2007-07-10",29
"GLP003","OM","107001391",1356,"WEIGHT","Weight","12.589","g","12.589",12.589,"g",NA,NA,"LIVER",NA,NA,NA,NA,NA,NA,NA,NA,"2007-07-10",29
"GLP003","OM","107001391",1357,"WEIGHT","Weight","3.11","g","3.11",3.11,"g",NA,NA,"KIDNEY",NA,NA,NA,"BILATERAL",NA,NA,NA,NA,"2007-07-10",29
"GLP003","OM","107001391",1358,"WEIGHT","Weight","3.886","g","3.886",3.886,"g",NA,NA,"TESTIS",NA,NA,NA,"BILATERAL",NA,NA,NA,NA,"2007-07-10",29
"GLP003","OM","107001391",1359,"WEIGHT","Weight","2.996","g","2.996",2.996,"g",NA,NA,"GLAND, PROSTATE",NA,NA,NA,NA,NA,NA,NA,NA,"2007-07-10",29
"GLP003","OM","107001391",1360,"WEIGHT","Weight",".01","g","0.01",0.01,"g",NA,NA,"GLAND, PITUITARY",NA,NA,NA,NA,NA,NA,NA,NA,"2007-07-10",29
"GLP003","OM","107001391",1361,"WEIGHT","Weight",".039","g","0.039",0.039,"g",NA,NA,"GLAND, THYROID",NA,NA,NA,NA,NA,NA,NA,NA,"2007-07-10",29
"GLP003","OM","107001391",1362,"WEIGHT","Weight",".076","g","0.076",0.076,"g",NA,NA,"GLAND, ADRENAL",NA,NA,NA,"BILATERAL",NA,NA,NA,NA,"2007-07-10",29
"GLP003","OM","107001391",1363,"WEIGHT","Weight","1.011","g","1.011",1.011,"g",NA,NA,"SPLEEN",NA,NA,NA,NA,NA,NA,NA,NA,"2007-07-10",29
"GLP003","OM","107001391",1364,"WEIGHT","Weight",".471","g","0.471",0.471,"g",NA,NA,"THYMUS",NA,NA,NA,NA,NA,NA,NA,NA,"2007-07-10",29
"GLP003","OM","107001477",1365,"WEIGHT","Weight","2.248","g","2.248",2.248,"g",NA,NA,"BRAIN",NA,NA,NA,NA,NA,NA,NA,NA,"2007-07-10",29
"GLP003","OM","107001477",1366,"WEIGHT","Weight","1.214","g","1.214",1.214,"g",NA,NA,"HEART",NA,NA,NA,NA,NA,NA,NA,NA,"2007-07-10",29
"GLP003","OM","107001477",1367,"WEIGHT","Weight","10.605","g","10.605",10.605,"g",NA,NA,"LIVER",NA,NA,NA,NA,NA,NA,NA,NA,"2007-07-10",29
"GLP003","OM","107001477",1368,"WEIGHT","Weight","2.755","g","2.755",2.755,"g",NA,NA,"KIDNEY",NA,NA,NA,"BILATERAL",NA,NA,NA,NA,"2007-07-10",29
"GLP003","OM","107001477",1369,"WEIGHT","Weight","3.708","g","3.708",3.708,"g",NA,NA,"TESTIS",NA,NA,NA,"BILATERAL",NA,NA,NA,NA,"2007-07-10",29
"GLP003","OM","107001477",1370,"WEIGHT","Weight","2.985","g","2.985",2.985,"g",NA,NA,"GLAND, PROSTATE",NA,NA,NA,NA,NA,NA,NA,NA,"2007-07-10",29
"GLP003","OM","107001477",1371,"WEIGHT","Weight",".011","g","0.011",0.011,"g",NA,NA,"GLAND, PITUITARY",NA,NA,NA,NA,NA,NA,NA,NA,"2007-07-10",29
"GLP003","OM","107001477",1372,"WEIGHT","Weight",".035","g","0.035",0.035,"g",NA,NA,"GLAND, THYROID",NA,NA,NA,NA,NA,NA,NA,NA,"2007-07-10",29
"GLP003","OM","107001477",1373,"WEIGHT","Weight",".086","g","0.086",0.086,"g",NA,NA,"GLAND, ADRENAL",NA,NA,NA,"BILATERAL",NA,NA,NA,NA,"2007-07-10",29
"GLP003","OM","107001477",1374,"WEIGHT","Weight",".821","g","0.821",0.821,"g",NA,NA,"SPLEEN",NA,NA,NA,NA,NA,NA,NA,NA,"2007-07-10",29
"GLP003","OM","107001477",1375,"WEIGHT","Weight",".427","g","0.427",0.427,"g",NA,NA,"THYMUS",NA,NA,NA,NA,NA,NA,NA,NA,"2007-07-10",29
"GLP003","OM","107001369",1376,"WEIGHT","Weight","2.036","g","2.036",2.036,"g",NA,NA,"BRAIN",NA,NA,NA,NA,NA,NA,NA,NA,"2007-07-11",30
"GLP003","OM","107001369",1377,"WEIGHT","Weight","1.214","g","1.214",1.214,"g",NA,NA,"HEART",NA,NA,NA,NA,NA,NA,NA,NA,"2007-07-11",30
"GLP003","OM","107001369",1378,"WEIGHT","Weight","11.453","g","11.453",11.453,"g",NA,NA,"LIVER",NA,NA,NA,NA,NA,NA,NA,NA,"2007-07-11",30
"GLP003","OM","107001369",1379,"WEIGHT","Weight","2.814","g","2.814",2.814,"g",NA,NA,"KIDNEY",NA,NA,NA,"BILATERAL",NA,NA,NA,NA,"2007-07-11",30
"GLP003","OM","107001369",1380,"WEIGHT","Weight","3.344","g","3.344",3.344,"g",NA,NA,"TESTIS",NA,NA,NA,"BILATERAL",NA,NA,NA,NA,"2007-07-11",30
"GLP003","OM","107001369",1381,"WEIGHT","Weight","3.103","g","3.103",3.103,"g",NA,NA,"GLAND, PROSTATE",NA,NA,NA,NA,NA,NA,NA,NA,"2007-07-11",30
"GLP003","OM","107001369",1382,"WEIGHT","Weight",".011","g","0.011",0.011,"g",NA,NA,"GLAND, PITUITARY",NA,NA,NA,NA,NA,NA,NA,NA,"2007-07-11",30
"GLP003","OM","107001369",1383,"WEIGHT","Weight",".028","g","0.028",0.028,"g",NA,NA,"GLAND, THYROID",NA,NA,NA,NA,NA,NA,NA,NA,"2007-07-11",30
"GLP003","OM","107001369",1384,"WEIGHT","Weight",".094","g","0.094",0.094,"g",NA,NA,"GLAND, ADRENAL",NA,NA,NA,"BILATERAL",NA,NA,NA,NA,"2007-07-11",30
"GLP003","OM","107001369",1385,"WEIGHT","Weight",".939","g","0.939",0.939,"g",NA,NA,"SPLEEN",NA,NA,NA,NA,NA,NA,NA,NA,"2007-07-11",30
"GLP003","OM","107001369",1386,"WEIGHT","Weight",".443","g","0.443",0.443,"g",NA,NA,"THYMUS",NA,NA,NA,NA,NA,NA,NA,NA,"2007-07-11",30
"GLP003","OM","107001461",1387,"WEIGHT","Weight","2.135","g","2.135",2.135,"g",NA,NA,"BRAIN",NA,NA,NA,NA,NA,NA,NA,NA,"2007-07-11",30
"GLP003","OM","107001461",1388,"WEIGHT","Weight","1.41","g","1.41",1.41,"g",NA,NA,"HEART",NA,NA,NA,NA,NA,NA,NA,NA,"2007-07-11",30
"GLP003","OM","107001461",1389,"WEIGHT","Weight","11.23","g","11.23",11.23,"g",NA,NA,"LIVER",NA,NA,NA,NA,NA,NA,NA,NA,"2007-07-11",30
"GLP003","OM","107001461",1390,"WEIGHT","Weight","3.151","g","3.151",3.151,"g",NA,NA,"KIDNEY",NA,NA,NA,"BILATERAL",NA,NA,NA,NA,"2007-07-11",30
"GLP003","OM","107001461",1391,"WEIGHT","Weight","3.851","g","3.851",3.851,"g",NA,NA,"TESTIS",NA,NA,NA,"BILATERAL",NA,NA,NA,NA,"2007-07-11",30
"GLP003","OM","107001461",1392,"WEIGHT","Weight","2.547","g","2.547",2.547,"g",NA,NA,"GLAND, PROSTATE",NA,NA,NA,NA,NA,NA,NA,NA,"2007-07-11",30
"GLP003","OM","107001461",1393,"WEIGHT","Weight",".008","g","0.008",0.008,"g",NA,NA,"GLAND, PITUITARY",NA,NA,NA,NA,NA,NA,NA,NA,"2007-07-11",30
"GLP003","OM","107001461",1394,"WEIGHT","Weight",".035","g","0.035",0.035,"g",NA,NA,"GLAND, THYROID",NA,NA,NA,NA,NA,NA,NA,NA,"2007-07-11",30
"GLP003","OM","107001461",1395,"WEIGHT","Weight",".088","g","0.088",0.088,"g",NA,NA,"GLAND, ADRENAL",NA,NA,NA,"BILATERAL",NA,NA,NA,NA,"2007-07-11",30
"GLP003","OM","107001461",1396,"WEIGHT","Weight","1.012","g","1.012",1.012,"g",NA,NA,"SPLEEN",NA,NA,NA,NA,NA,NA,NA,NA,"2007-07-11",30
"GLP003","OM","107001461",1397,"WEIGHT","Weight",".573","g","0.573",0.573,"g",NA,NA,"THYMUS",NA,NA,NA,NA,NA,NA,NA,NA,"2007-07-11",30
"GLP003","OM","107001376",1398,"WEIGHT","Weight","2.128","g","2.128",2.128,"g",NA,NA,"BRAIN",NA,NA,NA,NA,NA,NA,NA,NA,"2007-07-11",30
"GLP003","OM","107001376",1399,"WEIGHT","Weight","1.158","g","1.158",1.158,"g",NA,NA,"HEART",NA,NA,NA,NA,NA,NA,NA,NA,"2007-07-11",30
"GLP003","OM","107001376",1400,"WEIGHT","Weight","13.045","g","13.045",13.045,"g",NA,NA,"LIVER",NA,NA,NA,NA,NA,NA,NA,NA,"2007-07-11",30
"GLP003","OM","107001376",1401,"WEIGHT","Weight","3.028","g","3.028",3.028,"g",NA,NA,"KIDNEY",NA,NA,NA,"BILATERAL",NA,NA,NA,NA,"2007-07-11",30
"GLP003","OM","107001376",1402,"WEIGHT","Weight","3.331","g","3.331",3.331,"g",NA,NA,"TESTIS",NA,NA,NA,"BILATERAL",NA,NA,NA,NA,"2007-07-11",30
"GLP003","OM","107001376",1403,"WEIGHT","Weight","1.945","g","1.945",1.945,"g",NA,NA,"GLAND, PROSTATE",NA,NA,NA,NA,NA,NA,NA,NA,"2007-07-11",30
"GLP003","OM","107001376",1404,"WEIGHT","Weight",".011","g","0.011",0.011,"g",NA,NA,"GLAND, PITUITARY",NA,NA,NA,NA,NA,NA,NA,NA,"2007-07-11",30
"GLP003","OM","107001376",1405,"WEIGHT","Weight",".031","g","0.031",0.031,"g",NA,NA,"GLAND, THYROID",NA,NA,NA,NA,NA,NA,NA,NA,"2007-07-11",30
"GLP003","OM","107001376",1406,"WEIGHT","Weight",".071","g","0.071",0.071,"g",NA,NA,"GLAND, ADRENAL",NA,NA,NA,"BILATERAL",NA,NA,NA,NA,"2007-07-11",30
"GLP003","OM","107001376",1407,"WEIGHT","Weight","1.294","g","1.294",1.294,"g",NA,NA,"SPLEEN",NA,NA,NA,NA,NA,NA,NA,NA,"2007-07-11",30
"GLP003","OM","107001376",1408,"WEIGHT","Weight",".429","g","0.429",0.429,"g",NA,NA,"THYMUS",NA,NA,NA,NA,NA,NA,NA,NA,"2007-07-11",30
"GLP003","OM","107001420",1409,"WEIGHT","Weight","2.127","g","2.127",2.127,"g",NA,NA,"BRAIN",NA,NA,NA,NA,NA,NA,NA,NA,"2007-07-11",30
"GLP003","OM","107001420",1410,"WEIGHT","Weight","1.152","g","1.152",1.152,"g",NA,NA,"HEART",NA,NA,NA,NA,NA,NA,NA,NA,"2007-07-11",30
"GLP003","OM","107001420",1411,"WEIGHT","Weight","11.667","g","11.667",11.667,"g",NA,NA,"LIVER",NA,NA,NA,NA,NA,NA,NA,NA,"2007-07-11",30
"GLP003","OM","107001420",1412,"WEIGHT","Weight","3.373","g","3.373",3.373,"g",NA,NA,"KIDNEY",NA,NA,NA,"BILATERAL",NA,NA,NA,NA,"2007-07-11",30
"GLP003","OM","107001420",1413,"WEIGHT","Weight","3.821","g","3.821",3.821,"g",NA,NA,"TESTIS",NA,NA,NA,"BILATERAL",NA,NA,NA,NA,"2007-07-11",30
"GLP003","OM","107001420",1414,"WEIGHT","Weight","2.836","g","2.836",2.836,"g",NA,NA,"GLAND, PROSTATE",NA,NA,NA,NA,NA,NA,NA,NA,"2007-07-11",30
"GLP003","OM","107001420",1415,"WEIGHT","Weight",".01","g","0.01",0.01,"g",NA,NA,"GLAND, PITUITARY",NA,NA,NA,NA,NA,NA,NA,NA,"2007-07-11",30
"GLP003","OM","107001420",1416,"WEIGHT","Weight",".037","g","0.037",0.037,"g",NA,NA,"GLAND, THYROID",NA,NA,NA,NA,NA,NA,NA,NA,"2007-07-11",30
"GLP003","OM","107001420",1417,"WEIGHT","Weight",".093","g","0.093",0.093,"g",NA,NA,"GLAND, ADRENAL",NA,NA,NA,"BILATERAL",NA,NA,NA,NA,"2007-07-11",30
"GLP003","OM","107001420",1418,"WEIGHT","Weight",".775","g","0.775",0.775,"g",NA,NA,"SPLEEN",NA,NA,NA,NA,NA,NA,NA,NA,"2007-07-11",30
"GLP003","OM","107001420",1419,"WEIGHT","Weight",".484","g","0.484",0.484,"g",NA,NA,"THYMUS",NA,NA,NA,NA,NA,NA,NA,NA,"2007-07-11",30
"GLP003","OM","107001350",1420,"WEIGHT","Weight","2.077","g","2.077",2.077,"g",NA,NA,"BRAIN",NA,NA,NA,NA,NA,NA,NA,NA,"2007-07-11",30
"GLP003","OM","107001350",1421,"WEIGHT","Weight","1.311","g","1.311",1.311,"g",NA,NA,"HEART",NA,NA,NA,NA,NA,NA,NA,NA,"2007-07-11",30
"GLP003","OM","107001350",1422,"WEIGHT","Weight","10.393","g","10.393",10.393,"g",NA,NA,"LIVER",NA,NA,NA,NA,NA,NA,NA,NA,"2007-07-11",30
"GLP003","OM","107001350",1423,"WEIGHT","Weight","2.832","g","2.832",2.832,"g",NA,NA,"KIDNEY",NA,NA,NA,"BILATERAL",NA,NA,NA,NA,"2007-07-11",30
"GLP003","OM","107001350",1424,"WEIGHT","Weight","3.388","g","3.388",3.388,"g",NA,NA,"TESTIS",NA,NA,NA,"BILATERAL",NA,NA,NA,NA,"2007-07-11",30
"GLP003","OM","107001350",1425,"WEIGHT","Weight","2.308","g","2.308",2.308,"g",NA,NA,"GLAND, PROSTATE",NA,NA,NA,NA,NA,NA,NA,NA,"2007-07-11",30
"GLP003","OM","107001350",1426,"WEIGHT","Weight",".009","g","0.009",0.009,"g",NA,NA,"GLAND, PITUITARY",NA,NA,NA,NA,NA,NA,NA,NA,"2007-07-11",30
"GLP003","OM","107001350",1427,"WEIGHT","Weight",".021","g","0.021",0.021,"g",NA,NA,"GLAND, THYROID",NA,NA,NA,NA,NA,NA,NA,NA,"2007-07-11",30
"GLP003","OM","107001350",1428,"WEIGHT","Weight",".085","g","0.085",0.085,"g",NA,NA,"GLAND, ADRENAL",NA,NA,NA,"BILATERAL",NA,NA,NA,NA,"2007-07-11",30
"GLP003","OM","107001350",1429,"WEIGHT","Weight",".708","g","0.708",0.708,"g",NA,NA,"SPLEEN",NA,NA,NA,NA,NA,NA,NA,NA,"2007-07-11",30
"GLP003","OM","107001350",1430,"WEIGHT","Weight",".429","g","0.429",0.429,"g",NA,NA,"THYMUS",NA,NA,NA,NA,NA,NA,NA,NA,"2007-07-11",30
"GLP003","OM","107001474",1431,"WEIGHT","Weight","2.224","g","2.224",2.224,"g",NA,NA,"BRAIN",NA,NA,NA,NA,NA,NA,NA,NA,"2007-07-24",43
"GLP003","OM","107001474",1432,"WEIGHT","Weight","1.303","g","1.303",1.303,"g",NA,NA,"HEART",NA,NA,NA,NA,NA,NA,NA,NA,"2007-07-24",43
"GLP003","OM","107001474",1433,"WEIGHT","Weight","15.988","g","15.988",15.988,"g",NA,NA,"LIVER",NA,NA,NA,NA,NA,NA,NA,NA,"2007-07-24",43
"GLP003","OM","107001474",1434,"WEIGHT","Weight","3.066","g","3.066",3.066,"g",NA,NA,"KIDNEY",NA,NA,NA,"BILATERAL",NA,NA,NA,NA,"2007-07-24",43
"GLP003","OM","107001474",1435,"WEIGHT","Weight","3.582","g","3.582",3.582,"g",NA,NA,"TESTIS",NA,NA,NA,"BILATERAL",NA,NA,NA,NA,"2007-07-24",43
"GLP003","OM","107001474",1436,"WEIGHT","Weight","2.784","g","2.784",2.784,"g",NA,NA,"GLAND, PROSTATE",NA,NA,NA,NA,NA,NA,NA,NA,"2007-07-24",43
