"STUDYID","DOMAIN","USUBJID","POOLID","PCSEQ","PCGRPID","PCREFID","PCSPID","PCTESTCD","PCTEST","PCCAT","PCSCAT","PCORRES","PCORRESU","PCSTRESC","PCSTRESN","PCSTRESU","PCSTAT","PCREASND","PCNAM","PCSPEC","PCSPCCND","PCMETHOD","PCBLFL","PCFAST","PCDRVFL","PCLLOQ","PCEXCLFL","PCREASEX","VISITDY","PCDTC","PCENDTC","PCDY","PCENDY","PCTPT","PCTPTNUM","PCELTM","PCTPTREF","PCRFTDTC","PCEVLINT"
"GLP003","PC","107001374",NA,121,"6m1","433626593377",NA,"XYZ12345","XYZ-12345","ANALYTE",NA,"<LLOQ",NA,"<LLOQ",NA,NA,NA,NA,NA,"PLASMA",NA,NA,NA,NA,NA,NA,NA,NA,1,"2007-06-12",NA,1,1,"Day 1 .25h 0m",0.25,"PT15M","Day 1 Dose","2007-06-12",NA
"GLP003","PC","107001490",NA,122,"6m1","433626593389",NA,"XYZ12345","XYZ-12345","ANALYTE",NA,"<LLOQ",NA,"<LLOQ",NA,NA,NA,NA,NA,"PLASMA",NA,NA,NA,NA,NA,NA,NA,NA,1,"2007-06-12",NA,1,1,"Day 1 .25h 0m",0.25,"PT15M","Day 1 Dose","2007-06-12",NA
"GLP003","PC","107001487",NA,123,"6m1","433626593401",NA,"XYZ12345","XYZ-12345","ANALYTE",NA,"<LLOQ",NA,"<LLOQ",NA,NA,NA,NA,NA,"PLASMA",NA,NA,NA,NA,NA,NA,NA,NA,1,"2007-06-12",NA,1,1,"Day 1 .25h 0m",0.25,"PT15M","Day 1 Dose","2007-06-12",NA
"GLP003","PC","107001349",NA,124,"6m1","433626593414",NA,"XYZ12345","XYZ-12345","ANALYTE",NA,"<LLOQ",NA,"<LLOQ",NA,NA,NA,NA,NA,"PLASMA",NA,NA,NA,NA,NA,NA,NA,NA,1,"2007-06-12",NA,1,1,"Day 1 1h 0m",1,"PT1H","Day 1 Dose","2007-06-12",NA
"GLP003","PC","107001358",NA,125,"6m1","433626593426",NA,"XYZ12345","XYZ-12345","ANALYTE",NA,"<LLOQ",NA,"<LLOQ",NA,NA,NA,NA,NA,"PLASMA",NA,NA,NA,NA,NA,NA,NA,NA,1,"2007-06-12",NA,1,1,"Day 1 1h 0m",1,"PT1H","Day 1 Dose","2007-06-12",NA
"GLP003","PC","107001390",NA,126,"6m1","433626593978",NA,"XYZ12345","XYZ-12345","ANALYTE",NA,"<LLOQ",NA,"<LLOQ",NA,NA,NA,NA,NA,"PLASMA",NA,NA,NA,NA,NA,NA,NA,NA,1,"2007-06-12",NA,1,1,"Day 1 1h 0m",1,"PT1H","Day 1 Dose","2007-06-12",NA
"GLP003","PC","107001459",NA,127,"6m1","433626594051",NA,"XYZ12345","XYZ-12345","ANALYTE",NA,"<LLOQ",NA,"<LLOQ",NA,NA,NA,NA,NA,"PLASMA",NA,NA,NA,NA,NA,NA,NA,NA,1,"2007-06-12",NA,1,1,"Day 1 2h 0m",2,"PT2H","Day 1 Dose","2007-06-12",NA
"GLP003","PC","107001468",NA,128,"6m1","433626594063",NA,"XYZ12345","XYZ-12345","ANALYTE",NA,"<LLOQ",NA,"<LLOQ",NA,NA,NA,NA,NA,"PLASMA",NA,NA,NA,NA,NA,NA,NA,NA,1,"2007-06-12",NA,1,1,"Day 1 2h 0m",2,"PT2H","Day 1 Dose","2007-06-12",NA
"GLP003","PC","107001360",NA,129,"6m1","433626594075",NA,"XYZ12345","XYZ-12345","ANALYTE",NA,"<LLOQ",NA,"<LLOQ",NA,NA,NA,NA,NA,"PLASMA",NA,NA,NA,NA,NA,NA,NA,NA,1,"2007-06-12",NA,1,1,"Day 1 2h 0m",2,"PT2H","Day 1 Dose","2007-06-12",NA
"GLP003","PC","107001374",NA,130,"6m28","433626593383",NA,"XYZ12345","XYZ-12345","ANALYTE",NA,"<LLOQ",NA,"<LLOQ",NA,NA,NA,NA,NA,"PLASMA",NA,NA,NA,NA,NA,NA,NA,NA,28,"2007-07-09",NA,28,28,"Day 28 .25h 0m",648.25,"PT15M","Day 28 Dose","2007-07-09",NA
"GLP003","PC","107001490",NA,131,"6m28","433626593395",NA,"XYZ12345","XYZ-12345","ANALYTE",NA,"<LLOQ",NA,"<LLOQ",NA,NA,NA,NA,NA,"PLASMA",NA,NA,NA,NA,NA,NA,NA,NA,28,"2007-07-09",NA,28,28,"Day 28 .25h 0m",648.25,"PT15M","Day 28 Dose","2007-07-09",NA
"GLP003","PC","107001487",NA,132,"6m28","433626593407",NA,"XYZ12345","XYZ-12345","ANALYTE",NA,"<LLOQ",NA,"<LLOQ",NA,NA,NA,NA,NA,"PLASMA",NA,NA,NA,NA,NA,NA,NA,NA,28,"2007-07-09",NA,28,28,"Day 28 .25h 0m",648.25,"PT15M","Day 28 Dose","2007-07-09",NA
"GLP003","PC","107001349",NA,133,"6m28","433626593420",NA,"XYZ12345","XYZ-12345","ANALYTE",NA,"<LLOQ",NA,"<LLOQ",NA,NA,NA,NA,NA,"PLASMA",NA,NA,NA,NA,NA,NA,NA,NA,28,"2007-07-09",NA,28,28,"Day 28 1h 0m",649,"PT1H","Day 28 Dose","2007-07-09",NA
"GLP003","PC","107001358",NA,134,"6m28","433626593432",NA,"XYZ12345","XYZ-12345","ANALYTE",NA,"<LLOQ",NA,"<LLOQ",NA,NA,NA,NA,NA,"PLASMA",NA,NA,NA,NA,NA,NA,NA,NA,28,"2007-07-09",NA,28,28,"Day 28 1h 0m",649,"PT1H","Day 28 Dose","2007-07-09",NA
"GLP003","PC","107001390",NA,135,"6m28","433626593984",NA,"XYZ12345","XYZ-12345","ANALYTE",NA,"<LLOQ",NA,"<LLOQ",NA,NA,NA,NA,NA,"PLASMA",NA,NA,NA,NA,NA,NA,NA,NA,28,"2007-07-09",NA,28,28,"Day 28 1h 0m",649,"PT1H","Day 28 Dose","2007-07-09",NA
"GLP003","PC","107001459",NA,136,"6m28","433626594057",NA,"XYZ12345","XYZ-12345","ANALYTE",NA,"<LLOQ",NA,"<LLOQ",NA,NA,NA,NA,NA,"PLASMA",NA,NA,NA,NA,NA,NA,NA,NA,28,"2007-07-09",NA,28,28,"Day 28 2h 0m",650,"PT2H","Day 28 Dose","2007-07-09",NA
"GLP003","PC","107001468",NA,137,"6m28","433626594069",NA,"XYZ12345","XYZ-12345","ANALYTE",NA,"<LLOQ",NA,"<LLOQ",NA,NA,NA,NA,NA,"PLASMA",NA,NA,NA,NA,NA,NA,NA,NA,28,"2007-07-09",NA,28,28,"Day 28 2h 0m",650,"PT2H","Day 28 Dose","2007-07-09",NA
"GLP003","PC","107001360",NA,138,"6m28","433626594081",NA,"XYZ12345","XYZ-12345","ANALYTE",NA,"<LLOQ",NA,"<LLOQ",NA,NA,NA,NA,NA,"PLASMA",NA,NA,NA,NA,NA,NA,NA,NA,28,"2007-07-09",NA,28,28,"Day 28 2h 0m",650,"PT2H","Day 28 Dose","2007-07-09",NA
"GLP003","PC","107001516",NA,139,"6f1","433626593437",NA,"XYZ12345","XYZ-12345","ANALYTE",NA,"<LLOQ",NA,"<LLOQ",NA,NA,NA,NA,NA,"PLASMA",NA,NA,NA,NA,NA,NA,NA,NA,1,"2007-06-14",NA,1,1,"Day 1 .25h 0m",0.25,"PT15M","Day 1 Dose","2007-06-14",NA
"GLP003","PC","107001607",NA,140,"6f1","433626593449",NA,"XYZ12345","XYZ-12345","ANALYTE",NA,"<LLOQ",NA,"<LLOQ",NA,NA,NA,NA,NA,"PLASMA",NA,NA,NA,NA,NA,NA,NA,NA,1,"2007-06-14",NA,1,1,"Day 1 .25h 0m",0.25,"PT15M","Day 1 Dose","2007-06-14",NA
"GLP003","PC","107001614",NA,141,"6f1","433626593461",NA,"XYZ12345","XYZ-12345","ANALYTE",NA,"<LLOQ",NA,"<LLOQ",NA,NA,NA,NA,NA,"PLASMA",NA,NA,NA,NA,NA,NA,NA,NA,1,"2007-06-14",NA,1,1,"Day 1 .25h 0m",0.25,"PT15M","Day 1 Dose","2007-06-14",NA
"GLP003","PC","107001580",NA,142,"6f1","433626593474",NA,"XYZ12345","XYZ-12345","ANALYTE",NA,"<LLOQ",NA,"<LLOQ",NA,NA,NA,NA,NA,"PLASMA",NA,NA,NA,NA,NA,NA,NA,NA,1,"2007-06-14",NA,1,1,"Day 1 1h 0m",1,"PT1H","Day 1 Dose","2007-06-14",NA
"GLP003","PC","107001640",NA,143,"6f1","433626593486",NA,"XYZ12345","XYZ-12345","ANALYTE",NA,"<LLOQ",NA,"<LLOQ",NA,NA,NA,NA,NA,"PLASMA",NA,NA,NA,NA,NA,NA,NA,NA,1,"2007-06-14",NA,1,1,"Day 1 1h 0m",1,"PT1H","Day 1 Dose","2007-06-14",NA
"GLP003","PC","107001573",NA,144,"6f1","433626594134",NA,"XYZ12345","XYZ-12345","ANALYTE",NA,"<LLOQ",NA,"<LLOQ",NA,NA,NA,NA,NA,"PLASMA",NA,NA,NA,NA,NA,NA,NA,NA,1,"2007-06-14",NA,1,1,"Day 1 1h 0m",1,"PT1H","Day 1 Dose","2007-06-14",NA
"GLP003","PC","107001635",NA,145,"6f1","433626594147",NA,"XYZ12345","XYZ-12345","ANALYTE",NA,"<LLOQ",NA,"<LLOQ",NA,NA,NA,NA,NA,"PLASMA",NA,NA,NA,NA,NA,NA,NA,NA,1,"2007-06-14",NA,1,1,"Day 1 2h 0m",2,"PT2H","Day 1 Dose","2007-06-14",NA
"GLP003","PC","107001597",NA,146,"6f1","433626594159",NA,"XYZ12345","XYZ-12345","ANALYTE",NA,"<LLOQ",NA,"<LLOQ",NA,NA,NA,NA,NA,"PLASMA",NA,NA,NA,NA,NA,NA,NA,NA,1,"2007-06-14",NA,1,1,"Day 1 2h 0m",2,"PT2H","Day 1 Dose","2007-06-14",NA
"GLP003","PC","107001613",NA,147,"6f1","433626594171",NA,"XYZ12345","XYZ-12345","ANALYTE",NA,"<LLOQ",NA,"<LLOQ",NA,NA,NA,NA,NA,"PLASMA",NA,NA,NA,NA,NA,NA,NA,NA,1,"2007-06-14",NA,1,1,"Day 1 2h 0m",2,"PT2H","Day 1 Dose","2007-06-14",NA
"GLP003","PC","107001516",NA,148,"6f28","433626593443",NA,"XYZ12345","XYZ-12345","ANALYTE",NA,"<LLOQ",NA,"<LLOQ",NA,NA,NA,NA,NA,"PLASMA",NA,NA,NA,NA,NA,NA,NA,NA,28,"2007-07-11",NA,28,28,"Day 28 .25h 0m",648.25,"PT15M","Day 28 Dose","2007-07-11",NA
"GLP003","PC","107001607",NA,149,"6f28","433626593455",NA,"XYZ12345","XYZ-12345","ANALYTE",NA,"<LLOQ",NA,"<LLOQ",NA,NA,NA,NA,NA,"PLASMA",NA,NA,NA,NA,NA,NA,NA,NA,28,"2007-07-11",NA,28,28,"Day 28 .25h 0m",648.25,"PT15M","Day 28 Dose","2007-07-11",NA
"GLP003","PC","107001580",NA,150,"6f28","433626593480",NA,"XYZ12345","XYZ-12345","ANALYTE",NA,"<LLOQ",NA,"<LLOQ",NA,NA,NA,NA,NA,"PLASMA",NA,NA,NA,NA,NA,NA,NA,NA,28,"2007-07-11",NA,28,28,"Day 28 1h 0m",649,"PT1H","Day 28 Dose","2007-07-11",NA
"GLP003","PC","107001640",NA,151,"6f28","433626593492",NA,"XYZ12345","XYZ-12345","ANALYTE",NA,"<LLOQ",NA,"<LLOQ",NA,NA,NA,NA,NA,"PLASMA",NA,NA,NA,NA,NA,NA,NA,NA,28,"2007-07-11",NA,28,28,"Day 28 1h 0m",649,"PT1H","Day 28 Dose","2007-07-11",NA
"GLP003","PC","107001573",NA,152,"6f28","433626594140",NA,"XYZ12345","XYZ-12345","ANALYTE",NA,"<LLOQ",NA,"<LLOQ",NA,NA,NA,NA,NA,"PLASMA",NA,NA,NA,NA,NA,NA,NA,NA,28,"2007-07-11",NA,28,28,"Day 28 1h 0m",649,"PT1H","Day 28 Dose","2007-07-11",NA
"GLP003","PC","107001635",NA,153,"6f28","433626594153",NA,"XYZ12345","XYZ-12345","ANALYTE",NA,"<LLOQ",NA,"<LLOQ",NA,NA,NA,NA,NA,"PLASMA",NA,NA,NA,NA,NA,NA,NA,NA,28,"2007-07-11",NA,28,28,"Day 28 2h 0m",650,"PT2H","Day 28 Dose","2007-07-11",NA
"GLP003","PC","107001597",NA,154,"6f28","433626594165",NA,"XYZ12345","XYZ-12345","ANALYTE",NA,"<LLOQ",NA,"<LLOQ",NA,NA,NA,NA,NA,"PLASMA",NA,NA,NA,NA,NA,NA,NA,NA,28,"2007-07-11",NA,28,28,"Day 28 2h 0m",650,"PT2H","Day 28 Dose","2007-07-11",NA
"GLP003","PC","107001613",NA,155,"6f28","433626594177",NA,"XYZ12345","XYZ-12345","ANALYTE",NA,"<LLOQ",NA,"<LLOQ",NA,NA,NA,NA,NA,"PLASMA",NA,NA,NA,NA,NA,NA,NA,NA,28,"2007-07-11",NA,28,28,"Day 28 2h 0m",650,"PT2H","Day 28 Dose","2007-07-11",NA
"GLP003","PC","107001373",NA,156,"7m1","433626594337",NA,"XYZ12345","XYZ-12345","ANALYTE",NA,"<LLOQ",NA,"<LLOQ",NA,NA,NA,NA,NA,"PLASMA",NA,NA,NA,NA,NA,NA,NA,NA,1,"2007-06-12",NA,1,1,"Day 1 .25h 0m",0.25,"PT15M","Day 1 Dose","2007-06-12",NA
"GLP003","PC","107001481",NA,157,"7m1","433626594349",NA,"XYZ12345","XYZ-12345","ANALYTE",NA,"<LLOQ",NA,"<LLOQ",NA,NA,NA,NA,NA,"PLASMA",NA,NA,NA,NA,NA,NA,NA,NA,1,"2007-06-12",NA,1,1,"Day 1 .25h 0m",0.25,"PT15M","Day 1 Dose","2007-06-12",NA
"GLP003","PC","107001457",NA,158,"7m1","433626594361",NA,"XYZ12345","XYZ-12345","ANALYTE",NA,"<LLOQ",NA,"<LLOQ",NA,NA,NA,NA,NA,"PLASMA",NA,NA,NA,NA,NA,NA,NA,NA,1,"2007-06-12",NA,1,1,"Day 1 .25h 0m",0.25,"PT15M","Day 1 Dose","2007-06-12",NA
"GLP003","PC","107001418",NA,159,"7m1","433626594374",NA,"XYZ12345","XYZ-12345","ANALYTE",NA,"<LLOQ",NA,"<LLOQ",NA,NA,NA,NA,NA,"PLASMA",NA,NA,NA,NA,NA,NA,NA,NA,1,"2007-06-12",NA,1,1,"Day 1 1h 0m",1,"PT1H","Day 1 Dose","2007-06-12",NA
"GLP003","PC","107001479",NA,160,"7m1","433626594386",NA,"XYZ12345","XYZ-12345","ANALYTE",NA,"<LLOQ",NA,"<LLOQ",NA,NA,NA,NA,NA,"PLASMA",NA,NA,NA,NA,NA,NA,NA,NA,1,"2007-06-12",NA,1,1,"Day 1 1h 0m",1,"PT1H","Day 1 Dose","2007-06-12",NA
"GLP003","PC","107001498",NA,161,"7m1","433626594398",NA,"XYZ12345","XYZ-12345","ANALYTE",NA,"<LLOQ",NA,"<LLOQ",NA,NA,NA,NA,NA,"PLASMA",NA,NA,NA,NA,NA,NA,NA,NA,1,"2007-06-12",NA,1,1,"Day 1 1h 0m",1,"PT1H","Day 1 Dose","2007-06-12",NA
"GLP003","PC","107001371",NA,162,"7m1","433626594411",NA,"XYZ12345","XYZ-12345","ANALYTE",NA,"<LLOQ",NA,"<LLOQ",NA,NA,NA,NA,NA,"PLASMA",NA,NA,NA,NA,NA,NA,NA,NA,1,"2007-06-12",NA,1,1,"Day 1 2h 0m",2,"PT2H","Day 1 Dose","2007-06-12",NA
"GLP003","PC","107001489",NA,163,"7m1","433626594423",NA,"XYZ12345","XYZ-12345","ANALYTE",NA,"<LLOQ",NA,"<LLOQ",NA,NA,NA,NA,NA,"PLASMA",NA,NA,NA,NA,NA,NA,NA,NA,1,"2007-06-12",NA,1,1,"Day 1 2h 0m",2,"PT2H","Day 1 Dose","2007-06-12",NA
"GLP003","PC","107001451",NA,164,"7m1","433626594435",NA,"XYZ12345","XYZ-12345","ANALYTE",NA,"<LLOQ",NA,"<LLOQ",NA,NA,NA,NA,NA,"PLASMA",NA,NA,NA,NA,NA,NA,NA,NA,1,"2007-06-12",NA,1,1,"Day 1 2h 0m",2,"PT2H","Day 1 Dose","2007-06-12",NA
"GLP003","PC","107001373",NA,165,"7m28","433626594343",NA,"XYZ12345","XYZ-12345","ANALYTE",NA,"<LLOQ",NA,"<LLOQ",NA,NA,NA,NA,NA,"PLASMA",NA,NA,NA,NA,NA,NA,NA,NA,28,"2007-07-09",NA,28,28,"Day 28 .25h 0m",648.25,"PT15M","Day 28 Dose","2007-07-09",NA
"GLP003","PC","107001481",NA,166,"7m28","433626594355",NA,"XYZ12345","XYZ-12345","ANALYTE",NA,"<LLOQ",NA,"<LLOQ",NA,NA,NA,NA,NA,"PLASMA",NA,NA,NA,NA,NA,NA,NA,NA,28,"2007-07-09",NA,28,28,"Day 28 .25h 0m",648.25,"PT15M","Day 28 Dose","2007-07-09",NA
"GLP003","PC","107001457",NA,167,"7m28","433626594367",NA,"XYZ12345","XYZ-12345","ANALYTE",NA,"<LLOQ",NA,"<LLOQ",NA,NA,NA,NA,NA,"PLASMA",NA,NA,NA,NA,NA,NA,NA,NA,28,"2007-07-09",NA,28,28,"Day 28 .25h 0m",648.25,"PT15M","Day 28 Dose","2007-07-09",NA
"GLP003","PC","107001418",NA,168,"7m28","433626594380",NA,"XYZ12345","XYZ-12345","ANALYTE",NA,"<LLOQ",NA,"<LLOQ",NA,NA,NA,NA,NA,"PLASMA",NA,NA,NA,NA,NA,NA,NA,NA,28,"2007-07-09",NA,28,28,"Day 28 1h 0m",649,"PT1H","Day 28 Dose","2007-07-09",NA
"GLP003","PC","107001479",NA,169,"7m28","433626594392",NA,"XYZ12345","XYZ-12345","ANALYTE",NA,"<LLOQ",NA,"<LLOQ",NA,NA,NA,NA,NA,"PLASMA",NA,NA,NA,NA,NA,NA,NA,NA,28,"2007-07-09",NA,28,28,"Day 28 1h 0m",649,"PT1H","Day 28 Dose","2007-07-09",NA
"GLP003","PC","107001498",NA,170,"7m28","433626594404",NA,"XYZ12345","XYZ-12345","ANALYTE",NA,"<LLOQ",NA,"<LLOQ",NA,NA,NA,NA,NA,"PLASMA",NA,NA,NA,NA,NA,NA,NA,NA,28,"2007-07-09",NA,28,28,"Day 28 1h 0m",649,"PT1H","Day 28 Dose","2007-07-09",NA
"GLP003","PC","107001371",NA,171,"7m28","433626594417",NA,"XYZ12345","XYZ-12345","ANALYTE",NA,"<LLOQ",NA,"<LLOQ",NA,NA,NA,NA,NA,"PLASMA",NA,NA,NA,NA,NA,NA,NA,NA,28,"2007-07-09",NA,28,28,"Day 28 2h 0m",650,"PT2H","Day 28 Dose","2007-07-09",NA
"GLP003","PC","107001489",NA,172,"7m28","433626594429",NA,"XYZ12345","XYZ-12345","ANALYTE",NA,"<LLOQ",NA,"<LLOQ",NA,NA,NA,NA,NA,"PLASMA",NA,NA,NA,NA,NA,NA,NA,NA,28,"2007-07-09",NA,28,28,"Day 28 2h 0m",650,"PT2H","Day 28 Dose","2007-07-09",NA
"GLP003","PC","107001451",NA,173,"7m28","433626594441",NA,"XYZ12345","XYZ-12345","ANALYTE",NA,"<LLOQ",NA,"<LLOQ",NA,NA,NA,NA,NA,"PLASMA",NA,NA,NA,NA,NA,NA,NA,NA,28,"2007-07-09",NA,28,28,"Day 28 2h 0m",650,"PT2H","Day 28 Dose","2007-07-09",NA
"GLP003","PC","107001542",NA,174,"7f1","433626593557",NA,"XYZ12345","XYZ-12345","ANALYTE",NA,"<LLOQ",NA,"<LLOQ",NA,NA,NA,NA,NA,"PLASMA",NA,NA,NA,NA,NA,NA,NA,NA,1,"2007-06-14",NA,1,1,"Day 1 .25h 0m",0.25,"PT15M","Day 1 Dose","2007-06-14",NA
"GLP003","PC","107001639",NA,175,"7f1","433626593569",NA,"XYZ12345","XYZ-12345","ANALYTE",NA,"<LLOQ",NA,"<LLOQ",NA,NA,NA,NA,NA,"PLASMA",NA,NA,NA,NA,NA,NA,NA,NA,1,"2007-06-14",NA,1,1,"Day 1 .25h 0m",0.25,"PT15M","Day 1 Dose","2007-06-14",NA
"GLP003","PC","107001577",NA,176,"7f1","433626593581",NA,"XYZ12345","XYZ-12345","ANALYTE",NA,"<LLOQ",NA,"<LLOQ",NA,NA,NA,NA,NA,"PLASMA",NA,NA,NA,NA,NA,NA,NA,NA,1,"2007-06-14",NA,1,1,"Day 1 .25h 0m",0.25,"PT15M","Day 1 Dose","2007-06-14",NA
"GLP003","PC","107001551",NA,177,"7f1","433626593594",NA,"XYZ12345","XYZ-12345","ANALYTE",NA,"<LLOQ",NA,"<LLOQ",NA,NA,NA,NA,NA,"PLASMA",NA,NA,NA,NA,NA,NA,NA,NA,1,"2007-06-14",NA,1,1,"Day 1 1h 0m",1,"PT1H","Day 1 Dose","2007-06-14",NA
"GLP003","PC","107001603",NA,178,"7f1","433626593606",NA,"XYZ12345","XYZ-12345","ANALYTE",NA,"<LLOQ",NA,"<LLOQ",NA,NA,NA,NA,NA,"PLASMA",NA,NA,NA,NA,NA,NA,NA,NA,1,"2007-06-14",NA,1,1,"Day 1 1h 0m",1,"PT1H","Day 1 Dose","2007-06-14",NA
"GLP003","PC","107001648",NA,179,"7f1","433626594446",NA,"XYZ12345","XYZ-12345","ANALYTE",NA,"<LLOQ",NA,"<LLOQ",NA,NA,NA,NA,NA,"PLASMA",NA,NA,NA,NA,NA,NA,NA,NA,1,"2007-06-14",NA,1,1,"Day 1 1h 0m",1,"PT1H","Day 1 Dose","2007-06-14",NA
"GLP003","PC","107001626",NA,180,"7f1","433626594459",NA,"XYZ12345","XYZ-12345","ANALYTE",NA,"<LLOQ",NA,"<LLOQ",NA,NA,NA,NA,NA,"PLASMA",NA,NA,NA,NA,NA,NA,NA,NA,1,"2007-06-14",NA,1,1,"Day 1 2h 0m",2,"PT2H","Day 1 Dose","2007-06-14",NA
"GLP003","PC","107001606",NA,181,"7f1","433626594471",NA,"XYZ12345","XYZ-12345","ANALYTE",NA,"<LLOQ",NA,"<LLOQ",NA,NA,NA,NA,NA,"PLASMA",NA,NA,NA,NA,NA,NA,NA,NA,1,"2007-06-14",NA,1,1,"Day 1 2h 0m",2,"PT2H","Day 1 Dose","2007-06-14",NA
"GLP003","PC","107001600",NA,182,"7f1","433626594483",NA,"XYZ12345","XYZ-12345","ANALYTE",NA,"<LLOQ",NA,"<LLOQ",NA,NA,NA,NA,NA,"PLASMA",NA,NA,NA,NA,NA,NA,NA,NA,1,"2007-06-14",NA,1,1,"Day 1 2h 0m",2,"PT2H","Day 1 Dose","2007-06-14",NA
"GLP003","PC","107001542",NA,183,"7f28","433626593563",NA,"XYZ12345","XYZ-12345","ANALYTE",NA,"<LLOQ",NA,"<LLOQ",NA,NA,NA,NA,NA,"PLASMA",NA,NA,NA,NA,NA,NA,NA,NA,28,"2007-07-11",NA,28,28,"Day 28 .25h 0m",648.25,"PT15M","Day 28 Dose","2007-07-11",NA
"GLP003","PC","107001639",NA,184,"7f28","433626593575",NA,"XYZ12345","XYZ-12345","ANALYTE",NA,"<LLOQ",NA,"<LLOQ",NA,NA,NA,NA,NA,"PLASMA",NA,NA,NA,NA,NA,NA,NA,NA,28,"2007-07-11",NA,28,28,"Day 28 .25h 0m",648.25,"PT15M","Day 28 Dose","2007-07-11",NA
"GLP003","PC","107001577",NA,185,"7f28","433626593587",NA,"XYZ12345","XYZ-12345","ANALYTE",NA,"<LLOQ",NA,"<LLOQ",NA,NA,NA,NA,NA,"PLASMA",NA,NA,NA,NA,NA,NA,NA,NA,28,"2007-07-11",NA,28,28,"Day 28 .25h 0m",648.25,"PT15M","Day 28 Dose","2007-07-11",NA
"GLP003","PC","107001551",NA,186,"7f28","433626593600",NA,"XYZ12345","XYZ-12345","ANALYTE",NA,"<LLOQ",NA,"<LLOQ",NA,NA,NA,NA,NA,"PLASMA",NA,NA,NA,NA,NA,NA,NA,NA,28,"2007-07-11",NA,28,28,"Day 28 1h 0m",649,"PT1H","Day 28 Dose","2007-07-11",NA
"GLP003","PC","107001603",NA,187,"7f28","433626593612",NA,"XYZ12345","XYZ-12345","ANALYTE",NA,"<LLOQ",NA,"<LLOQ",NA,NA,NA,NA,NA,"PLASMA",NA,NA,NA,NA,NA,NA,NA,NA,28,"2007-07-11",NA,28,28,"Day 28 1h 0m",649,"PT1H","Day 28 Dose","2007-07-11",NA
"GLP003","PC","107001648",NA,188,"7f28","433626594452",NA,"XYZ12345","XYZ-12345","ANALYTE",NA,"<LLOQ",NA,"<LLOQ",NA,NA,NA,NA,NA,"PLASMA",NA,NA,NA,NA,NA,NA,NA,NA,28,"2007-07-11",NA,28,28,"Day 28 1h 0m",649,"PT1H","Day 28 Dose","2007-07-11",NA
"GLP003","PC","107001626",NA,189,"7f28","433626594465",NA,"XYZ12345","XYZ-12345","ANALYTE",NA,"<LLOQ",NA,"<LLOQ",NA,NA,NA,NA,NA,"PLASMA",NA,NA,NA,NA,NA,NA,NA,NA,28,"2007-07-11",NA,28,28,"Day 28 2h 0m",650,"PT2H","Day 28 Dose","2007-07-11",NA
"GLP003","PC","107001606",NA,190,"7f28","433626594477",NA,"XYZ12345","XYZ-12345","ANALYTE",NA,"<LLOQ",NA,"<LLOQ",NA,NA,NA,NA,NA,"PLASMA",NA,NA,NA,NA,NA,NA,NA,NA,28,"2007-07-11",NA,28,28,"Day 28 2h 0m",650,"PT2H","Day 28 Dose","2007-07-11",NA
"GLP003","PC","107001600",NA,191,"7f28","433626594489",NA,"XYZ12345","XYZ-12345","ANALYTE",NA,"<LLOQ",NA,"<LLOQ",NA,NA,NA,NA,NA,"PLASMA",NA,NA,NA,NA,NA,NA,NA,NA,28,"2007-07-11",NA,28,28,"Day 28 2h 0m",650,"PT2H","Day 28 Dose","2007-07-11",NA
"GLP003","PC","107001407",NA,192,"8m1","433626594649",NA,"XYZ12345","XYZ-12345","ANALYTE",NA,"1177.319085","ng/mL","1,177.32",1177.31908456829,"ng/mL",NA,NA,NA,"PLASMA",NA,NA,NA,NA,NA,NA,NA,NA,1,"2007-06-12",NA,1,1,"Day 1 .25h 0m",0.25,"PT15M","Day 1 Dose","2007-06-12",NA
"GLP003","PC","107001436",NA,193,"8m1","433626594661",NA,"XYZ12345","XYZ-12345","ANALYTE",NA,"1444.555308","ng/mL","1,444.56",1444.55530813667,"ng/mL",NA,NA,NA,"PLASMA",NA,NA,NA,NA,NA,NA,NA,NA,1,"2007-06-12",NA,1,1,"Day 1 .25h 0m",0.25,"PT15M","Day 1 Dose","2007-06-12",NA
"GLP003","PC","107001395",NA,194,"8m1","433626594673",NA,"XYZ12345","XYZ-12345","ANALYTE",NA,"1643.080185","ng/mL","1,643.08",1643.0801846005,"ng/mL",NA,NA,NA,"PLASMA",NA,NA,NA,NA,NA,NA,NA,NA,1,"2007-06-12",NA,1,1,"Day 1 .25h 0m",0.25,"PT15M","Day 1 Dose","2007-06-12",NA
"GLP003","PC","107001378",NA,195,"8m1","433626594686",NA,"XYZ12345","XYZ-12345","ANALYTE",NA,"9600.101809","ng/mL","9,600.10",9600.10180851048,"ng/mL",NA,NA,NA,"PLASMA",NA,NA,NA,NA,NA,NA,NA,NA,1,"2007-06-12",NA,1,1,"Day 1 1h 0m",1,"PT1H","Day 1 Dose","2007-06-12",NA
"GLP003","PC","107001464",NA,196,"8m1","433626594698",NA,"XYZ12345","XYZ-12345","ANALYTE",NA,"8522.992911","ng/mL","8,522.99",8522.99291120854,"ng/mL",NA,NA,NA,"PLASMA",NA,NA,NA,NA,NA,NA,NA,NA,1,"2007-06-12",NA,1,1,"Day 1 1h 0m",1,"PT1H","Day 1 Dose","2007-06-12",NA
"GLP003","PC","107001450",NA,197,"8m1","433626594710",NA,"XYZ12345","XYZ-12345","ANALYTE",NA,"9382.544593","ng/mL","9,382.54",9382.54459313156,"ng/mL",NA,NA,NA,"PLASMA",NA,NA,NA,NA,NA,NA,NA,NA,1,"2007-06-12",NA,1,1,"Day 1 1h 0m",1,"PT1H","Day 1 Dose","2007-06-12",NA
"GLP003","PC","107001471",NA,198,"8m1","433626594723",NA,"XYZ12345","XYZ-12345","ANALYTE",NA,"11197.942637","ng/mL","11,197.94",11197.9426368397,"ng/mL",NA,NA,NA,"PLASMA",NA,NA,NA,NA,NA,NA,NA,NA,1,"2007-06-12",NA,1,1,"Day 1 2h 0m",2,"PT2H","Day 1 Dose","2007-06-12",NA
"GLP003","PC","107001385",NA,199,"8m1","433626594735",NA,"XYZ12345","XYZ-12345","ANALYTE",NA,"15693.997943","ng/mL","15,694.00",15693.9979430206,"ng/mL",NA,NA,NA,"PLASMA",NA,NA,NA,NA,NA,NA,NA,NA,1,"2007-06-12",NA,1,1,"Day 1 2h 0m",2,"PT2H","Day 1 Dose","2007-06-12",NA
"GLP003","PC","107001367",NA,200,"8m1","433626594747",NA,"XYZ12345","XYZ-12345","ANALYTE",NA,"8857.62002","ng/mL","8,857.62",8857.62001982932,"ng/mL",NA,NA,NA,"PLASMA",NA,NA,NA,NA,NA,NA,NA,NA,1,"2007-06-12",NA,1,1,"Day 1 2h 0m",2,"PT2H","Day 1 Dose","2007-06-12",NA
"GLP003","PC","107001407",NA,201,"8m1","433626594652",NA,"XYZ12345","XYZ-12345","ANALYTE",NA,"9154.59876","ng/mL","9,154.60",9154.5987600806,"ng/mL",NA,NA,NA,"PLASMA",NA,NA,NA,NA,NA,NA,NA,NA,1,"2007-06-12",NA,1,1,"Day 1 4h 0m",4,"PT4H","Day 1 Dose","2007-06-12",NA
"GLP003","PC","107001436",NA,202,"8m1","433626594664",NA,"XYZ12345","XYZ-12345","ANALYTE",NA,"12239.461748","ng/mL","12,239.46",12239.4617478172,"ng/mL",NA,NA,NA,"PLASMA",NA,NA,NA,NA,NA,NA,NA,NA,1,"2007-06-12",NA,1,1,"Day 1 4h 0m",4,"PT4H","Day 1 Dose","2007-06-12",NA
"GLP003","PC","107001395",NA,203,"8m1","433626594676",NA,"XYZ12345","XYZ-12345","ANALYTE",NA,"11821.617886","ng/mL","11,821.62",11821.617886387,"ng/mL",NA,NA,NA,"PLASMA",NA,NA,NA,NA,NA,NA,NA,NA,1,"2007-06-12",NA,1,1,"Day 1 4h 0m",4,"PT4H","Day 1 Dose","2007-06-12",NA
"GLP003","PC","107001378",NA,204,"8m1","433626594689",NA,"XYZ12345","XYZ-12345","ANALYTE",NA,"9494.417202","ng/mL","9,494.42",9494.41720247008,"ng/mL",NA,NA,NA,"PLASMA",NA,NA,NA,NA,NA,NA,NA,NA,1,"2007-06-12",NA,1,1,"Day 1 8h 0m",8,"PT8M","Day 1 Dose","2007-06-12",NA
"GLP003","PC","107001464",NA,205,"8m1","433626594701",NA,"XYZ12345","XYZ-12345","ANALYTE",NA,"7783.504514","ng/mL","7,783.50",7783.50451392874,"ng/mL",NA,NA,NA,"PLASMA",NA,NA,NA,NA,NA,NA,NA,NA,1,"2007-06-12",NA,1,1,"Day 1 8h 0m",8,"PT8M","Day 1 Dose","2007-06-12",NA
"GLP003","PC","107001450",NA,206,"8m1","433626594713",NA,"XYZ12345","XYZ-12345","ANALYTE",NA,"13575.475868","ng/mL","13,575.48",13575.4758683378,"ng/mL",NA,NA,NA,"PLASMA",NA,NA,NA,NA,NA,NA,NA,NA,1,"2007-06-12",NA,1,1,"Day 1 8h 0m",8,"PT8M","Day 1 Dose","2007-06-12",NA
"GLP003","PC","107001471",NA,207,"8m1","433626594726",NA,"XYZ12345","XYZ-12345","ANALYTE",NA,"3993.949274","ng/mL","3,993.95",3993.94927414998,"ng/mL",NA,NA,NA,"PLASMA",NA,NA,NA,NA,NA,NA,NA,NA,1,"2007-06-12",NA,1,1,"Day 1 24h 0m",24,"PT24H","Day 1 Dose","2007-06-12",NA
"GLP003","PC","107001385",NA,208,"8m1","433626594738",NA,"XYZ12345","XYZ-12345","ANALYTE",NA,"6183.768265","ng/mL","6,183.77",6183.76826483914,"ng/mL",NA,NA,NA,"PLASMA",NA,NA,NA,NA,NA,NA,NA,NA,1,"2007-06-12",NA,1,1,"Day 1 24h 0m",24,"PT24H","Day 1 Dose","2007-06-12",NA
"GLP003","PC","107001367",NA,209,"8m1","433626594750",NA,"XYZ12345","XYZ-12345","ANALYTE",NA,"5705.368747","ng/mL","5,705.37",5705.36874673736,"ng/mL",NA,NA,NA,"PLASMA",NA,NA,NA,NA,NA,NA,NA,NA,1,"2007-06-12",NA,1,1,"Day 1 24h 0m",24,"PT24H","Day 1 Dose","2007-06-12",NA
"GLP003","PC","107001407",NA,210,"8m28","433626594655",NA,"XYZ12345","XYZ-12345","ANALYTE",NA,"3970.3973","ng/mL","3,970.40",3970.39730015508,"ng/mL",NA,NA,NA,"PLASMA",NA,NA,NA,NA,NA,NA,NA,NA,28,"2007-07-09",NA,28,28,"Day 28 .25h 0m",648.25,"PT15M","Day 28 Dose","2007-07-09",NA
"GLP003","PC","107001436",NA,211,"8m28","433626594667",NA,"XYZ12345","XYZ-12345","ANALYTE",NA,"3255.129078","ng/mL","3,255.13",3255.12907753256,"ng/mL",NA,NA,NA,"PLASMA",NA,NA,NA,NA,NA,NA,NA,NA,28,"2007-07-09",NA,28,28,"Day 28 .25h 0m",648.25,"PT15M","Day 28 Dose","2007-07-09",NA
"GLP003","PC","107001395",NA,212,"8m28","433626594679",NA,"XYZ12345","XYZ-12345","ANALYTE",NA,"3356.523435","ng/mL","3,356.52",3356.52343538354,"ng/mL",NA,NA,NA,"PLASMA",NA,NA,NA,NA,NA,NA,NA,NA,28,"2007-07-09",NA,28,28,"Day 28 .25h 0m",648.25,"PT15M","Day 28 Dose","2007-07-09",NA
"GLP003","PC","107001378",NA,213,"8m28","433626594692",NA,"XYZ12345","XYZ-12345","ANALYTE",NA,"9868.932082","ng/mL","9,868.93",9868.93208168484,"ng/mL",NA,NA,NA,"PLASMA",NA,NA,NA,NA,NA,NA,NA,NA,28,"2007-07-09",NA,28,28,"Day 28 1h 0m",649,"PT1H","Day 28 Dose","2007-07-09",NA
"GLP003","PC","107001464",NA,214,"8m28","433626594704",NA,"XYZ12345","XYZ-12345","ANALYTE",NA,"8378.083695","ng/mL","8,378.08",8378.08369532512,"ng/mL",NA,NA,NA,"PLASMA",NA,NA,NA,NA,NA,NA,NA,NA,28,"2007-07-09",NA,28,28,"Day 28 1h 0m",649,"PT1H","Day 28 Dose","2007-07-09",NA
"GLP003","PC","107001450",NA,215,"8m28","433626594716",NA,"XYZ12345","XYZ-12345","ANALYTE",NA,"8661.515006","ng/mL","8,661.52",8661.51500637274,"ng/mL",NA,NA,NA,"PLASMA",NA,NA,NA,NA,NA,NA,NA,NA,28,"2007-07-09",NA,28,28,"Day 28 1h 0m",649,"PT1H","Day 28 Dose","2007-07-09",NA
"GLP003","PC","107001471",NA,216,"8m28","433626594729",NA,"XYZ12345","XYZ-12345","ANALYTE",NA,"8817.955679","ng/mL","8,817.96",8817.9556787653,"ng/mL",NA,NA,NA,"PLASMA",NA,NA,NA,NA,NA,NA,NA,NA,28,"2007-07-09",NA,28,28,"Day 28 2h 0m",650,"PT2H","Day 28 Dose","2007-07-09",NA
"GLP003","PC","107001385",NA,217,"8m28","433626594741",NA,"XYZ12345","XYZ-12345","ANALYTE",NA,"10343.600512","ng/mL","10,343.60",10343.6005121631,"ng/mL",NA,NA,NA,"PLASMA",NA,NA,NA,NA,NA,NA,NA,NA,28,"2007-07-09",NA,28,28,"Day 28 2h 0m",650,"PT2H","Day 28 Dose","2007-07-09",NA
"GLP003","PC","107001367",NA,218,"8m28","433626594753",NA,"XYZ12345","XYZ-12345","ANALYTE",NA,"8697.471217","ng/mL","8,697.47",8697.47121715234,"ng/mL",NA,NA,NA,"PLASMA",NA,NA,NA,NA,NA,NA,NA,NA,28,"2007-07-09",NA,28,28,"Day 28 2h 0m",650,"PT2H","Day 28 Dose","2007-07-09",NA
"GLP003","PC","107001407",NA,219,"8m28","433626594658",NA,"XYZ12345","XYZ-12345","ANALYTE",NA,"8870.604366","ng/mL","8,870.60",8870.60436589664,"ng/mL",NA,NA,NA,"PLASMA",NA,NA,NA,NA,NA,NA,NA,NA,28,"2007-07-09",NA,28,28,"Day 28 4h 0m",652,"PT4H","Day 28 Dose","2007-07-09",NA
"GLP003","PC","107001436",NA,220,"8m28","433626594670",NA,"XYZ12345","XYZ-12345","ANALYTE",NA,"11968.295751","ng/mL","11,968.30",11968.2957507919,"ng/mL",NA,NA,NA,"PLASMA",NA,NA,NA,NA,NA,NA,NA,NA,28,"2007-07-09",NA,28,28,"Day 28 4h 0m",652,"PT4H","Day 28 Dose","2007-07-09",NA
"GLP003","PC","107001395",NA,221,"8m28","433626594682",NA,"XYZ12345","XYZ-12345","ANALYTE",NA,"9581.023961","ng/mL","9,581.02",9581.02396105862,"ng/mL",NA,NA,NA,"PLASMA",NA,NA,NA,NA,NA,NA,NA,NA,28,"2007-07-09",NA,28,28,"Day 28 4h 0m",652,"PT4H","Day 28 Dose","2007-07-09",NA
"GLP003","PC","107001378",NA,222,"8m28","433626594695",NA,"XYZ12345","XYZ-12345","ANALYTE",NA,"7615.381836","ng/mL","7,615.38",7615.38183580966,"ng/mL",NA,NA,NA,"PLASMA",NA,NA,NA,NA,NA,NA,NA,NA,28,"2007-07-09",NA,28,28,"Day 28 8h 0m",656,"PT8H","Day 28 Dose","2007-07-09",NA
"GLP003","PC","107001464",NA,223,"8m28","433626594707",NA,"XYZ12345","XYZ-12345","ANALYTE",NA,"5615.013016","ng/mL","5,615.01",5615.01301566392,"ng/mL",NA,NA,NA,"PLASMA",NA,NA,NA,NA,NA,NA,NA,NA,28,"2007-07-09",NA,28,28,"Day 28 8h 0m",656,"PT8H","Day 28 Dose","2007-07-09",NA
"GLP003","PC","107001450",NA,224,"8m28","433626594719",NA,"XYZ12345","XYZ-12345","ANALYTE",NA,"9147.863153","ng/mL","9,147.86",9147.86315326498,"ng/mL",NA,NA,NA,"PLASMA",NA,NA,NA,NA,NA,NA,NA,NA,28,"2007-07-09",NA,28,28,"Day 28 8h 0m",656,"PT8H","Day 28 Dose","2007-07-09",NA
"GLP003","PC","107001471",NA,225,"8m28","433626594732",NA,"XYZ12345","XYZ-12345","ANALYTE",NA,"3026.968305","ng/mL","3,026.97",3026.96830546762,"ng/mL",NA,NA,NA,"PLASMA",NA,NA,NA,NA,NA,NA,NA,NA,28,"2007-07-09",NA,28,28,"Day 28 24h 0m",672,"PT24H","Day 28 Dose","2007-07-09",NA
"GLP003","PC","107001385",NA,226,"8m28","433626594744",NA,"XYZ12345","XYZ-12345","ANALYTE",NA,"3596.222362","ng/mL","3,596.22",3596.22236196046,"ng/mL",NA,NA,NA,"PLASMA",NA,NA,NA,NA,NA,NA,NA,NA,28,"2007-07-09",NA,28,28,"Day 28 24h 0m",672,"PT24H","Day 28 Dose","2007-07-09",NA
"GLP003","PC","107001367",NA,227,"8m28","433626594756",NA,"XYZ12345","XYZ-12345","ANALYTE",NA,"4551.684861","ng/mL","4,551.68",4551.68486098878,"ng/mL",NA,NA,NA,"PLASMA",NA,NA,NA,NA,NA,NA,NA,NA,28,"2007-07-09",NA,28,28,"Day 28 24h 0m",672,"PT24H","Day 28 Dose","2007-07-09",NA
"GLP003","PC","107001526",NA,228,"8f1","433626594805",NA,"XYZ12345","XYZ-12345","ANALYTE",NA,"3303.976502","ng/mL","3,303.98",3303.97650186734,"ng/mL",NA,NA,NA,"PLASMA",NA,NA,NA,NA,NA,NA,NA,NA,1,"2007-06-14",NA,1,1,"Day 1 .25h 0m",0.25,"PT15M","Day 1 Dose","2007-06-14",NA
"GLP003","PC","107001634",NA,229,"8f1","433626594817",NA,"XYZ12345","XYZ-12345","ANALYTE",NA,"3452.105536","ng/mL","3,452.11",3452.10553647976,"ng/mL",NA,NA,NA,"PLASMA",NA,NA,NA,NA,NA,NA,NA,NA,1,"2007-06-14",NA,1,1,"Day 1 .25h 0m",0.25,"PT15M","Day 1 Dose","2007-06-14",NA
"GLP003","PC","107001564",NA,230,"8f1","433626594829",NA,"XYZ12345","XYZ-12345","ANALYTE",NA,"2212.963102","ng/mL","2,212.96",2212.9631024256,"ng/mL",NA,NA,NA,"PLASMA",NA,NA,NA,NA,NA,NA,NA,NA,1,"2007-06-14",NA,1,1,"Day 1 .25h 0m",0.25,"PT15M","Day 1 Dose","2007-06-14",NA
"GLP003","PC","107001575",NA,231,"8f1","433626594842",NA,"XYZ12345","XYZ-12345","ANALYTE",NA,"11308.565469","ng/mL","11,308.57",11308.5654691542,"ng/mL",NA,NA,NA,"PLASMA",NA,NA,NA,NA,NA,NA,NA,NA,1,"2007-06-14",NA,1,1,"Day 1 1h 0m",1,"PT1H","Day 1 Dose","2007-06-14",NA
"GLP003","PC","107001503",NA,232,"8f1","433626594854",NA,"XYZ12345","XYZ-12345","ANALYTE",NA,"10690.434712","ng/mL","10,690.43",10690.4347117449,"ng/mL",NA,NA,NA,"PLASMA",NA,NA,NA,NA,NA,NA,NA,NA,1,"2007-06-14",NA,1,1,"Day 1 1h 0m",1,"PT1H","Day 1 Dose","2007-06-14",NA
"GLP003","PC","107001527",NA,233,"8f1","433626594866",NA,"XYZ12345","XYZ-12345","ANALYTE",NA,"10453.54096","ng/mL","10,453.54",10453.540960263,"ng/mL",NA,NA,NA,"PLASMA",NA,NA,NA,NA,NA,NA,NA,NA,1,"2007-06-14",NA,1,1,"Day 1 1h 0m",1,"PT1H","Day 1 Dose","2007-06-14",NA
"GLP003","PC","107001512",NA,234,"8f1","433626594879",NA,"XYZ12345","XYZ-12345","ANALYTE",NA,"12327.380326","ng/mL","12,327.38",12327.3803264973,"ng/mL",NA,NA,NA,"PLASMA",NA,NA,NA,NA,NA,NA,NA,NA,1,"2007-06-14",NA,1,1,"Day 1 2h 0m",2,"PT2H","Day 1 Dose","2007-06-14",NA
"GLP003","PC","107001601",NA,235,"8f1","433626594891",NA,"XYZ12345","XYZ-12345","ANALYTE",NA,"13112.224966","ng/mL","13,112.22",13112.2249655701,"ng/mL",NA,NA,NA,"PLASMA",NA,NA,NA,NA,NA,NA,NA,NA,1,"2007-06-14",NA,1,1,"Day 1 2h 0m",2,"PT2H","Day 1 Dose","2007-06-14",NA
"GLP003","PC","107001590",NA,236,"8f1","433626594903",NA,"XYZ12345","XYZ-12345","ANALYTE",NA,"16703.709579","ng/mL","16,703.71",16703.7095789902,"ng/mL",NA,NA,NA,"PLASMA",NA,NA,NA,NA,NA,NA,NA,NA,1,"2007-06-14",NA,1,1,"Day 1 2h 0m",2,"PT2H","Day 1 Dose","2007-06-14",NA
"GLP003","PC","107001526",NA,237,"8f1","433626594808",NA,"XYZ12345","XYZ-12345","ANALYTE",NA,"13448.837412","ng/mL","13,448.84",13448.8374115805,"ng/mL",NA,NA,NA,"PLASMA",NA,NA,NA,NA,NA,NA,NA,NA,1,"2007-06-14",NA,1,1,"Day 1 4h 0m",4,"PT4H","Day 1 Dose","2007-06-14",NA
"GLP003","PC","107001634",NA,238,"8f1","433626594820",NA,"XYZ12345","XYZ-12345","ANALYTE",NA,"14565.636235","ng/mL","14,565.64",14565.6362348505,"ng/mL",NA,NA,NA,"PLASMA",NA,NA,NA,NA,NA,NA,NA,NA,1,"2007-06-14",NA,1,1,"Day 1 4h 0m",4,"PT4H","Day 1 Dose","2007-06-14",NA
"GLP003","PC","107001564",NA,239,"8f1","433626594832",NA,"XYZ12345","XYZ-12345","ANALYTE",NA,"11229.34008","ng/mL","11,229.34",11229.340080199,"ng/mL",NA,NA,NA,"PLASMA",NA,NA,NA,NA,NA,NA,NA,NA,1,"2007-06-14",NA,1,1,"Day 1 4h 0m",4,"PT4H","Day 1 Dose","2007-06-14",NA
"GLP003","PC","107001575",NA,240,"8f1","433626594845",NA,"XYZ12345","XYZ-12345","ANALYTE",NA,"9874.763753","ng/mL","9,874.76",9874.76375344012,"ng/mL",NA,NA,NA,"PLASMA",NA,NA,NA,NA,NA,NA,NA,NA,1,"2007-06-14",NA,1,1,"Day 1 8h 0m",8,"PT8M","Day 1 Dose","2007-06-14",NA
"GLP003","PC","107001503",NA,241,"8f1","433626594857",NA,"XYZ12345","XYZ-12345","ANALYTE",NA,"9155.148608","ng/mL","9,155.15",9155.14860845794,"ng/mL",NA,NA,NA,"PLASMA",NA,NA,NA,NA,NA,NA,NA,NA,1,"2007-06-14",NA,1,1,"Day 1 8h 0m",8,"PT8M","Day 1 Dose","2007-06-14",NA
"GLP003","PC","107001527",NA,242,"8f1","433626594869",NA,"XYZ12345","XYZ-12345","ANALYTE",NA,"8312.340451","ng/mL","8,312.34",8312.34045087624,"ng/mL",NA,NA,NA,"PLASMA",NA,NA,NA,NA,NA,NA,NA,NA,1,"2007-06-14",NA,1,1,"Day 1 8h 0m",8,"PT8M","Day 1 Dose","2007-06-14",NA
"GLP003","PC","107001512",NA,243,"8f1","433626594882",NA,"XYZ12345","XYZ-12345","ANALYTE",NA,"6103.089189","ng/mL","6,103.09",6103.0891890803,"ng/mL",NA,NA,NA,"PLASMA",NA,NA,NA,NA,NA,NA,NA,NA,1,"2007-06-14",NA,1,1,"Day 1 24h 0m",24,"PT24H","Day 1 Dose","2007-06-14",NA
"GLP003","PC","107001601",NA,244,"8f1","433626594894",NA,"XYZ12345","XYZ-12345","ANALYTE",NA,"3216.119936","ng/mL","3,216.12",3216.11993601108,"ng/mL",NA,NA,NA,"PLASMA",NA,NA,NA,NA,NA,NA,NA,NA,1,"2007-06-14",NA,1,1,"Day 1 24h 0m",24,"PT24H","Day 1 Dose","2007-06-14",NA
"GLP003","PC","107001590",NA,245,"8f1","433626594906",NA,"XYZ12345","XYZ-12345","ANALYTE",NA,"2727.633392","ng/mL","2,727.63",2727.63339154392,"ng/mL",NA,NA,NA,"PLASMA",NA,NA,NA,NA,NA,NA,NA,NA,1,"2007-06-14",NA,1,1,"Day 1 24h 0m",24,"PT24H","Day 1 Dose","2007-06-14",NA
"GLP003","PC","107001526",NA,246,"8f28","433626594811",NA,"XYZ12345","XYZ-12345","ANALYTE",NA,"5721.111644","ng/mL","5,721.11",5721.11164392156,"ng/mL",NA,NA,NA,"PLASMA",NA,NA,NA,NA,NA,NA,NA,NA,28,"2007-07-11",NA,28,28,"Day 28 .25h 0m",648.25,"PT15M","Day 28 Dose","2007-07-11",NA
"GLP003","PC","107001634",NA,247,"8f28","433626594823",NA,"XYZ12345","XYZ-12345","ANALYTE",NA,"6067.116031","ng/mL","6,067.12",6067.11603071058,"ng/mL",NA,NA,NA,"PLASMA",NA,NA,NA,NA,NA,NA,NA,NA,28,"2007-07-11",NA,28,28,"Day 28 .25h 0m",648.25,"PT15M","Day 28 Dose","2007-07-11",NA
"GLP003","PC","107001564",NA,248,"8f28","433626594835",NA,"XYZ12345","XYZ-12345","ANALYTE",NA,"5105.874884","ng/mL","5,105.87",5105.8748837747,"ng/mL",NA,NA,NA,"PLASMA",NA,NA,NA,NA,NA,NA,NA,NA,28,"2007-07-11",NA,28,28,"Day 28 .25h 0m",648.25,"PT15M","Day 28 Dose","2007-07-11",NA
"GLP003","PC","107001575",NA,249,"8f28","433626594848",NA,"XYZ12345","XYZ-12345","ANALYTE",NA,"13325.87559","ng/mL","13,325.88",13325.8755901688,"ng/mL",NA,NA,NA,"PLASMA",NA,NA,NA,NA,NA,NA,NA,NA,28,"2007-07-11",NA,28,28,"Day 28 1h 0m",649,"PT1H","Day 28 Dose","2007-07-11",NA
"GLP003","PC","107001503",NA,250,"8f28","433626594860",NA,"XYZ12345","XYZ-12345","ANALYTE",NA,"12910.635465","ng/mL","12,910.64",12910.6354646291,"ng/mL",NA,NA,NA,"PLASMA",NA,NA,NA,NA,NA,NA,NA,NA,28,"2007-07-11",NA,28,28,"Day 28 1h 0m",649,"PT1H","Day 28 Dose","2007-07-11",NA
"GLP003","PC","107001527",NA,251,"8f28","433626594872",NA,"XYZ12345","XYZ-12345","ANALYTE",NA,"12488.104431","ng/mL","12,488.10",12488.1044312388,"ng/mL",NA,NA,NA,"PLASMA",NA,NA,NA,NA,NA,NA,NA,NA,28,"2007-07-11",NA,28,28,"Day 28 1h 0m",649,"PT1H","Day 28 Dose","2007-07-11",NA
"GLP003","PC","107001512",NA,252,"8f28","433626594885",NA,"XYZ12345","XYZ-12345","ANALYTE",NA,"14139.110792","ng/mL","14,139.11",14139.1107917903,"ng/mL",NA,NA,NA,"PLASMA",NA,NA,NA,NA,NA,NA,NA,NA,28,"2007-07-11",NA,28,28,"Day 28 2h 0m",650,"PT2H","Day 28 Dose","2007-07-11",NA
"GLP003","PC","107001601",NA,253,"8f28","433626594897",NA,"XYZ12345","XYZ-12345","ANALYTE",NA,"15215.933842","ng/mL","15,215.93",15215.9338416759,"ng/mL",NA,NA,NA,"PLASMA",NA,NA,NA,NA,NA,NA,NA,NA,28,"2007-07-11",NA,28,28,"Day 28 2h 0m",650,"PT2H","Day 28 Dose","2007-07-11",NA
"GLP003","PC","107001590",NA,254,"8f28","433626594909",NA,"XYZ12345","XYZ-12345","ANALYTE",NA,"13646.630557","ng/mL","13,646.63",13646.6305569178,"ng/mL",NA,NA,NA,"PLASMA",NA,NA,NA,NA,NA,NA,NA,NA,28,"2007-07-11",NA,28,28,"Day 28 2h 0m",650,"PT2H","Day 28 Dose","2007-07-11",NA
"GLP003","PC","107001526",NA,255,"8f28","433626594814",NA,"XYZ12345","XYZ-12345","ANALYTE",NA,"16902.125609","ng/mL","16,902.13",16902.1256086837,"ng/mL",NA,NA,NA,"PLASMA",NA,NA,NA,NA,NA,NA,NA,NA,28,"2007-07-11",NA,28,28,"Day 28 4h 0m",652,"PT4H","Day 28 Dose","2007-07-11",NA
"GLP003","PC","107001634",NA,256,"8f28","433626594826",NA,"XYZ12345","XYZ-12345","ANALYTE",NA,"12692.418816","ng/mL","12,692.42",12692.4188161271,"ng/mL",NA,NA,NA,"PLASMA",NA,NA,NA,NA,NA,NA,NA,NA,28,"2007-07-11",NA,28,28,"Day 28 4h 0m",652,"PT4H","Day 28 Dose","2007-07-11",NA
"GLP003","PC","107001564",NA,257,"8f28","433626594838",NA,"XYZ12345","XYZ-12345","ANALYTE",NA,"9819.63366","ng/mL","9,819.63",9819.63365962076,"ng/mL",NA,NA,NA,"PLASMA",NA,NA,NA,NA,NA,NA,NA,NA,28,"2007-07-11",NA,28,28,"Day 28 4h 0m",652,"PT4H","Day 28 Dose","2007-07-11",NA
"GLP003","PC","107001575",NA,258,"8f28","433626594851",NA,"XYZ12345","XYZ-12345","ANALYTE",NA,"8417.068476","ng/mL","8,417.07",8417.0684763128,"ng/mL",NA,NA,NA,"PLASMA",NA,NA,NA,NA,NA,NA,NA,NA,28,"2007-07-11",NA,28,28,"Day 28 8h 0m",656,"PT8H","Day 28 Dose","2007-07-11",NA
"GLP003","PC","107001503",NA,259,"8f28","433626594863",NA,"XYZ12345","XYZ-12345","ANALYTE",NA,"6693.933164","ng/mL","6,693.93",6693.93316426178,"ng/mL",NA,NA,NA,"PLASMA",NA,NA,NA,NA,NA,NA,NA,NA,28,"2007-07-11",NA,28,28,"Day 28 8h 0m",656,"PT8H","Day 28 Dose","2007-07-11",NA
"GLP003","PC","107001527",NA,260,"8f28","433626594875",NA,"XYZ12345","XYZ-12345","ANALYTE",NA,"10263.324596","ng/mL","10,263.32",10263.3245960877,"ng/mL",NA,NA,NA,"PLASMA",NA,NA,NA,NA,NA,NA,NA,NA,28,"2007-07-11",NA,28,28,"Day 28 8h 0m",656,"PT8H","Day 28 Dose","2007-07-11",NA
"GLP003","PC","107001512",NA,261,"8f28","433626594888",NA,"XYZ12345","XYZ-12345","ANALYTE",NA,"5077.626882","ng/mL","5,077.63",5077.626882355,"ng/mL",NA,NA,NA,"PLASMA",NA,NA,NA,NA,NA,NA,NA,NA,28,"2007-07-11",NA,28,28,"Day 28 24h 0m",672,"PT24H","Day 28 Dose","2007-07-11",NA
"GLP003","PC","107001601",NA,262,"8f28","433626594900",NA,"XYZ12345","XYZ-12345","ANALYTE",NA,"3347.23784","ng/mL","3,347.24",3347.23784003376,"ng/mL",NA,NA,NA,"PLASMA",NA,NA,NA,NA,NA,NA,NA,NA,28,"2007-07-11",NA,28,28,"Day 28 24h 0m",672,"PT24H","Day 28 Dose","2007-07-11",NA
"GLP003","PC","107001590",NA,263,"8f28","433626594912",NA,"XYZ12345","XYZ-12345","ANALYTE",NA,"2393.97546","ng/mL","2,393.98",2393.9754596148,"ng/mL",NA,NA,NA,"PLASMA",NA,NA,NA,NA,NA,NA,NA,NA,28,"2007-07-11",NA,28,28,"Day 28 24h 0m",672,"PT24H","Day 28 Dose","2007-07-11",NA
"GLP003","PC","107001352",NA,264,"9m1","433626594961",NA,"XYZ12345","XYZ-12345","ANALYTE",NA,"9570.708286","ng/mL","9,570.71",9570.7082858909,"ng/mL",NA,NA,NA,"PLASMA",NA,NA,NA,NA,NA,NA,NA,NA,1,"2007-06-12",NA,1,1,"Day 1 .25h 0m",0.25,"PT15M","Day 1 Dose","2007-06-12",NA
"GLP003","PC","107001406",NA,265,"9m1","433626594973",NA,"XYZ12345","XYZ-12345","ANALYTE",NA,"12185.355667","ng/mL","12,185.36",12185.3556669371,"ng/mL",NA,NA,NA,"PLASMA",NA,NA,NA,NA,NA,NA,NA,NA,1,"2007-06-12",NA,1,1,"Day 1 .25h 0m",0.25,"PT15M","Day 1 Dose","2007-06-12",NA
"GLP003","PC","107001442",NA,266,"9m1","433626594985",NA,"XYZ12345","XYZ-12345","ANALYTE",NA,"9598.927362","ng/mL","9,598.93",9598.92736228215,"ng/mL",NA,NA,NA,"PLASMA",NA,NA,NA,NA,NA,NA,NA,NA,1,"2007-06-12",NA,1,1,"Day 1 .25h 0m",0.25,"PT15M","Day 1 Dose","2007-06-12",NA
"GLP003","PC","107001429",NA,267,"9m1","433626594998",NA,"XYZ12345","XYZ-12345","ANALYTE",NA,"36228.368348","ng/mL","36,228.37",36228.3683483585,"ng/mL",NA,NA,NA,"PLASMA",NA,NA,NA,NA,NA,NA,NA,NA,1,"2007-06-12",NA,1,1,"Day 1 1h 0m",1,"PT1H","Day 1 Dose","2007-06-12",NA
"GLP003","PC","107001409",NA,268,"9m1","433626595010",NA,"XYZ12345","XYZ-12345","ANALYTE",NA,"42008.860288","ng/mL","42,008.86",42008.8602878716,"ng/mL",NA,NA,NA,"PLASMA",NA,NA,NA,NA,NA,NA,NA,NA,1,"2007-06-12",NA,1,1,"Day 1 1h 0m",1,"PT1H","Day 1 Dose","2007-06-12",NA
"GLP003","PC","107001430",NA,269,"9m1","433626595022",NA,"XYZ12345","XYZ-12345","ANALYTE",NA,"36092.175144","ng/mL","36,092.18",36092.1751437934,"ng/mL",NA,NA,NA,"PLASMA",NA,NA,NA,NA,NA,NA,NA,NA,1,"2007-06-12",NA,1,1,"Day 1 1h 0m",1,"PT1H","Day 1 Dose","2007-06-12",NA
"GLP003","PC","107001444",NA,270,"9m1","433626595035",NA,"XYZ12345","XYZ-12345","ANALYTE",NA,"39135.226628","ng/mL","39,135.23",39135.2266280879,"ng/mL",NA,NA,NA,"PLASMA",NA,NA,NA,NA,NA,NA,NA,NA,1,"2007-06-12",NA,1,1,"Day 1 2h 0m",2,"PT2H","Day 1 Dose","2007-06-12",NA
"GLP003","PC","107001354",NA,271,"9m1","433626595047",NA,"XYZ12345","XYZ-12345","ANALYTE",NA,"43458.842428","ng/mL","43,458.84",43458.842428457,"ng/mL",NA,NA,NA,"PLASMA",NA,NA,NA,NA,NA,NA,NA,NA,1,"2007-06-12",NA,1,1,"Day 1 2h 0m",2,"PT2H","Day 1 Dose","2007-06-12",NA
"GLP003","PC","107001402",NA,272,"9m1","433626595059",NA,"XYZ12345","XYZ-12345","ANALYTE",NA,"57973.257508","ng/mL","57,973.26",57973.2575077189,"ng/mL",NA,NA,NA,"PLASMA",NA,NA,NA,NA,NA,NA,NA,NA,1,"2007-06-12",NA,1,1,"Day 1 2h 0m",2,"PT2H","Day 1 Dose","2007-06-12",NA
"GLP003","PC","107001352",NA,273,"9m1","433626594964",NA,"XYZ12345","XYZ-12345","ANALYTE",NA,"51605.542637","ng/mL","51,605.54",51605.5426369649,"ng/mL",NA,NA,NA,"PLASMA",NA,NA,NA,NA,NA,NA,NA,NA,1,"2007-06-12",NA,1,1,"Day 1 4h 0m",4,"PT4H","Day 1 Dose","2007-06-12",NA
"GLP003","PC","107001406",NA,274,"9m1","433626594976",NA,"XYZ12345","XYZ-12345","ANALYTE",NA,"51786.536175","ng/mL","51,786.54",51786.5361750765,"ng/mL",NA,NA,NA,"PLASMA",NA,NA,NA,NA,NA,NA,NA,NA,1,"2007-06-12",NA,1,1,"Day 1 4h 0m",4,"PT4H","Day 1 Dose","2007-06-12",NA
"GLP003","PC","107001442",NA,275,"9m1","433626594988",NA,"XYZ12345","XYZ-12345","ANALYTE",NA,"42292.258663","ng/mL","42,292.26",42292.2586633936,"ng/mL",NA,NA,NA,"PLASMA",NA,NA,NA,NA,NA,NA,NA,NA,1,"2007-06-12",NA,1,1,"Day 1 4h 0m",4,"PT4H","Day 1 Dose","2007-06-12",NA
"GLP003","PC","107001429",NA,276,"9m1","433626595001",NA,"XYZ12345","XYZ-12345","ANALYTE",NA,"42293.229472","ng/mL","42,293.23",42293.229472042,"ng/mL",NA,NA,NA,"PLASMA",NA,NA,NA,NA,NA,NA,NA,NA,1,"2007-06-12",NA,1,1,"Day 1 8h 0m",8,"PT8M","Day 1 Dose","2007-06-12",NA
"GLP003","PC","107001409",NA,277,"9m1","433626595013",NA,"XYZ12345","XYZ-12345","ANALYTE",NA,"50668.77728","ng/mL","50,668.78",50668.7772802353,"ng/mL",NA,NA,NA,"PLASMA",NA,NA,NA,NA,NA,NA,NA,NA,1,"2007-06-12",NA,1,1,"Day 1 8h 0m",8,"PT8M","Day 1 Dose","2007-06-12",NA
"GLP003","PC","107001430",NA,278,"9m1","433626595025",NA,"XYZ12345","XYZ-12345","ANALYTE",NA,"48081.460758","ng/mL","48,081.46",48081.4607581866,"ng/mL",NA,NA,NA,"PLASMA",NA,NA,NA,NA,NA,NA,NA,NA,1,"2007-06-12",NA,1,1,"Day 1 8h 0m",8,"PT8M","Day 1 Dose","2007-06-12",NA
"GLP003","PC","107001444",NA,279,"9m1","433626595038",NA,"XYZ12345","XYZ-12345","ANALYTE",NA,"11497.329078","ng/mL","11,497.33",11497.3290784546,"ng/mL",NA,NA,NA,"PLASMA",NA,NA,NA,NA,NA,NA,NA,NA,1,"2007-06-12",NA,1,1,"Day 1 24h 0m",24,"PT24H","Day 1 Dose","2007-06-12",NA
"GLP003","PC","107001354",NA,280,"9m1","433626595050",NA,"XYZ12345","XYZ-12345","ANALYTE",NA,"15978.731462","ng/mL","15,978.73",15978.7314615768,"ng/mL",NA,NA,NA,"PLASMA",NA,NA,NA,NA,NA,NA,NA,NA,1,"2007-06-12",NA,1,1,"Day 1 24h 0m",24,"PT24H","Day 1 Dose","2007-06-12",NA
"GLP003","PC","107001402",NA,281,"9m1","433626595062",NA,"XYZ12345","XYZ-12345","ANALYTE",NA,"21413.737332","ng/mL","21,413.74",21413.7373321885,"ng/mL",NA,NA,NA,"PLASMA",NA,NA,NA,NA,NA,NA,NA,NA,1,"2007-06-12",NA,1,1,"Day 1 24h 0m",24,"PT24H","Day 1 Dose","2007-06-12",NA
"GLP003","PC","107001352",NA,282,"9m28","433626594967",NA,"XYZ12345","XYZ-12345","ANALYTE",NA,"16776.669409","ng/mL","16,776.67",16776.6694092992,"ng/mL",NA,NA,NA,"PLASMA",NA,NA,NA,NA,NA,NA,NA,NA,28,"2007-07-09",NA,28,28,"Day 28 .25h 0m",648.25,"PT15M","Day 28 Dose","2007-07-09",NA
"GLP003","PC","107001406",NA,283,"9m28","433626594979",NA,"XYZ12345","XYZ-12345","ANALYTE",NA,"15731.612655","ng/mL","15,731.61",15731.6126549521,"ng/mL",NA,NA,NA,"PLASMA",NA,NA,NA,NA,NA,NA,NA,NA,28,"2007-07-09",NA,28,28,"Day 28 .25h 0m",648.25,"PT15M","Day 28 Dose","2007-07-09",NA
"GLP003","PC","107001442",NA,284,"9m28","433626594991",NA,"XYZ12345","XYZ-12345","ANALYTE",NA,"12014.262516","ng/mL","12,014.26",12014.2625164813,"ng/mL",NA,NA,NA,"PLASMA",NA,NA,NA,NA,NA,NA,NA,NA,28,"2007-07-09",NA,28,28,"Day 28 .25h 0m",648.25,"PT15M","Day 28 Dose","2007-07-09",NA
"GLP003","PC","107001429",NA,285,"9m28","433626595004",NA,"XYZ12345","XYZ-12345","ANALYTE",NA,"32785.809399","ng/mL","32,785.81",32785.8093986462,"ng/mL",NA,NA,NA,"PLASMA",NA,NA,NA,NA,NA,NA,NA,NA,28,"2007-07-09",NA,28,28,"Day 28 1h 0m",649,"PT1H","Day 28 Dose","2007-07-09",NA
"GLP003","PC","107001409",NA,286,"9m28","433626595016",NA,"XYZ12345","XYZ-12345","ANALYTE",NA,"41228.589353","ng/mL","41,228.59",41228.5893527393,"ng/mL",NA,NA,NA,"PLASMA",NA,NA,NA,NA,NA,NA,NA,NA,28,"2007-07-09",NA,28,28,"Day 28 1h 0m",649,"PT1H","Day 28 Dose","2007-07-09",NA
"GLP003","PC","107001430",NA,287,"9m28","433626595028",NA,"XYZ12345","XYZ-12345","ANALYTE",NA,"35535.439853","ng/mL","35,535.44",35535.4398530691,"ng/mL",NA,NA,NA,"PLASMA",NA,NA,NA,NA,NA,NA,NA,NA,28,"2007-07-09",NA,28,28,"Day 28 1h 0m",649,"PT1H","Day 28 Dose","2007-07-09",NA
"GLP003","PC","107001444",NA,288,"9m28","433626595041",NA,"XYZ12345","XYZ-12345","ANALYTE",NA,"39752.744402","ng/mL","39,752.74",39752.7444017494,"ng/mL",NA,NA,NA,"PLASMA",NA,NA,NA,NA,NA,NA,NA,NA,28,"2007-07-09",NA,28,28,"Day 28 2h 0m",650,"PT2H","Day 28 Dose","2007-07-09",NA
"GLP003","PC","107001354",NA,289,"9m28","433626595053",NA,"XYZ12345","XYZ-12345","ANALYTE",NA,"36079.901607","ng/mL","36,079.90",36079.9016073535,"ng/mL",NA,NA,NA,"PLASMA",NA,NA,NA,NA,NA,NA,NA,NA,28,"2007-07-09",NA,28,28,"Day 28 2h 0m",650,"PT2H","Day 28 Dose","2007-07-09",NA
"GLP003","PC","107001402",NA,290,"9m28","433626595065",NA,"XYZ12345","XYZ-12345","ANALYTE",NA,"41498.551774","ng/mL","41,498.55",41498.5517742152,"ng/mL",NA,NA,NA,"PLASMA",NA,NA,NA,NA,NA,NA,NA,NA,28,"2007-07-09",NA,28,28,"Day 28 2h 0m",650,"PT2H","Day 28 Dose","2007-07-09",NA
"GLP003","PC","107001352",NA,291,"9m28","433626594970",NA,"XYZ12345","XYZ-12345","ANALYTE",NA,"32726.766415","ng/mL","32,726.77",32726.7664150321,"ng/mL",NA,NA,NA,"PLASMA",NA,NA,NA,NA,NA,NA,NA,NA,28,"2007-07-09",NA,28,28,"Day 28 4h 0m",652,"PT4H","Day 28 Dose","2007-07-09",NA
"GLP003","PC","107001406",NA,292,"9m28","433626594982",NA,"XYZ12345","XYZ-12345","ANALYTE",NA,"47417.205751","ng/mL","47,417.21",47417.2057509474,"ng/mL",NA,NA,NA,"PLASMA",NA,NA,NA,NA,NA,NA,NA,NA,28,"2007-07-09",NA,28,28,"Day 28 4h 0m",652,"PT4H","Day 28 Dose","2007-07-09",NA
"GLP003","PC","107001442",NA,293,"9m28","433626594994",NA,"XYZ12345","XYZ-12345","ANALYTE",NA,"33764.538435","ng/mL","33,764.54",33764.538434679,"ng/mL",NA,NA,NA,"PLASMA",NA,NA,NA,NA,NA,NA,NA,NA,28,"2007-07-09",NA,28,28,"Day 28 4h 0m",652,"PT4H","Day 28 Dose","2007-07-09",NA
"GLP003","PC","107001429",NA,294,"9m28","433626595007",NA,"XYZ12345","XYZ-12345","ANALYTE",NA,"15564.546211","ng/mL","15,564.55",15564.546210849,"ng/mL",NA,NA,NA,"PLASMA",NA,NA,NA,NA,NA,NA,NA,NA,28,"2007-07-09",NA,28,28,"Day 28 8h 0m",656,"PT8H","Day 28 Dose","2007-07-09",NA
"GLP003","PC","107001409",NA,295,"9m28","433626595019",NA,"XYZ12345","XYZ-12345","ANALYTE",NA,"27990.887611","ng/mL","27,990.89",27990.8876114678,"ng/mL",NA,NA,NA,"PLASMA",NA,NA,NA,NA,NA,NA,NA,NA,28,"2007-07-09",NA,28,28,"Day 28 8h 0m",656,"PT8H","Day 28 Dose","2007-07-09",NA
"GLP003","PC","107001430",NA,296,"9m28","433626595031",NA,"XYZ12345","XYZ-12345","ANALYTE",NA,"18765.301921","ng/mL","18,765.30",18765.3019214509,"ng/mL",NA,NA,NA,"PLASMA",NA,NA,NA,NA,NA,NA,NA,NA,28,"2007-07-09",NA,28,28,"Day 28 8h 0m",656,"PT8H","Day 28 Dose","2007-07-09",NA
"GLP003","PC","107001444",NA,297,"9m28","433626595044",NA,"XYZ12345","XYZ-12345","ANALYTE",NA,"5876.278453","ng/mL","5,876.28",5876.27845269235,"ng/mL",NA,NA,NA,"PLASMA",NA,NA,NA,NA,NA,NA,NA,NA,28,"2007-07-09",NA,28,28,"Day 28 24h 0m",672,"PT24H","Day 28 Dose","2007-07-09",NA
"GLP003","PC","107001354",NA,298,"9m28","433626595056",NA,"XYZ12345","XYZ-12345","ANALYTE",NA,"10577.25905","ng/mL","10,577.26",10577.2590504539,"ng/mL",NA,NA,NA,"PLASMA",NA,NA,NA,NA,NA,NA,NA,NA,28,"2007-07-09",NA,28,28,"Day 28 24h 0m",672,"PT24H","Day 28 Dose","2007-07-09",NA
"GLP003","PC","107001402",NA,299,"9m28","433626595068",NA,"XYZ12345","XYZ-12345","ANALYTE",NA,"5631.959549","ng/mL","5,631.96",5631.95954899165,"ng/mL",NA,NA,NA,"PLASMA",NA,NA,NA,NA,NA,NA,NA,NA,28,"2007-07-09",NA,28,28,"Day 28 24h 0m",672,"PT24H","Day 28 Dose","2007-07-09",NA
"GLP003","PC","107001557",NA,300,"9f1","433626595117",NA,"XYZ12345","XYZ-12345","ANALYTE",NA,"18730.698027","ng/mL","18,730.70",18730.6980273208,"ng/mL",NA,NA,NA,"PLASMA",NA,NA,NA,NA,NA,NA,NA,NA,1,"2007-06-14",NA,1,1,"Day 1 .25h 0m",0.25,"PT15M","Day 1 Dose","2007-06-14",NA
"GLP003","PC","107001572",NA,301,"9f1","433626595129",NA,"XYZ12345","XYZ-12345","ANALYTE",NA,"18744.447623","ng/mL","18,744.45",18744.4476227845,"ng/mL",NA,NA,NA,"PLASMA",NA,NA,NA,NA,NA,NA,NA,NA,1,"2007-06-14",NA,1,1,"Day 1 .25h 0m",0.25,"PT15M","Day 1 Dose","2007-06-14",NA
"GLP003","PC","107001632",NA,302,"9f1","433626595141",NA,"XYZ12345","XYZ-12345","ANALYTE",NA,"15209.158634","ng/mL","15,209.16",15209.1586335827,"ng/mL",NA,NA,NA,"PLASMA",NA,NA,NA,NA,NA,NA,NA,NA,1,"2007-06-14",NA,1,1,"Day 1 .25h 0m",0.25,"PT15M","Day 1 Dose","2007-06-14",NA
"GLP003","PC","107001550",NA,303,"9f1","433626595154",NA,"XYZ12345","XYZ-12345","ANALYTE",NA,"45599.882712","ng/mL","45,599.88",45599.8827120397,"ng/mL",NA,NA,NA,"PLASMA",NA,NA,NA,NA,NA,NA,NA,NA,1,"2007-06-14",NA,1,1,"Day 1 1h 0m",1,"PT1H","Day 1 Dose","2007-06-14",NA
"GLP003","PC","107001593",NA,304,"9f1","433626595166",NA,"XYZ12345","XYZ-12345","ANALYTE",NA,"49271.323439","ng/mL","49,271.32",49271.3234394307,"ng/mL",NA,NA,NA,"PLASMA",NA,NA,NA,NA,NA,NA,NA,NA,1,"2007-06-14",NA,1,1,"Day 1 1h 0m",1,"PT1H","Day 1 Dose","2007-06-14",NA
"GLP003","PC","107001596",NA,305,"9f1","433626595178",NA,"XYZ12345","XYZ-12345","ANALYTE",NA,"49754.735249","ng/mL","49,754.74",49754.7352493751,"ng/mL",NA,NA,NA,"PLASMA",NA,NA,NA,NA,NA,NA,NA,NA,1,"2007-06-14",NA,1,1,"Day 1 1h 0m",1,"PT1H","Day 1 Dose","2007-06-14",NA
"GLP003","PC","107001586",NA,306,"9f1","433626595203",NA,"XYZ12345","XYZ-12345","ANALYTE",NA,"46480.947326","ng/mL","46,480.95",46480.9473260249,"ng/mL",NA,NA,NA,"PLASMA",NA,NA,NA,NA,NA,NA,NA,NA,1,"2007-06-14",NA,1,1,"Day 1 2h 0m",2,"PT2H","Day 1 Dose","2007-06-14",NA
"GLP003","PC","107001546",NA,307,"9f1","433626595215",NA,"XYZ12345","XYZ-12345","ANALYTE",NA,"47708.996162","ng/mL","47,709.00",47708.9961615388,"ng/mL",NA,NA,NA,"PLASMA",NA,NA,NA,NA,NA,NA,NA,NA,1,"2007-06-14",NA,1,1,"Day 1 2h 0m",2,"PT2H","Day 1 Dose","2007-06-14",NA
"GLP003","PC","107001623",NA,308,"9f1","433626595191",NA,"XYZ12345","XYZ-12345","ANALYTE",NA,"45183.936777","ng/mL","45,183.94",45183.936777065,"ng/mL",NA,NA,NA,"PLASMA",NA,NA,NA,NA,NA,NA,NA,NA,1,"2007-06-14",NA,1,1,"Day 1 2h 0m",2,"PT2H","Day 1 Dose","2007-06-14",NA
"GLP003","PC","107001557",NA,309,"9f1","433626595120",NA,"XYZ12345","XYZ-12345","ANALYTE",NA,"48931.520563","ng/mL","48,931.52",48931.520562834,"ng/mL",NA,NA,NA,"PLASMA",NA,NA,NA,NA,NA,NA,NA,NA,1,"2007-06-14",NA,1,1,"Day 1 4h 0m",4,"PT4H","Day 1 Dose","2007-06-14",NA
"GLP003","PC","107001572",NA,310,"9f1","433626595132",NA,"XYZ12345","XYZ-12345","ANALYTE",NA,"55346.705062","ng/mL","55,346.71",55346.7050617201,"ng/mL",NA,NA,NA,"PLASMA",NA,NA,NA,NA,NA,NA,NA,NA,1,"2007-06-14",NA,1,1,"Day 1 4h 0m",4,"PT4H","Day 1 Dose","2007-06-14",NA
"GLP003","PC","107001632",NA,311,"9f1","433626595144",NA,"XYZ12345","XYZ-12345","ANALYTE",NA,"53930.939725","ng/mL","53,930.94",53930.9397249129,"ng/mL",NA,NA,NA,"PLASMA",NA,NA,NA,NA,NA,NA,NA,NA,1,"2007-06-14",NA,1,1,"Day 1 4h 0m",4,"PT4H","Day 1 Dose","2007-06-14",NA
"GLP003","PC","107001550",NA,312,"9f1","433626595157",NA,"XYZ12345","XYZ-12345","ANALYTE",NA,"41523.434281","ng/mL","41,523.43",41523.434280995,"ng/mL",NA,NA,NA,"PLASMA",NA,NA,NA,NA,NA,NA,NA,NA,1,"2007-06-14",NA,1,1,"Day 1 8h 0m",8,"PT8M","Day 1 Dose","2007-06-14",NA
"GLP003","PC","107001593",NA,313,"9f1","433626595169",NA,"XYZ12345","XYZ-12345","ANALYTE",NA,"39822.812971","ng/mL","39,822.81",39822.8129711319,"ng/mL",NA,NA,NA,"PLASMA",NA,NA,NA,NA,NA,NA,NA,NA,1,"2007-06-14",NA,1,1,"Day 1 8h 0m",8,"PT8M","Day 1 Dose","2007-06-14",NA
"GLP003","PC","107001596",NA,314,"9f1","433626595181",NA,"XYZ12345","XYZ-12345","ANALYTE",NA,"45941.670974","ng/mL","45,941.67",45941.6709742343,"ng/mL",NA,NA,NA,"PLASMA",NA,NA,NA,NA,NA,NA,NA,NA,1,"2007-06-14",NA,1,1,"Day 1 8h 0m",8,"PT8M","Day 1 Dose","2007-06-14",NA
"GLP003","PC","107001586",NA,315,"9f1","433626595206",NA,"XYZ12345","XYZ-12345","ANALYTE",NA,"30235.375787","ng/mL","30,235.38",30235.3757869002,"ng/mL",NA,NA,NA,"PLASMA",NA,NA,NA,NA,NA,NA,NA,NA,1,"2007-06-14",NA,1,1,"Day 1 24h 0m",24,"PT24H","Day 1 Dose","2007-06-14",NA
"GLP003","PC","107001546",NA,316,"9f1","433626595218",NA,"XYZ12345","XYZ-12345","ANALYTE",NA,"15140.74535","ng/mL","15,140.75",15140.745349642,"ng/mL",NA,NA,NA,"PLASMA",NA,NA,NA,NA,NA,NA,NA,NA,1,"2007-06-14",NA,1,1,"Day 1 24h 0m",24,"PT24H","Day 1 Dose","2007-06-14",NA
"GLP003","PC","107001623",NA,317,"9f1","433626595194",NA,"XYZ12345","XYZ-12345","ANALYTE",NA,"22954.441539","ng/mL","22,954.44",22954.4415390259,"ng/mL",NA,NA,NA,"PLASMA",NA,NA,NA,NA,NA,NA,NA,NA,1,"2007-06-14",NA,1,1,"Day 1 24h 0m",24,"PT24H","Day 1 Dose","2007-06-14",NA
"GLP003","PC","107001557",NA,318,"9f28","433626595123",NA,"XYZ12345","XYZ-12345","ANALYTE",NA,"20624.563014","ng/mL","20,624.56",20624.5630136645,"ng/mL",NA,NA,NA,"PLASMA",NA,NA,NA,NA,NA,NA,NA,NA,28,"2007-07-11",NA,28,28,"Day 28 .25h 0m",648.25,"PT15M","Day 28 Dose","2007-07-11",NA
"GLP003","PC","107001572",NA,319,"9f28","433626595135",NA,"XYZ12345","XYZ-12345","ANALYTE",NA,"23047.658954","ng/mL","23,047.66",23047.6589542279,"ng/mL",NA,NA,NA,"PLASMA",NA,NA,NA,NA,NA,NA,NA,NA,28,"2007-07-11",NA,28,28,"Day 28 .25h 0m",648.25,"PT15M","Day 28 Dose","2007-07-11",NA
"GLP003","PC","107001632",NA,320,"9f28","433626595147",NA,"XYZ12345","XYZ-12345","ANALYTE",NA,"25869.211742","ng/mL","25,869.21",25869.2117421028,"ng/mL",NA,NA,NA,"PLASMA",NA,NA,NA,NA,NA,NA,NA,NA,28,"2007-07-11",NA,28,28,"Day 28 .25h 0m",648.25,"PT15M","Day 28 Dose","2007-07-11",NA
"GLP003","PC","107001550",NA,321,"9f28","433626595160",NA,"XYZ12345","XYZ-12345","ANALYTE",NA,"55502.925988","ng/mL","55,502.93",55502.9259884919,"ng/mL",NA,NA,NA,"PLASMA",NA,NA,NA,NA,NA,NA,NA,NA,28,"2007-07-11",NA,28,28,"Day 28 1h 0m",649,"PT1H","Day 28 Dose","2007-07-11",NA
"GLP003","PC","107001593",NA,322,"9f28","433626595172",NA,"XYZ12345","XYZ-12345","ANALYTE",NA,"60292.451666","ng/mL","60,292.45",60292.4516657258,"ng/mL",NA,NA,NA,"PLASMA",NA,NA,NA,NA,NA,NA,NA,NA,28,"2007-07-11",NA,28,28,"Day 28 1h 0m",649,"PT1H","Day 28 Dose","2007-07-11",NA
"GLP003","PC","107001596",NA,323,"9f28","433626595184",NA,"XYZ12345","XYZ-12345","ANALYTE",NA,"60305.430889","ng/mL","60,305.43",60305.4308891609,"ng/mL",NA,NA,NA,"PLASMA",NA,NA,NA,NA,NA,NA,NA,NA,28,"2007-07-11",NA,28,28,"Day 28 1h 0m",649,"PT1H","Day 28 Dose","2007-07-11",NA
"GLP003","PC","107001586",NA,324,"9f28","433626595209",NA,"XYZ12345","XYZ-12345","ANALYTE",NA,"53991.77181","ng/mL","53,991.77",53991.7718097086,"ng/mL",NA,NA,NA,"PLASMA",NA,NA,NA,NA,NA,NA,NA,NA,28,"2007-07-11",NA,28,28,"Day 28 2h 0m",650,"PT2H","Day 28 Dose","2007-07-11",NA
"GLP003","PC","107001546",NA,325,"9f28","433626595221",NA,"XYZ12345","XYZ-12345","ANALYTE",NA,"54134.555945","ng/mL","54,134.56",54134.5559452117,"ng/mL",NA,NA,NA,"PLASMA",NA,NA,NA,NA,NA,NA,NA,NA,28,"2007-07-11",NA,28,28,"Day 28 2h 0m",650,"PT2H","Day 28 Dose","2007-07-11",NA
"GLP003","PC","107001623",NA,326,"9f28","433626595197",NA,"XYZ12345","XYZ-12345","ANALYTE",NA,"63127.029073","ng/mL","63,127.03",63127.0290733325,"ng/mL",NA,NA,NA,"PLASMA",NA,NA,NA,NA,NA,NA,NA,NA,28,"2007-07-11",NA,28,28,"Day 28 2h 0m",650,"PT2H","Day 28 Dose","2007-07-11",NA
"GLP003","PC","107001557",NA,327,"9f28","433626595126",NA,"XYZ12345","XYZ-12345","ANALYTE",NA,"72016.680647","ng/mL","72,016.68",72016.6806468152,"ng/mL",NA,NA,NA,"PLASMA",NA,NA,NA,NA,NA,NA,NA,NA,28,"2007-07-11",NA,28,28,"Day 28 4h 0m",652,"PT4H","Day 28 Dose","2007-07-11",NA
"GLP003","PC","107001572",NA,328,"9f28","433626595138",NA,"XYZ12345","XYZ-12345","ANALYTE",NA,"55555.012361","ng/mL","55,555.01",55555.0123607889,"ng/mL",NA,NA,NA,"PLASMA",NA,NA,NA,NA,NA,NA,NA,NA,28,"2007-07-11",NA,28,28,"Day 28 4h 0m",652,"PT4H","Day 28 Dose","2007-07-11",NA
"GLP003","PC","107001632",NA,329,"9f28","433626595150",NA,"XYZ12345","XYZ-12345","ANALYTE",NA,"68818.771375","ng/mL","68,818.77",68818.7713746681,"ng/mL",NA,NA,NA,"PLASMA",NA,NA,NA,NA,NA,NA,NA,NA,28,"2007-07-11",NA,28,28,"Day 28 4h 0m",652,"PT4H","Day 28 Dose","2007-07-11",NA
"GLP003","PC","107001550",NA,330,"9f28","433626595163",NA,"XYZ12345","XYZ-12345","ANALYTE",NA,"20235.280881","ng/mL","20,235.28",20235.2808808195,"ng/mL",NA,NA,NA,"PLASMA",NA,NA,NA,NA,NA,NA,NA,NA,28,"2007-07-11",NA,28,28,"Day 28 8h 0m",656,"PT8H","Day 28 Dose","2007-07-11",NA
"GLP003","PC","107001593",NA,331,"9f28","433626595175",NA,"XYZ12345","XYZ-12345","ANALYTE",NA,"22252.866034","ng/mL","22,252.87",22252.8660344203,"ng/mL",NA,NA,NA,"PLASMA",NA,NA,NA,NA,NA,NA,NA,NA,28,"2007-07-11",NA,28,28,"Day 28 8h 0m",656,"PT8H","Day 28 Dose","2007-07-11",NA
"GLP003","PC","107001596",NA,332,"9f28","433626595187",NA,"XYZ12345","XYZ-12345","ANALYTE",NA,"28402.11881","ng/mL","28,402.12",28402.1188100692,"ng/mL",NA,NA,NA,"PLASMA",NA,NA,NA,NA,NA,NA,NA,NA,28,"2007-07-11",NA,28,28,"Day 28 8h 0m",656,"PT8H","Day 28 Dose","2007-07-11",NA
"GLP003","PC","107001586",NA,333,"9f28","433626595212",NA,"XYZ12345","XYZ-12345","ANALYTE",NA,"13827.841387","ng/mL","13,827.84",13827.8413868832,"ng/mL",NA,NA,NA,"PLASMA",NA,NA,NA,NA,NA,NA,NA,NA,28,"2007-07-11",NA,28,28,"Day 28 24h 0m",672,"PT24H","Day 28 Dose","2007-07-11",NA
"GLP003","PC","107001546",NA,334,"9f28","433626595224",NA,"XYZ12345","XYZ-12345","ANALYTE",NA,"13159.699933","ng/mL","13,159.70",13159.6999327523,"ng/mL",NA,NA,NA,"PLASMA",NA,NA,NA,NA,NA,NA,NA,NA,28,"2007-07-11",NA,28,28,"Day 28 24h 0m",672,"PT24H","Day 28 Dose","2007-07-11",NA
"GLP003","PC","107001623",NA,335,"9f28","433626595200",NA,"XYZ12345","XYZ-12345","ANALYTE",NA,"14861.879983","ng/mL","14,861.88",14861.8799833787,"ng/mL",NA,NA,NA,"PLASMA",NA,NA,NA,NA,NA,NA,NA,NA,28,"2007-07-11",NA,28,28,"Day 28 24h 0m",672,"PT24H","Day 28 Dose","2007-07-11",NA
"GLP003","PC","107001405",NA,336,"10m1","433626593857",NA,"XYZ12345","XYZ-12345","ANALYTE",NA,"8531.16757","ng/mL","8,531.17",8531.17,"ng/mL",NA,NA,NA,"PLASMA",NA,NA,NA,NA,NA,NA,NA,NA,1,"2007-06-12",NA,1,1,"Day 1 .25h 0m",0.25,"PT15M","Day 1 Dose","2007-06-12",NA
"GLP003","PC","107001463",NA,337,"10m1","433626593869",NA,"XYZ12345","XYZ-12345","ANALYTE",NA,"10263.595195","ng/mL","10,263.60",10263.6,"ng/mL",NA,NA,NA,"PLASMA",NA,NA,NA,NA,NA,NA,NA,NA,1,"2007-06-12",NA,1,1,"Day 1 .25h 0m",0.25,"PT15M","Day 1 Dose","2007-06-12",NA
"GLP003","PC","107001494",NA,338,"10m1","433626593881",NA,"XYZ12345","XYZ-12345","ANALYTE",NA,"13276.291276","ng/mL","13,276.29",13276.29,"ng/mL",NA,NA,NA,"PLASMA",NA,NA,NA,NA,NA,NA,NA,NA,1,"2007-06-12",NA,1,1,"Day 1 .25h 0m",0.25,"PT15M","Day 1 Dose","2007-06-12",NA
"GLP003","PC","107001453",NA,339,"10m1","433626593894",NA,"XYZ12345","XYZ-12345","ANALYTE",NA,"46581.129072","ng/mL","46,581.13",46581.13,"ng/mL",NA,NA,NA,"PLASMA",NA,NA,NA,NA,NA,NA,NA,NA,1,"2007-06-12",NA,1,1,"Day 1 1h 0m",1,"PT1H","Day 1 Dose","2007-06-12",NA
"GLP003","PC","107001448",NA,340,"10m1","433626593906",NA,"XYZ12345","XYZ-12345","ANALYTE",NA,"45226.641317","ng/mL","45,226.64",45226.64,"ng/mL",NA,NA,NA,"PLASMA",NA,NA,NA,NA,NA,NA,NA,NA,1,"2007-06-12",NA,1,1,"Day 1 1h 0m",1,"PT1H","Day 1 Dose","2007-06-12",NA
"GLP003","PC","107001413",NA,341,"10m1","433626595226",NA,"XYZ12345","XYZ-12345","ANALYTE",NA,"37328.947511","ng/mL","37,328.95",37328.95,"ng/mL",NA,NA,NA,"PLASMA",NA,NA,NA,NA,NA,NA,NA,NA,1,"2007-06-12",NA,1,1,"Day 1 1h 0m",1,"PT1H","Day 1 Dose","2007-06-12",NA
"GLP003","PC","107001476",NA,342,"10m1","433626595239",NA,"XYZ12345","XYZ-12345","ANALYTE",NA,"43919.105249","ng/mL","43,919.11",43919.11,"ng/mL",NA,NA,NA,"PLASMA",NA,NA,NA,NA,NA,NA,NA,NA,1,"2007-06-12",NA,1,1,"Day 1 2h 0m",2,"PT2H","Day 1 Dose","2007-06-12",NA
"GLP003","PC","107001380",NA,343,"10m1","433626595251",NA,"XYZ12345","XYZ-12345","ANALYTE",NA,"58116.878986","ng/mL","58,116.88",58116.88,"ng/mL",NA,NA,NA,"PLASMA",NA,NA,NA,NA,NA,NA,NA,NA,1,"2007-06-12",NA,1,1,"Day 1 2h 0m",2,"PT2H","Day 1 Dose","2007-06-12",NA
"GLP003","PC","107001417",NA,344,"10m1","433626595263",NA,"XYZ12345","XYZ-12345","ANALYTE",NA,"45128.658622","ng/mL","45,128.66",45128.66,"ng/mL",NA,NA,NA,"PLASMA",NA,NA,NA,NA,NA,NA,NA,NA,1,"2007-06-12",NA,1,1,"Day 1 2h 0m",2,"PT2H","Day 1 Dose","2007-06-12",NA
"GLP003","PC","107001405",NA,345,"10m1","433626593860",NA,"XYZ12345","XYZ-12345","ANALYTE",NA,"53847.461005","ng/mL","53,847.46",53847.46,"ng/mL",NA,NA,NA,"PLASMA",NA,NA,NA,NA,NA,NA,NA,NA,1,"2007-06-12",NA,1,1,"Day 1 4h 0m",4,"PT4H","Day 1 Dose","2007-06-12",NA
"GLP003","PC","107001463",NA,346,"10m1","433626593872",NA,"XYZ12345","XYZ-12345","ANALYTE",NA,"48488.478889","ng/mL","48,488.48",48488.48,"ng/mL",NA,NA,NA,"PLASMA",NA,NA,NA,NA,NA,NA,NA,NA,1,"2007-06-12",NA,1,1,"Day 1 4h 0m",4,"PT4H","Day 1 Dose","2007-06-12",NA
"GLP003","PC","107001494",NA,347,"10m1","433626593884",NA,"XYZ12345","XYZ-12345","ANALYTE",NA,"60661.853868","ng/mL","60,661.85",60661.85,"ng/mL",NA,NA,NA,"PLASMA",NA,NA,NA,NA,NA,NA,NA,NA,1,"2007-06-12",NA,1,1,"Day 1 4h 0m",4,"PT4H","Day 1 Dose","2007-06-12",NA
"GLP003","PC","107001453",NA,348,"10m1","433626593897",NA,"XYZ12345","XYZ-12345","ANALYTE",NA,"47385.40312","ng/mL","47,385.40",47385.4,"ng/mL",NA,NA,NA,"PLASMA",NA,NA,NA,NA,NA,NA,NA,NA,1,"2007-06-12",NA,1,1,"Day 1 8h 0m",8,"PT8M","Day 1 Dose","2007-06-12",NA
"GLP003","PC","107001448",NA,349,"10m1","433626593909",NA,"XYZ12345","XYZ-12345","ANALYTE",NA,"41821.968457","ng/mL","41,821.97",41821.97,"ng/mL",NA,NA,NA,"PLASMA",NA,NA,NA,NA,NA,NA,NA,NA,1,"2007-06-12",NA,1,1,"Day 1 8h 0m",8,"PT8M","Day 1 Dose","2007-06-12",NA
"GLP003","PC","107001413",NA,350,"10m1","433626595229",NA,"XYZ12345","XYZ-12345","ANALYTE",NA,"42126.794646","ng/mL","42,126.79",42126.79,"ng/mL",NA,NA,NA,"PLASMA",NA,NA,NA,NA,NA,NA,NA,NA,1,"2007-06-12",NA,1,1,"Day 1 8h 0m",8,"PT8M","Day 1 Dose","2007-06-12",NA
"GLP003","PC","107001476",NA,351,"10m1","433626595242",NA,"XYZ12345","XYZ-12345","ANALYTE",NA,"27477.579344","ng/mL","27,477.58",27477.58,"ng/mL",NA,NA,NA,"PLASMA",NA,NA,NA,NA,NA,NA,NA,NA,1,"2007-06-12",NA,1,1,"Day 1 24h 0m",24,"PT24H","Day 1 Dose","2007-06-12",NA
"GLP003","PC","107001380",NA,352,"10m1","433626595254",NA,"XYZ12345","XYZ-12345","ANALYTE",NA,"31639.233049","ng/mL","31,639.23",31639.23,"ng/mL",NA,NA,NA,"PLASMA",NA,NA,NA,NA,NA,NA,NA,NA,1,"2007-06-12",NA,1,1,"Day 1 24h 0m",24,"PT24H","Day 1 Dose","2007-06-12",NA
"GLP003","PC","107001417",NA,353,"10m1","433626595266",NA,"XYZ12345","XYZ-12345","ANALYTE",NA,"34439.050548","ng/mL","34,439.05",34439.05,"ng/mL",NA,NA,NA,"PLASMA",NA,NA,NA,NA,NA,NA,NA,NA,1,"2007-06-12",NA,1,1,"Day 1 24h 0m",24,"PT24H","Day 1 Dose","2007-06-12",NA
"GLP003","PC","107001405",NA,354,"10m28","433626593863",NA,"XYZ12345","XYZ-12345","ANALYTE",NA,"21322.112109","ng/mL","21,322.11",21322.11,"ng/mL",NA,NA,NA,"PLASMA",NA,NA,NA,NA,NA,NA,NA,NA,28,"2007-07-09",NA,28,28,"Day 28 .25h 0m",648.25,"PT15M","Day 28 Dose","2007-07-09",NA
"GLP003","PC","107001463",NA,355,"10m28","433626593875",NA,"XYZ12345","XYZ-12345","ANALYTE",NA,"25703.666246","ng/mL","25,703.67",25703.67,"ng/mL",NA,NA,NA,"PLASMA",NA,NA,NA,NA,NA,NA,NA,NA,28,"2007-07-09",NA,28,28,"Day 28 .25h 0m",648.25,"PT15M","Day 28 Dose","2007-07-09",NA
"GLP003","PC","107001494",NA,356,"10m28","433626593887",NA,"XYZ12345","XYZ-12345","ANALYTE",NA,"33838.75276","ng/mL","33,838.75",33838.75,"ng/mL",NA,NA,NA,"PLASMA",NA,NA,NA,NA,NA,NA,NA,NA,28,"2007-07-09",NA,28,28,"Day 28 .25h 0m",648.25,"PT15M","Day 28 Dose","2007-07-09",NA
"GLP003","PC","107001453",NA,357,"10m28","433626593900",NA,"XYZ12345","XYZ-12345","ANALYTE",NA,"43071.399159","ng/mL","43,071.40",43071.4,"ng/mL",NA,NA,NA,"PLASMA",NA,NA,NA,NA,NA,NA,NA,NA,28,"2007-07-09",NA,28,28,"Day 28 1h 0m",649,"PT1H","Day 28 Dose","2007-07-09",NA
"GLP003","PC","107001448",NA,358,"10m28","433626593912",NA,"XYZ12345","XYZ-12345","ANALYTE",NA,"43503.680594","ng/mL","43,503.68",43503.68,"ng/mL",NA,NA,NA,"PLASMA",NA,NA,NA,NA,NA,NA,NA,NA,28,"2007-07-09",NA,28,28,"Day 28 1h 0m",649,"PT1H","Day 28 Dose","2007-07-09",NA
"GLP003","PC","107001413",NA,359,"10m28","433626595232",NA,"XYZ12345","XYZ-12345","ANALYTE",NA,"40636.687743","ng/mL","40,636.69",40636.69,"ng/mL",NA,NA,NA,"PLASMA",NA,NA,NA,NA,NA,NA,NA,NA,28,"2007-07-09",NA,28,28,"Day 28 1h 0m",649,"PT1H","Day 28 Dose","2007-07-09",NA
"GLP003","PC","107001476",NA,360,"10m28","433626595245",NA,"XYZ12345","XYZ-12345","ANALYTE",NA,"45133.112013","ng/mL","45,133.11",45133.11,"ng/mL",NA,NA,NA,"PLASMA",NA,NA,NA,NA,NA,NA,NA,NA,28,"2007-07-09",NA,28,28,"Day 28 2h 0m",650,"PT2H","Day 28 Dose","2007-07-09",NA
"GLP003","PC","107001380",NA,361,"10m28","433626595257",NA,"XYZ12345","XYZ-12345","ANALYTE",NA,"44416.246363","ng/mL","44,416.25",44416.25,"ng/mL",NA,NA,NA,"PLASMA",NA,NA,NA,NA,NA,NA,NA,NA,28,"2007-07-09",NA,28,28,"Day 28 2h 0m",650,"PT2H","Day 28 Dose","2007-07-09",NA
"GLP003","PC","107001417",NA,362,"10m28","433626595269",NA,"XYZ12345","XYZ-12345","ANALYTE",NA,"52280.459101","ng/mL","52,280.46",52280.46,"ng/mL",NA,NA,NA,"PLASMA",NA,NA,NA,NA,NA,NA,NA,NA,28,"2007-07-09",NA,28,28,"Day 28 2h 0m",650,"PT2H","Day 28 Dose","2007-07-09",NA
"GLP003","PC","107001405",NA,363,"10m28","433626593866",NA,"XYZ12345","XYZ-12345","ANALYTE",NA,"38666.741474","ng/mL","38,666.74",38666.74,"ng/mL",NA,NA,NA,"PLASMA",NA,NA,NA,NA,NA,NA,NA,NA,28,"2007-07-09",NA,28,28,"Day 28 4h 0m",652,"PT4H","Day 28 Dose","2007-07-09",NA
"GLP003","PC","107001463",NA,364,"10m28","433626593878",NA,"XYZ12345","XYZ-12345","ANALYTE",NA,"45984.232078","ng/mL","45,984.23",45984.23,"ng/mL",NA,NA,NA,"PLASMA",NA,NA,NA,NA,NA,NA,NA,NA,28,"2007-07-09",NA,28,28,"Day 28 4h 0m",652,"PT4H","Day 28 Dose","2007-07-09",NA
"GLP003","PC","107001494",NA,365,"10m28","433626593890",NA,"XYZ12345","XYZ-12345","ANALYTE",NA,"48724.7836039999","ng/mL","48,724.78",48724.78,"ng/mL",NA,NA,NA,"PLASMA",NA,NA,NA,NA,NA,NA,NA,NA,28,"2007-07-09",NA,28,28,"Day 28 4h 0m",652,"PT4H","Day 28 Dose","2007-07-09",NA
"GLP003","PC","107001453",NA,366,"10m28","433626593903",NA,"XYZ12345","XYZ-12345","ANALYTE",NA,"28853.582019","ng/mL","28,853.58",28853.58,"ng/mL",NA,NA,NA,"PLASMA",NA,NA,NA,NA,NA,NA,NA,NA,28,"2007-07-09",NA,28,28,"Day 28 8h 0m",656,"PT8H","Day 28 Dose","2007-07-09",NA
"GLP003","PC","107001448",NA,367,"10m28","433626593915",NA,"XYZ12345","XYZ-12345","ANALYTE",NA,"27292.324507","ng/mL","27,292.32",27292.32,"ng/mL",NA,NA,NA,"PLASMA",NA,NA,NA,NA,NA,NA,NA,NA,28,"2007-07-09",NA,28,28,"Day 28 8h 0m",656,"PT8H","Day 28 Dose","2007-07-09",NA
"GLP003","PC","107001413",NA,368,"10m28","433626595235",NA,"XYZ12345","XYZ-12345","ANALYTE",NA,"19971.352625","ng/mL","19,971.35",19971.35,"ng/mL",NA,NA,NA,"PLASMA",NA,NA,NA,NA,NA,NA,NA,NA,28,"2007-07-09",NA,28,28,"Day 28 8h 0m",656,"PT8H","Day 28 Dose","2007-07-09",NA
"GLP003","PC","107001476",NA,369,"10m28","433626595248",NA,"XYZ12345","XYZ-12345","ANALYTE",NA,"9368.392692","ng/mL","9,368.39",9368.39,"ng/mL",NA,NA,NA,"PLASMA",NA,NA,NA,NA,NA,NA,NA,NA,28,"2007-07-09",NA,28,28,"Day 28 24h 0m",672,"PT24H","Day 28 Dose","2007-07-09",NA
"GLP003","PC","107001380",NA,370,"10m28","433626595260",NA,"XYZ12345","XYZ-12345","ANALYTE",NA,"13916.738641","ng/mL","13,916.74",13916.74,"ng/mL",NA,NA,NA,"PLASMA",NA,NA,NA,NA,NA,NA,NA,NA,28,"2007-07-09",NA,28,28,"Day 28 24h 0m",672,"PT24H","Day 28 Dose","2007-07-09",NA
"GLP003","PC","107001417",NA,371,"10m28","433626595272",NA,"XYZ12345","XYZ-12345","ANALYTE",NA,"11340.445591","ng/mL","11,340.45",11340.45,"ng/mL",NA,NA,NA,"PLASMA",NA,NA,NA,NA,NA,NA,NA,NA,28,"2007-07-09",NA,28,28,"Day 28 24h 0m",672,"PT24H","Day 28 Dose","2007-07-09",NA
"GLP003","PC","107001548",NA,372,"10f1","433626595429",NA,"XYZ12345","XYZ-12345","ANALYTE",NA,"17110.218717","ng/mL","17,110.22",17110.22,"ng/mL",NA,NA,NA,"PLASMA",NA,NA,NA,NA,NA,NA,NA,NA,1,"2007-06-14",NA,1,1,"Day 1 .25h 0m",0.25,"PT15M","Day 1 Dose","2007-06-14",NA
"GLP003","PC","107001523",NA,373,"10f1","433626595441",NA,"XYZ12345","XYZ-12345","ANALYTE",NA,"19737.053297","ng/mL","19,737.05",19737.05,"ng/mL",NA,NA,NA,"PLASMA",NA,NA,NA,NA,NA,NA,NA,NA,1,"2007-06-14",NA,1,1,"Day 1 .25h 0m",0.25,"PT15M","Day 1 Dose","2007-06-14",NA
"GLP003","PC","107001611",NA,374,"10f1","433626595453",NA,"XYZ12345","XYZ-12345","ANALYTE",NA,"20533.275099","ng/mL","20,533.28",20533.28,"ng/mL",NA,NA,NA,"PLASMA",NA,NA,NA,NA,NA,NA,NA,NA,1,"2007-06-14",NA,1,1,"Day 1 .25h 0m",0.25,"PT15M","Day 1 Dose","2007-06-14",NA
"GLP003","PC","107001502",NA,375,"10f1","433626595466",NA,"XYZ12345","XYZ-12345","ANALYTE",NA,"50068.044037","ng/mL","50,068.04",50068.04,"ng/mL",NA,NA,NA,"PLASMA",NA,NA,NA,NA,NA,NA,NA,NA,1,"2007-06-14",NA,1,1,"Day 1 1h 0m",1,"PT1H","Day 1 Dose","2007-06-14",NA
"GLP003","PC","107001510",NA,376,"10f1","433626595478",NA,"XYZ12345","XYZ-12345","ANALYTE",NA,"57249.307642","ng/mL","57,249.31",57249.31,"ng/mL",NA,NA,NA,"PLASMA",NA,NA,NA,NA,NA,NA,NA,NA,1,"2007-06-14",NA,1,1,"Day 1 1h 0m",1,"PT1H","Day 1 Dose","2007-06-14",NA
"GLP003","PC","107001509",NA,377,"10f1","433626595490",NA,"XYZ12345","XYZ-12345","ANALYTE",NA,"42840.70572","ng/mL","42,840.71",42840.71,"ng/mL",NA,NA,NA,"PLASMA",NA,NA,NA,NA,NA,NA,NA,NA,1,"2007-06-14",NA,1,1,"Day 1 1h 0m",1,"PT1H","Day 1 Dose","2007-06-14",NA
"GLP003","PC","107001549",NA,378,"10f1","433626595503",NA,"XYZ12345","XYZ-12345","ANALYTE",NA,"55834.157838","ng/mL","55,834.16",55834.16,"ng/mL",NA,NA,NA,"PLASMA",NA,NA,NA,NA,NA,NA,NA,NA,1,"2007-06-14",NA,1,1,"Day 1 2h 0m",2,"PT2H","Day 1 Dose","2007-06-14",NA
"GLP003","PC","107001605",NA,379,"10f1","433626595515",NA,"XYZ12345","XYZ-12345","ANALYTE",NA,"35640.556019","ng/mL","35,640.56",35640.56,"ng/mL",NA,NA,NA,"PLASMA",NA,NA,NA,NA,NA,NA,NA,NA,1,"2007-06-14",NA,1,1,"Day 1 2h 0m",2,"PT2H","Day 1 Dose","2007-06-14",NA
"GLP003","PC","107001591",NA,380,"10f1","433626595527",NA,"XYZ12345","XYZ-12345","ANALYTE",NA,"61086.690809","ng/mL","61,086.69",61086.69,"ng/mL",NA,NA,NA,"PLASMA",NA,NA,NA,NA,NA,NA,NA,NA,1,"2007-06-14",NA,1,1,"Day 1 2h 0m",2,"PT2H","Day 1 Dose","2007-06-14",NA
"GLP003","PC","107001548",NA,381,"10f1","433626595432",NA,"XYZ12345","XYZ-12345","ANALYTE",NA,"56677.197816","ng/mL","56,677.20",56677.2,"ng/mL",NA,NA,NA,"PLASMA",NA,NA,NA,NA,NA,NA,NA,NA,1,"2007-06-14",NA,1,1,"Day 1 4h 0m",4,"PT4H","Day 1 Dose","2007-06-14",NA
"GLP003","PC","107001523",NA,382,"10f1","433626595444",NA,"XYZ12345","XYZ-12345","ANALYTE",NA,"51709.568108","ng/mL","51,709.57",51709.57,"ng/mL",NA,NA,NA,"PLASMA",NA,NA,NA,NA,NA,NA,NA,NA,1,"2007-06-14",NA,1,1,"Day 1 4h 0m",4,"PT4H","Day 1 Dose","2007-06-14",NA
"GLP003","PC","107001611",NA,383,"10f1","433626595456",NA,"XYZ12345","XYZ-12345","ANALYTE",NA,"54782.197623","ng/mL","54,782.20",54782.2,"ng/mL",NA,NA,NA,"PLASMA",NA,NA,NA,NA,NA,NA,NA,NA,1,"2007-06-14",NA,1,1,"Day 1 4h 0m",4,"PT4H","Day 1 Dose","2007-06-14",NA
"GLP003","PC","107001502",NA,384,"10f1","433626595469",NA,"XYZ12345","XYZ-12345","ANALYTE",NA,"55204.726455","ng/mL","55,204.73",55204.73,"ng/mL",NA,NA,NA,"PLASMA",NA,NA,NA,NA,NA,NA,NA,NA,1,"2007-06-14",NA,1,1,"Day 1 8h 0m",8,"PT8M","Day 1 Dose","2007-06-14",NA
"GLP003","PC","107001510",NA,385,"10f1","433626595481",NA,"XYZ12345","XYZ-12345","ANALYTE",NA,"40988.959063","ng/mL","40,988.96",40988.96,"ng/mL",NA,NA,NA,"PLASMA",NA,NA,NA,NA,NA,NA,NA,NA,1,"2007-06-14",NA,1,1,"Day 1 8h 0m",8,"PT8M","Day 1 Dose","2007-06-14",NA
"GLP003","PC","107001509",NA,386,"10f1","433626595493",NA,"XYZ12345","XYZ-12345","ANALYTE",NA,"45347.629823","ng/mL","45,347.63",45347.63,"ng/mL",NA,NA,NA,"PLASMA",NA,NA,NA,NA,NA,NA,NA,NA,1,"2007-06-14",NA,1,1,"Day 1 8h 0m",8,"PT8M","Day 1 Dose","2007-06-14",NA
"GLP003","PC","107001549",NA,387,"10f1","433626595506",NA,"XYZ12345","XYZ-12345","ANALYTE",NA,"28117.758198","ng/mL","28,117.76",28117.76,"ng/mL",NA,NA,NA,"PLASMA",NA,NA,NA,NA,NA,NA,NA,NA,1,"2007-06-14",NA,1,1,"Day 1 24h 0m",24,"PT24H","Day 1 Dose","2007-06-14",NA
"GLP003","PC","107001605",NA,388,"10f1","433626595518",NA,"XYZ12345","XYZ-12345","ANALYTE",NA,"27955.799316","ng/mL","27,955.80",27955.8,"ng/mL",NA,NA,NA,"PLASMA",NA,NA,NA,NA,NA,NA,NA,NA,1,"2007-06-14",NA,1,1,"Day 1 24h 0m",24,"PT24H","Day 1 Dose","2007-06-14",NA
"GLP003","PC","107001591",NA,389,"10f1","433626595530",NA,"XYZ12345","XYZ-12345","ANALYTE",NA,"20069.583237","ng/mL","20,069.58",20069.58,"ng/mL",NA,NA,NA,"PLASMA",NA,NA,NA,NA,NA,NA,NA,NA,1,"2007-06-14",NA,1,1,"Day 1 24h 0m",24,"PT24H","Day 1 Dose","2007-06-14",NA
"GLP003","PC","107001548",NA,390,"10f28","433626595435",NA,"XYZ12345","XYZ-12345","ANALYTE",NA,"33929.566202","ng/mL","33,929.57",33929.57,"ng/mL",NA,NA,NA,"PLASMA",NA,NA,NA,NA,NA,NA,NA,NA,28,"2007-07-11",NA,28,28,"Day 28 .25h 0m",648.25,"PT15M","Day 28 Dose","2007-07-11",NA
"GLP003","PC","107001523",NA,391,"10f28","433626595447",NA,"XYZ12345","XYZ-12345","ANALYTE",NA,"25082.762138","ng/mL","25,082.76",25082.76,"ng/mL",NA,NA,NA,"PLASMA",NA,NA,NA,NA,NA,NA,NA,NA,28,"2007-07-11",NA,28,28,"Day 28 .25h 0m",648.25,"PT15M","Day 28 Dose","2007-07-11",NA
"GLP003","PC","107001611",NA,392,"10f28","433626595459",NA,"XYZ12345","XYZ-12345","ANALYTE",NA,"36531.016721","ng/mL","36,531.02",36531.02,"ng/mL",NA,NA,NA,"PLASMA",NA,NA,NA,NA,NA,NA,NA,NA,28,"2007-07-11",NA,28,28,"Day 28 .25h 0m",648.25,"PT15M","Day 28 Dose","2007-07-11",NA
"GLP003","PC","107001502",NA,393,"10f28","433626595472",NA,"XYZ12345","XYZ-12345","ANALYTE",NA,"64193.643786","ng/mL","64,193.64",64193.64,"ng/mL",NA,NA,NA,"PLASMA",NA,NA,NA,NA,NA,NA,NA,NA,28,"2007-07-11",NA,28,28,"Day 28 1h 0m",649,"PT1H","Day 28 Dose","2007-07-11",NA
"GLP003","PC","107001510",NA,394,"10f28","433626595484",NA,"XYZ12345","XYZ-12345","ANALYTE",NA,"53291.487087","ng/mL","53,291.49",53291.49,"ng/mL",NA,NA,NA,"PLASMA",NA,NA,NA,NA,NA,NA,NA,NA,28,"2007-07-11",NA,28,28,"Day 28 1h 0m",649,"PT1H","Day 28 Dose","2007-07-11",NA
"GLP003","PC","107001509",NA,395,"10f28","433626595496",NA,"XYZ12345","XYZ-12345","ANALYTE",NA,"58706.251563","ng/mL","58,706.25",58706.25,"ng/mL",NA,NA,NA,"PLASMA",NA,NA,NA,NA,NA,NA,NA,NA,28,"2007-07-11",NA,28,28,"Day 28 1h 0m",649,"PT1H","Day 28 Dose","2007-07-11",NA
"GLP003","PC","107001549",NA,396,"10f28","433626595509",NA,"XYZ12345","XYZ-12345","ANALYTE",NA,"74543.548619","ng/mL","74,543.55",74543.55,"ng/mL",NA,NA,NA,"PLASMA",NA,NA,NA,NA,NA,NA,NA,NA,28,"2007-07-11",NA,28,28,"Day 28 2h 0m",650,"PT2H","Day 28 Dose","2007-07-11",NA
"GLP003","PC","107001605",NA,397,"10f28","433626595521",NA,"XYZ12345","XYZ-12345","ANALYTE",NA,"10644.605075","ng/mL","10,644.61",10644.61,"ng/mL",NA,NA,NA,"PLASMA",NA,NA,NA,NA,NA,NA,NA,NA,28,"2007-07-11",NA,28,28,"Day 28 2h 0m",650,"PT2H","Day 28 Dose","2007-07-11",NA
"GLP003","PC","107001591",NA,398,"10f28","433626595533",NA,"XYZ12345","XYZ-12345","ANALYTE",NA,"56730.292431","ng/mL","56,730.29",56730.29,"ng/mL",NA,NA,NA,"PLASMA",NA,NA,NA,NA,NA,NA,NA,NA,28,"2007-07-11",NA,28,28,"Day 28 2h 0m",650,"PT2H","Day 28 Dose","2007-07-11",NA
"GLP003","PC","107001548",NA,399,"10f28","433626595438",NA,"XYZ12345","XYZ-12345","ANALYTE",NA,"70729.901886","ng/mL","70,729.90",70729.9,"ng/mL",NA,NA,NA,"PLASMA",NA,NA,NA,NA,NA,NA,NA,NA,28,"2007-07-11",NA,28,28,"Day 28 4h 0m",652,"PT4H","Day 28 Dose","2007-07-11",NA
"GLP003","PC","107001523",NA,400,"10f28","433626595450",NA,"XYZ12345","XYZ-12345","ANALYTE",NA,"57461.248277","ng/mL","57,461.25",57461.25,"ng/mL",NA,NA,NA,"PLASMA",NA,NA,NA,NA,NA,NA,NA,NA,28,"2007-07-11",NA,28,28,"Day 28 4h 0m",652,"PT4H","Day 28 Dose","2007-07-11",NA
"GLP003","PC","107001611",NA,401,"10f28","433626595462",NA,"XYZ12345","XYZ-12345","ANALYTE",NA,"44829.757165","ng/mL","44,829.76",44829.76,"ng/mL",NA,NA,NA,"PLASMA",NA,NA,NA,NA,NA,NA,NA,NA,28,"2007-07-11",NA,28,28,"Day 28 4h 0m",652,"PT4H","Day 28 Dose","2007-07-11",NA
"GLP003","PC","107001502",NA,402,"10f28","433626595475",NA,"XYZ12345","XYZ-12345","ANALYTE",NA,"57962.7418659999","ng/mL","57,962.74",57962.74,"ng/mL",NA,NA,NA,"PLASMA",NA,NA,NA,NA,NA,NA,NA,NA,28,"2007-07-11",NA,28,28,"Day 28 8h 0m",656,"PT8H","Day 28 Dose","2007-07-11",NA
"GLP003","PC","107001510",NA,403,"10f28","433626595487",NA,"XYZ12345","XYZ-12345","ANALYTE",NA,"41306.600214","ng/mL","41,306.60",41306.6,"ng/mL",NA,NA,NA,"PLASMA",NA,NA,NA,NA,NA,NA,NA,NA,28,"2007-07-11",NA,28,28,"Day 28 8h 0m",656,"PT8H","Day 28 Dose","2007-07-11",NA
"GLP003","PC","107001509",NA,404,"10f28","433626595499",NA,"XYZ12345","XYZ-12345","ANALYTE",NA,"43397.65143","ng/mL","43,397.65",43397.65,"ng/mL",NA,NA,NA,"PLASMA",NA,NA,NA,NA,NA,NA,NA,NA,28,"2007-07-11",NA,28,28,"Day 28 8h 0m",656,"PT8H","Day 28 Dose","2007-07-11",NA
"GLP003","PC","107001549",NA,405,"10f28","433626595512",NA,"XYZ12345","XYZ-12345","ANALYTE",NA,"11769.176","ng/mL","11,769.18",11769.18,"ng/mL",NA,NA,NA,"PLASMA",NA,NA,NA,NA,NA,NA,NA,NA,28,"2007-07-11",NA,28,28,"Day 28 24h 0m",672,"PT24H","Day 28 Dose","2007-07-11",NA
"GLP003","PC","107001605",NA,406,"10f28","433626595524",NA,"XYZ12345","XYZ-12345","ANALYTE",NA,"51236.174742","ng/mL","51,236.17",51236.17,"ng/mL",NA,NA,NA,"PLASMA",NA,NA,NA,NA,NA,NA,NA,NA,28,"2007-07-11",NA,28,28,"Day 28 24h 0m",672,"PT24H","Day 28 Dose","2007-07-11",NA
"GLP003","PC","107001591",NA,407,"10f28","433626595536",NA,"XYZ12345","XYZ-12345","ANALYTE",NA,"27912.025672","ng/mL","27,912.03",27912.03,"ng/mL",NA,NA,NA,"PLASMA",NA,NA,NA,NA,NA,NA,NA,NA,28,"2007-07-11",NA,28,28,"Day 28 24h 0m",672,"PT24H","Day 28 Dose","2007-07-11",NA
