KeyWords: LB, Liver Lab
Script: 
  Desc   : > 
    The Liver Lab Analysis Panel provides the User with an overview of 
     the number and percent of subjects who have predefined abnormalities 
     in lab test values for Alanine Aminotransferase (ALT), Aspartate 
     Aminotransferase (AST), Total Bilirubin (TB), and Alkaline Phosphatase
     (ALP). It provides the frequency of the lab test values that occur in 
     varying degrees above what is considered a normal lab value (upper limit
     of normal, ULN). It also compares maximum lab values between tests, and 
     looks at the maximum lab values by (i.e, as a function of) study day.
  Name   : liver_v2.sas 
  GCR    : r135
  SRV    : 12345
  Source : FDA JumpStart
  Target : https://github.com/phuse-org/phuse-scripts/blob/master/tested/SAS/SpecDocs/Analysis%20Panel%20Instructions.doc
  Title  : Liver Lab Panel Analysis
  Topic  : Liver Lab Panel
  Type   : Analysis
  Subtype: TFL
Package:
  name : SAS Analysis Panels
  title: FDA JumpStart analysis package
Language: 
  name   : SAS
  version: 9.2.x, 9.4.x
Comments: >
  The Liver Lab Analysis Panel contains the five analyses outlined below.
  Note that the denominator used for percent calculations in this analysis
  panel is based on the arm variable. This is calculated by the number of 
  subjects exposed to at least one dose of treatment per arm (either actual
  or planned depending on what exists in the data).  
  Dataset Requirements:
     Laboratory Test Results     (LB)
     Demographics                (DM)
  Variable Requirements:
     LB     - Subject ID                    (USUBJID)
          - Date/Time of Specimen Collection          (LBDTC)
          - Lab Test or Examination Short Name     (LBTESTCD)
          - Numeric Result/Finding in Standard Units     (LBSTRESN)
          - Standard Units                    (LBSTRESU)
          - Reference Range Lower Limit-Std Units     (LBSTNRLO)
          - Reference Range Upper Limit-Std Units     (LBSTNRHI)
          - Baseline Flag                    (LBBLFL)
          - Study Day of Specimen Collection          (LBDY)
          - Visit Number                    (VISITNUM)
     DM  - Actual Arm                     (ACTARM)
          - Planned Treatment Arm          (ARM)
          - Subject ID                    (USUBJID)
          - Subject Reference Start Date/Time     (RFSTDTC)
          - Subject Reference End Date/Time     (RFENDTC)
          - Planned Arm Code               (ARMCD)
Inputs:
  datasets: dat1, dat2, dat3
  P1: String - dataset name
  P2: Number - depart id
  P3: String - subject id
Outputs:
  datasets: out1, out2, out3
  O1:
  O2:
Authors: 
  - name   : Shannon Dennis 
    email  : shannon.dennis@fda.hhs.gov
    company: FDA/IBM
    date   : 12/29/2009
  - name   : 
    email  : 
    company: 
    date   : 
Qualification: 
  LastQualDate: MM/DD/YYYY 
  LastQualBy: FirstName LastName
  Stage: T
  Document: a link to latest documentation 
  Note: C - Contributed; D - Development; T - Testing; Q - Qualified
Stages: 
  - Date: 02/02/2016
    Name: Austin Taylor <Austin.Taylor@fda.hhs.gov>
    Stage: C 
    Docs: https://github.com/phuse-org/phuse-scripts/blob/master/tested/SAS/SpecDocs/Liver%20Lab%20Analysis%20Specifications%20(12-7-2015).doc
  - Date: 03/08/2016
    Name: Eric Qi
    Stage: T
    Docs: https://github.com/phuse-org/phuse-scripts/blob/master/tested/SAS/LB/liver_v2.docx
Rating: 
  - User: Eric Qi
    Date: 03/08/2016
    Association: Merck 
    Stars: 4.5
  - User: htu 
    Date: 03/10/2016 
    Association: Accenture
    Stars: 5
