"","STUDYID","DOMAIN","USUBJID","SUBJID","RFSTDTC","RFENDTC","RFXSTDTC","RFXENDTC","DTHDTC","DTHFL","SITEID","INVID","INVNAM","BRTHDTC","AGE","AGEU","SEX","RACE","ETHNIC","ARMCD","ARM","ACTARMCD","ACTARM","COUNTRY","DMDTC","DMDY"
"1","ABC","DM","ABC001","1","2014-03-26","2014-05-07","2014-03-26","2014-04-23","","","1","1","Dr. Nick","1941-07-03",72,"YEARS","M","WHITE","NOT HISPANIC OR LATINO","2","Statin Arm 2","2","Statin Arm 2","USA","2014-03-26",1
"2","ABC","DM","ABC002","2","2014-02-09","2014-03-24","2014-02-09","2014-03-09","","","1","1","Dr. Nick","1964-01-30",50,"YEARS","M","WHITE","NOT HISPANIC OR LATINO","3","Placebo","3","Placebo","USA","2014-02-09",1
"3","ABC","DM","ABC003","3","2014-05-06","2014-06-18","2014-05-06","2014-05-22","","","1","1","Dr. Nick","1958-11-01",55,"YEARS","M","ASIAN","NOT HISPANIC OR LATINO","1","Statin Arm 1","1","Statin Arm 1","USA","2014-05-06",1
"4","ABC","DM","ABC004","4","2014-02-12","2014-03-25","2014-02-12","2014-03-12","","","3","3","Dr. Nikku","1976-02-03",38,"YEARS","M","ASIAN","NOT HISPANIC OR LATINO","1","Statin Arm 1","1","Statin Arm 1","JPN","2014-02-12",1
"5","ABC","DM","ABC005","5","2014-03-30","2014-05-13","2014-03-30","2014-04-27","","","1","1","Dr. Nick","1936-07-02",77,"YEARS","M","BLACK OR AFRICAN AMERICAN","NOT HISPANIC OR LATINO","1","Statin Arm 1","1","Statin Arm 1","USA","2014-03-30",1
"6","ABC","DM","ABC006","6","2014-02-09","2014-03-23","2014-02-09","2014-03-08","","","1","1","Dr. Nick","1970-03-06",43,"YEARS","M","WHITE","NOT HISPANIC OR LATINO","1","Statin Arm 1","1","Statin Arm 1","USA","2014-02-09",1
"7","ABC","DM","ABC007","7","2014-01-25","2014-03-06","2014-01-25","2014-02-21","","","1","1","Dr. Nick","1956-02-02",57,"YEARS","M","WHITE","NOT HISPANIC OR LATINO","2","Statin Arm 2","2","Statin Arm 2","USA","2014-01-25",1
"8","ABC","DM","ABC008","8","2014-02-15","2014-03-28","2014-02-15","2014-03-14","","","1","1","Dr. Nick","1964-10-08",49,"YEARS","F","NATIVE HAWAIIAN OR OTHER PACIFIC ISLANDER","NOT HISPANIC OR LATINO","3","Placebo","3","Placebo","USA","2014-02-15",1
"9","ABC","DM","ABC009","9","2014-05-24","2014-07-04","2014-05-24","2014-06-21","","","1","1","Dr. Nick","1971-04-13",43,"YEARS","M","WHITE","HISPANIC OR LATINO","1","Statin Arm 1","1","Statin Arm 1","USA","2014-05-24",1
"10","ABC","DM","ABC010","10","2014-02-25","2014-04-10","2014-02-25","2014-03-24","","","2","2","Dr. Nicola","1962-06-01",51,"YEARS","F","WHITE","NOT HISPANIC OR LATINO","2","Statin Arm 2","2","Statin Arm 2","ITA","2014-02-25",1
"11","ABC","DM","ABC011","11","2014-01-26","2014-03-08","2014-01-26","2014-02-24","","","2","2","Dr. Nicola","1971-12-26",42,"YEARS","M","BLACK OR AFRICAN AMERICAN","NOT HISPANIC OR LATINO","1","Statin Arm 1","1","Statin Arm 1","ITA","2014-01-26",1
"12","ABC","DM","ABC012","12","2014-05-27","2014-07-08","2014-05-27","2014-06-23","","","1","1","Dr. Nick","1966-11-27",47,"YEARS","M","WHITE","NOT HISPANIC OR LATINO","2","Statin Arm 2","2","Statin Arm 2","USA","2014-05-27",1
"13","ABC","DM","ABC013","13","2014-02-09","2014-03-23","2014-02-09","2014-03-08","","","1","1","Dr. Nick","1954-03-27",59,"YEARS","F","BLACK OR AFRICAN AMERICAN","NOT HISPANIC OR LATINO","2","Statin Arm 2","2","Statin Arm 2","USA","2014-02-09",1
"14","ABC","DM","ABC014","14","2014-10-04","2014-11-14","2014-10-04","2014-11-01","","","2","2","Dr. Nicola","1973-04-01",41,"YEARS","M","WHITE","NOT HISPANIC OR LATINO","1","Statin Arm 1","1","Statin Arm 1","ITA","2014-10-04",1
"15","ABC","DM","ABC015","15","2014-10-22","2014-12-05","2014-10-22","2014-11-18","","","1","1","Dr. Nick","1972-03-12",42,"YEARS","M","WHITE","NOT HISPANIC OR LATINO","3","Placebo","3","Placebo","USA","2014-10-22",1
"16","ABC","DM","ABC016","16","2014-08-16","2014-09-27","2014-08-16","2014-09-12","","","2","2","Dr. Nicola","1973-06-08",41,"YEARS","M","WHITE","NOT HISPANIC OR LATINO","2","Statin Arm 2","2","Statin Arm 2","ITA","2014-08-16",1
"17","ABC","DM","ABC017","17","2014-05-11","2014-06-23","2014-05-11","2014-06-09","","","1","1","Dr. Nick","1958-12-16",55,"YEARS","M","WHITE","NOT HISPANIC OR LATINO","3","Placebo","3","Placebo","USA","2014-05-11",1
"18","ABC","DM","ABC018","18","2014-05-03","2014-06-16","2014-05-03","2014-06-01","","","1","1","Dr. Nick","1966-11-21",47,"YEARS","F","WHITE","NOT HISPANIC OR LATINO","1","Statin Arm 1","1","Statin Arm 1","USA","2014-05-03",1
"19","ABC","DM","ABC019","19","2014-04-20","2014-06-03","2014-04-20","2014-05-19","","","1","1","Dr. Nick","1979-11-28",34,"YEARS","M","WHITE","NOT HISPANIC OR LATINO","3","Placebo","3","Placebo","USA","2014-04-20",1
"20","ABC","DM","ABC020","20","2014-06-11","2014-07-22","2014-06-11","2014-07-08","","","1","1","Dr. Nick","1958-05-12",56,"YEARS","M","WHITE","NOT HISPANIC OR LATINO","2","Statin Arm 2","2","Statin Arm 2","USA","2014-06-11",1
"21","ABC","DM","ABC021","21","2014-04-07","2014-05-18","2014-04-07","2014-05-04","","","2","2","Dr. Nicola","1947-11-10",66,"YEARS","M","WHITE","NOT HISPANIC OR LATINO","2","Statin Arm 2","2","Statin Arm 2","ITA","2014-04-07",1
"22","ABC","DM","ABC022","22","2014-04-26","2014-06-06","2014-04-26","2014-05-25","","","1","1","Dr. Nick","1946-01-29",68,"YEARS","M","WHITE","HISPANIC OR LATINO","3","Placebo","3","Placebo","USA","2014-04-26",1
"23","ABC","DM","ABC023","23","2014-03-30","2014-05-13","2014-03-30","2014-03-31","","","1","1","Dr. Nick","1967-12-10",46,"YEARS","M","BLACK OR AFRICAN AMERICAN","NOT HISPANIC OR LATINO","3","Placebo","3","Placebo","USA","2014-03-30",1
"24","ABC","DM","ABC024","24","2014-05-21","2014-07-01","2014-05-21","2014-06-17","","","1","1","Dr. Nick","1944-03-01",70,"YEARS","M","BLACK OR AFRICAN AMERICAN","NOT HISPANIC OR LATINO","1","Statin Arm 1","1","Statin Arm 1","USA","2014-05-21",1
"25","ABC","DM","ABC025","25","2014-02-19","2014-04-04","2014-02-19","2014-03-18","","","3","3","Dr. Nikku","1975-12-15",38,"YEARS","F","ASIAN","NOT HISPANIC OR LATINO","3","Placebo","3","Placebo","JPN","2014-02-19",1
"26","ABC","DM","ABC026","26","2014-08-10","2014-09-20","2014-08-10","2014-09-06","","","1","1","Dr. Nick","1974-08-07",39,"YEARS","M","WHITE","HISPANIC OR LATINO","3","Placebo","3","Placebo","USA","2014-08-10",1
"27","ABC","DM","ABC027","27","","","","","","","1","1","Dr. Nick","1951-09-07",62,"YEARS","F","WHITE","HISPANIC OR LATINO","SCRNFAIL","Screen Failure","SCRNFAIL","Screen Failure","USA","",NA
"28","ABC","DM","ABC028","28","2014-01-15","2014-02-28","2014-01-15","2014-02-11","","","2","2","Dr. Nicola","1958-12-15",55,"YEARS","M","WHITE","NOT HISPANIC OR LATINO","3","Placebo","3","Placebo","ITA","2014-01-15",1
"29","ABC","DM","ABC029","29","2014-06-11","2014-07-24","2014-06-11","2014-07-09","","","1","1","Dr. Nick","1964-02-20",50,"YEARS","M","ASIAN","NOT HISPANIC OR LATINO","2","Statin Arm 2","2","Statin Arm 2","USA","2014-06-11",1
"30","ABC","DM","ABC030","30","2014-10-04","2014-11-17","2014-10-04","2014-10-31","","","2","2","Dr. Nicola","1949-02-05",65,"YEARS","F","WHITE","NOT HISPANIC OR LATINO","2","Statin Arm 2","2","Statin Arm 2","ITA","2014-10-04",1
"31","ABC","DM","ABC031","31","2014-03-24","2014-05-04","2014-03-24","2014-04-21","","","1","1","Dr. Nick","1970-06-15",43,"YEARS","M","BLACK OR AFRICAN AMERICAN","NOT HISPANIC OR LATINO","3","Placebo","3","Placebo","USA","2014-03-24",1
"32","ABC","DM","ABC032","32","2014-09-03","2014-10-15","2014-09-03","2014-10-02","","","1","1","Dr. Nick","1971-06-30",43,"YEARS","M","WHITE","NOT HISPANIC OR LATINO","1","Statin Arm 1","1","Statin Arm 1","USA","2014-09-03",1
"33","ABC","DM","ABC033","33","2014-02-27","2014-04-09","2014-02-27","2014-03-27","","","1","1","Dr. Nick","1967-06-18",46,"YEARS","F","WHITE","NOT HISPANIC OR LATINO","2","Statin Arm 2","2","Statin Arm 2","USA","2014-02-27",1
"34","ABC","DM","ABC034","34","2014-02-18","2014-04-03","2014-02-18","2014-03-17","","","1","1","Dr. Nick","1963-09-30",50,"YEARS","F","WHITE","NOT HISPANIC OR LATINO","2","Statin Arm 2","2","Statin Arm 2","USA","2014-02-18",1
"35","ABC","DM","ABC035","35","2014-06-18","2014-07-30","2014-06-18","2014-07-16","","","1","1","Dr. Nick","1952-01-06",62,"YEARS","F","WHITE","HISPANIC OR LATINO","3","Placebo","3","Placebo","USA","2014-06-18",1
"36","ABC","DM","ABC036","36","2014-07-19","2014-08-29","2014-07-19","2014-08-17","","","2","2","Dr. Nicola","1977-12-05",36,"YEARS","F","ASIAN","NOT HISPANIC OR LATINO","2","Statin Arm 2","2","Statin Arm 2","ITA","2014-07-19",1
"37","ABC","DM","ABC037","37","2014-08-27","2014-10-10","2014-08-27","2014-09-23","","","1","1","Dr. Nick","1949-03-06",65,"YEARS","M","BLACK OR AFRICAN AMERICAN","NOT HISPANIC OR LATINO","3","Placebo","3","Placebo","USA","2014-08-27",1
"38","ABC","DM","ABC038","38","2014-06-22","2014-08-04","2014-06-22","2014-07-21","","","1","1","Dr. Nick","1968-01-03",46,"YEARS","F","WHITE","NOT HISPANIC OR LATINO","2","Statin Arm 2","2","Statin Arm 2","USA","2014-06-22",1
"39","ABC","DM","ABC039","39","2014-10-25","2014-12-05","2014-10-25","2014-11-22","","","1","1","Dr. Nick","1950-05-27",64,"YEARS","F","WHITE","HISPANIC OR LATINO","1","Statin Arm 1","1","Statin Arm 1","USA","2014-10-25",1
"40","ABC","DM","ABC040","40","2014-06-19","2014-08-02","2014-06-19","2014-07-17","","","1","1","Dr. Nick","1965-04-18",49,"YEARS","F","WHITE","NOT HISPANIC OR LATINO","1","Statin Arm 1","1","Statin Arm 1","USA","2014-06-19",1
"41","ABC","DM","ABC041","41","2014-05-17","2014-06-30","2014-05-17","2014-06-14","","","1","1","Dr. Nick","1979-08-06",34,"YEARS","M","WHITE","HISPANIC OR LATINO","3","Placebo","3","Placebo","USA","2014-05-17",1
"42","ABC","DM","ABC042","42","2014-06-07","2014-07-20","2014-06-07","2014-07-05","","","1","1","Dr. Nick","1991-05-11",23,"YEARS","M","WHITE","NOT HISPANIC OR LATINO","3","Placebo","3","Placebo","USA","2014-06-07",1
"43","ABC","DM","ABC043","43","2014-10-15","2014-11-25","2014-10-15","2014-11-12","","","1","1","Dr. Nick","1967-10-31",46,"YEARS","M","BLACK OR AFRICAN AMERICAN","NOT HISPANIC OR LATINO","2","Statin Arm 2","2","Statin Arm 2","USA","2014-10-15",1
"44","ABC","DM","ABC044","44","2014-08-07","2014-09-19","2014-08-07","2014-08-18","","","1","1","Dr. Nick","1956-06-28",58,"YEARS","F","WHITE","NOT HISPANIC OR LATINO","2","Statin Arm 2","2","Statin Arm 2","USA","2014-08-07",1
"45","ABC","DM","ABC045","45","2014-04-25","2014-06-06","2014-04-25","2014-05-23","","","1","1","Dr. Nick","1958-11-17",55,"YEARS","M","WHITE","HISPANIC OR LATINO","3","Placebo","1","Statin Arm 1","USA","2014-04-25",1
"46","ABC","DM","ABC046","46","2014-03-08","2014-04-20","2014-03-08","2014-04-06","","","1","1","Dr. Nick","1968-09-05",45,"YEARS","M","WHITE","HISPANIC OR LATINO","3","Placebo","3","Placebo","USA","2014-03-08",1
"47","ABC","DM","ABC047","47","2014-09-26","2014-11-06","2014-09-26","2014-10-25","","","2","2","Dr. Nicola","1953-09-09",61,"YEARS","F","WHITE","NOT HISPANIC OR LATINO","2","Statin Arm 2","2","Statin Arm 2","ITA","2014-09-26",1
"48","ABC","DM","ABC048","48","2014-02-24","2014-04-08","2014-02-24","2014-03-25","","","3","3","Dr. Nikku","1974-03-30",39,"YEARS","F","ASIAN","NOT HISPANIC OR LATINO","2","Statin Arm 2","2","Statin Arm 2","JPN","2014-02-24",1
"49","ABC","DM","ABC049","49","2014-04-16","2014-05-30","2014-04-16","2014-05-13","","","3","3","Dr. Nikku","1947-06-04",66,"YEARS","M","ASIAN","NOT HISPANIC OR LATINO","3","Placebo","3","Placebo","JPN","2014-04-16",1
"50","ABC","DM","ABC050","50","2014-10-22","2014-12-05","2014-10-22","2014-11-20","","","2","2","Dr. Nicola","1981-05-15",33,"YEARS","F","WHITE","NOT HISPANIC OR LATINO","3","Placebo","3","Placebo","ITA","2014-10-22",1
"51","ABC","DM","ABC051","51","2014-06-30","2014-07-30","2014-06-30","2014-07-27","","","1","1","Dr. Nick","1959-03-28",55,"YEARS","M","WHITE","NOT HISPANIC OR LATINO","1","Statin Arm 1","1","Statin Arm 1","USA","2014-06-30",1
"52","ABC","DM","ABC052","52","2014-04-16","2014-05-27","2014-04-16","2014-05-15","","","1","1","Dr. Nick","1963-08-29",50,"YEARS","M","WHITE","NOT HISPANIC OR LATINO","2","Statin Arm 2","2","Statin Arm 2","USA","2014-04-16",1
"53","ABC","DM","ABC053","53","2014-07-23","2014-09-02","2014-07-23","2014-08-21","","","1","1","Dr. Nick","1978-02-02",36,"YEARS","M","WHITE","NOT HISPANIC OR LATINO","1","Statin Arm 1","1","Statin Arm 1","USA","2014-07-23",1
"54","ABC","DM","ABC054","54","2014-06-22","2014-08-01","2014-06-22","2014-07-21","","","2","2","Dr. Nicola","1962-03-12",52,"YEARS","M","WHITE","NOT HISPANIC OR LATINO","2","Statin Arm 2","2","Statin Arm 2","ITA","2014-06-22",1
"55","ABC","DM","ABC055","55","2014-08-04","2014-09-16","2014-08-04","2014-09-01","","","1","1","Dr. Nick","1974-04-11",40,"YEARS","M","WHITE","NOT HISPANIC OR LATINO","3","Placebo","3","Placebo","USA","2014-08-04",1
"56","ABC","DM","ABC056","56","2014-07-08","2014-08-21","2014-07-08","2014-08-05","","","1","1","Dr. Nick","1964-11-21",49,"YEARS","M","BLACK OR AFRICAN AMERICAN","NOT HISPANIC OR LATINO","2","Statin Arm 2","2","Statin Arm 2","USA","2014-07-08",1
"57","ABC","DM","ABC057","57","2014-03-28","2014-05-10","2014-03-28","2014-04-25","","","1","1","Dr. Nick","1973-08-14",40,"YEARS","F","BLACK OR AFRICAN AMERICAN","NOT HISPANIC OR LATINO","1","Statin Arm 1","1","Statin Arm 1","USA","2014-03-28",1
"58","ABC","DM","ABC058","58","2014-04-26","2014-06-06","2014-04-26","2014-05-25","","","2","2","Dr. Nicola","1953-10-09",60,"YEARS","F","BLACK OR AFRICAN AMERICAN","NOT HISPANIC OR LATINO","1","Statin Arm 1","1","Statin Arm 1","ITA","2014-04-26",1
"59","ABC","DM","ABC059","59","2014-04-05","2014-05-18","2014-04-05","2014-05-03","","","1","1","Dr. Nick","1962-11-12",51,"YEARS","M","NATIVE HAWAIIAN OR OTHER PACIFIC ISLANDER","NOT HISPANIC OR LATINO","3","Placebo","3","Placebo","USA","2014-04-05",1
"60","ABC","DM","ABC060","60","2014-08-14","2014-09-27","2014-08-14","2014-09-10","","","3","3","Dr. Nikku","1940-07-24",74,"YEARS","M","ASIAN","NOT HISPANIC OR LATINO","3","Placebo","3","Placebo","JPN","2014-08-14",1
"61","ABC","DM","ABC061","61","2014-10-08","2014-11-21","2014-10-08","2014-11-06","","","2","2","Dr. Nicola","1968-02-28",46,"YEARS","M","WHITE","NOT HISPANIC OR LATINO","2","Statin Arm 2","2","Statin Arm 2","ITA","2014-10-08",1
"62","ABC","DM","ABC062","62","2014-07-13","2014-08-25","2014-07-13","2014-08-11","","","1","1","Dr. Nick","1943-07-27",70,"YEARS","M","WHITE","NOT HISPANIC OR LATINO","3","Placebo","3","Placebo","USA","2014-07-13",1
"63","ABC","DM","ABC063","63","2014-08-09","2014-09-22","2014-08-09","2014-09-05","","","1","1","Dr. Nick","1976-03-29",38,"YEARS","F","WHITE","NOT HISPANIC OR LATINO","3","Placebo","3","Placebo","USA","2014-08-09",1
"64","ABC","DM","ABC064","64","2014-01-22","2014-03-07","2014-01-22","2014-02-19","","","1","1","Dr. Nick","1966-03-20",47,"YEARS","M","WHITE","NOT HISPANIC OR LATINO","3","Placebo","3","Placebo","USA","2014-01-22",1
"65","ABC","DM","ABC065","65","2014-08-07","2014-09-19","2014-08-07","2014-09-05","","","1","1","Dr. Nick","1960-09-25",53,"YEARS","F","WHITE","NOT HISPANIC OR LATINO","3","Placebo","3","Placebo","USA","2014-08-07",1
"66","ABC","DM","ABC066","66","2014-04-22","2014-06-01","2014-04-22","2014-05-21","","","2","2","Dr. Nicola","1972-09-04",41,"YEARS","F","WHITE","HISPANIC OR LATINO","1","Statin Arm 1","1","Statin Arm 1","ITA","2014-04-22",1
"67","ABC","DM","ABC067","67","2014-04-28","2014-06-07","2014-04-28","2014-05-27","","","2","2","Dr. Nicola","1957-09-26",56,"YEARS","F","BLACK OR AFRICAN AMERICAN","NOT HISPANIC OR LATINO","3","Placebo","3","Placebo","ITA","2014-04-28",1
"68","ABC","DM","ABC068","68","2014-06-14","2014-07-25","2014-06-14","2014-07-13","","","3","3","Dr. Nikku","1982-02-12",32,"YEARS","F","ASIAN","NOT HISPANIC OR LATINO","1","Statin Arm 1","1","Statin Arm 1","JPN","2014-06-14",1
"69","ABC","DM","ABC069","69","2014-08-10","2014-09-22","2014-08-10","2014-09-08","","","2","2","Dr. Nicola","1953-10-20",60,"YEARS","F","ASIAN","NOT HISPANIC OR LATINO","1","Statin Arm 1","1","Statin Arm 1","ITA","2014-08-10",1
"70","ABC","DM","ABC070","70","2014-05-22","2014-07-03","2014-05-22","2014-06-19","","","3","3","Dr. Nikku","1952-07-21",61,"YEARS","M","ASIAN","NOT HISPANIC OR LATINO","2","Statin Arm 2","2","Statin Arm 2","JPN","2014-05-22",1
"71","ABC","DM","ABC071","71","2014-03-03","2014-04-14","2014-03-03","2014-03-30","","","2","2","Dr. Nicola","1959-01-04",55,"YEARS","F","WHITE","NOT HISPANIC OR LATINO","2","Statin Arm 2","2","Statin Arm 2","ITA","2014-03-03",1
"72","ABC","DM","ABC072","72","2014-09-12","2014-10-25","2014-09-12","2014-10-10","","","1","1","Dr. Nick","1959-02-13",55,"YEARS","M","WHITE","NOT HISPANIC OR LATINO","1","Statin Arm 1","1","Statin Arm 1","USA","2014-09-12",1
"73","ABC","DM","ABC073","73","2014-08-15","2014-09-25","2014-08-15","2014-09-11","","","1","1","Dr. Nick","1976-01-29",38,"YEARS","F","WHITE","HISPANIC OR LATINO","2","Statin Arm 2","2","Statin Arm 2","USA","2014-08-15",1
"74","ABC","DM","ABC074","74","2014-02-28","2014-04-13","2014-02-28","2014-03-28","","","2","2","Dr. Nicola","1969-05-12",44,"YEARS","M","WHITE","NOT HISPANIC OR LATINO","1","Statin Arm 1","1","Statin Arm 1","ITA","2014-02-28",1
"75","ABC","DM","ABC075","75","2014-06-15","2014-07-28","2014-06-15","2014-07-14","","","2","2","Dr. Nicola","1957-01-22",57,"YEARS","F","WHITE","NOT HISPANIC OR LATINO","1","Statin Arm 1","1","Statin Arm 1","ITA","2014-06-15",1
"76","ABC","DM","ABC076","76","2014-05-05","2014-06-14","2014-05-05","2014-06-03","","","1","1","Dr. Nick","1955-02-21",59,"YEARS","F","WHITE","NOT HISPANIC OR LATINO","1","Statin Arm 1","1","Statin Arm 1","USA","2014-05-05",1
"77","ABC","DM","ABC077","77","2014-10-06","2014-11-19","2014-10-06","2014-11-02","","","1","1","Dr. Nick","1947-03-14",67,"YEARS","M","WHITE","HISPANIC OR LATINO","2","Statin Arm 2","2","Statin Arm 2","USA","2014-10-06",1
"78","ABC","DM","ABC078","78","2014-04-04","2014-05-15","2014-04-04","2014-05-02","","","1","1","Dr. Nick","1974-11-27",39,"YEARS","F","NATIVE HAWAIIAN OR OTHER PACIFIC ISLANDER","NOT HISPANIC OR LATINO","2","Statin Arm 2","2","Statin Arm 2","USA","2014-04-04",1
"79","ABC","DM","ABC079","79","2014-07-05","2014-08-14","2014-07-05","2014-08-03","","","1","1","Dr. Nick","1973-10-12",40,"YEARS","F","WHITE","NOT HISPANIC OR LATINO","1","Statin Arm 1","1","Statin Arm 1","USA","2014-07-05",1
"80","ABC","DM","ABC080","80","2014-04-13","2014-04-25","2014-04-13","2014-04-25","2014-04-25","Y","2","2","Dr. Nicola","1953-10-23",60,"YEARS","M","WHITE","NOT HISPANIC OR LATINO","1","Statin Arm 1","1","Statin Arm 1","ITA","2014-04-13",1
"81","ABC","DM","ABC081","81","2014-04-16","2014-05-30","2014-04-16","2014-05-15","","","2","2","Dr. Nicola","1946-09-10",67,"YEARS","M","WHITE","NOT HISPANIC OR LATINO","1","Statin Arm 1","1","Statin Arm 1","ITA","2014-04-16",1
"82","ABC","DM","ABC082","82","2014-04-10","2014-05-21","2014-04-10","2014-05-09","","","1","1","Dr. Nick","1974-11-11",39,"YEARS","M","ASIAN","NOT HISPANIC OR LATINO","3","Placebo","3","Placebo","USA","2014-04-10",1
"83","ABC","DM","ABC083","83","2014-05-01","2014-06-14","2014-05-01","2014-05-29","","","1","1","Dr. Nick","1971-02-03",43,"YEARS","F","AMERICAN INDIAN OR ALASKA NATIVE","NOT HISPANIC OR LATINO","2","Statin Arm 2","2","Statin Arm 2","USA","2014-05-01",1
"84","ABC","DM","ABC084","84","2014-06-26","2014-08-07","2014-06-26","2014-07-23","","","1","1","Dr. Nick","1965-05-22",49,"YEARS","M","BLACK OR AFRICAN AMERICAN","NOT HISPANIC OR LATINO","1","Statin Arm 1","1","Statin Arm 1","USA","2014-06-26",1
"85","ABC","DM","ABC085","85","2014-10-27","2014-12-09","2014-10-27","2014-11-23","","","1","1","Dr. Nick","1955-02-13",59,"YEARS","M","WHITE","HISPANIC OR LATINO","1","Statin Arm 1","1","Statin Arm 1","USA","2014-10-27",1
"86","ABC","DM","ABC086","86","2014-02-17","2014-04-01","2014-02-17","2014-03-16","","","1","1","Dr. Nick","1952-03-02",61,"YEARS","M","WHITE","HISPANIC OR LATINO","3","Placebo","3","Placebo","USA","2014-02-17",1
"87","ABC","DM","ABC087","87","2014-09-29","2014-11-11","2014-09-29","2014-10-28","","","1","1","Dr. Nick","1968-08-05",46,"YEARS","M","NATIVE HAWAIIAN OR OTHER PACIFIC ISLANDER","NOT HISPANIC OR LATINO","3","Placebo","3","Placebo","USA","2014-09-29",1
"88","ABC","DM","ABC088","88","2014-02-01","2014-03-14","2014-02-01","2014-03-02","","","2","2","Dr. Nicola","1964-03-17",49,"YEARS","M","WHITE","NOT HISPANIC OR LATINO","2","Statin Arm 2","2","Statin Arm 2","ITA","2014-02-01",1
"89","ABC","DM","ABC089","89","2014-01-28","2014-03-09","2014-01-28","2014-02-25","","","2","2","Dr. Nicola","1950-05-07",63,"YEARS","M","BLACK OR AFRICAN AMERICAN","NOT HISPANIC OR LATINO","2","Statin Arm 2","2","Statin Arm 2","ITA","2014-01-28",1
"90","ABC","DM","ABC090","90","","","","","","","1","1","Dr. Nick","1974-03-30",39,"YEARS","M","WHITE","NOT HISPANIC OR LATINO","SCRNFAIL","Screen Failure","SCRNFAIL","Screen Failure","USA","",NA
"91","ABC","DM","ABC091","91","2014-08-31","2014-10-13","2014-08-31","2014-09-27","","","1","1","Dr. Nick","1964-04-20",50,"YEARS","M","BLACK OR AFRICAN AMERICAN","NOT HISPANIC OR LATINO","1","Statin Arm 1","1","Statin Arm 1","USA","2014-08-31",1
"92","ABC","DM","ABC092","92","2014-10-09","2014-11-07","2014-10-09","2014-11-06","","","1","1","Dr. Nick","1945-12-18",68,"YEARS","M","WHITE","HISPANIC OR LATINO","1","Statin Arm 1","1","Statin Arm 1","USA","2014-10-09",1
"93","ABC","DM","ABC093","93","2014-09-20","2014-11-03","2014-09-20","2014-10-19","","","1","1","Dr. Nick","1971-06-13",43,"YEARS","M","WHITE","HISPANIC OR LATINO","1","Statin Arm 1","1","Statin Arm 1","USA","2014-09-20",1
"94","ABC","DM","ABC094","94","2014-05-13","2014-06-25","2014-05-13","2014-06-11","","","3","3","Dr. Nikku","1979-02-19",35,"YEARS","M","ASIAN","NOT HISPANIC OR LATINO","2","Statin Arm 2","2","Statin Arm 2","JPN","2014-05-13",1
"95","ABC","DM","ABC095","95","2014-01-17","2014-03-01","2014-01-17","2014-02-15","","","1","1","Dr. Nick","1968-06-21",45,"YEARS","M","WHITE","NOT HISPANIC OR LATINO","2","Statin Arm 2","2","Statin Arm 2","USA","2014-01-17",1
"96","ABC","DM","ABC096","96","2014-10-15","2014-11-25","2014-10-15","2014-11-12","","","1","1","Dr. Nick","1975-07-14",39,"YEARS","F","BLACK OR AFRICAN AMERICAN","NOT HISPANIC OR LATINO","2","Statin Arm 2","2","Statin Arm 2","USA","2014-10-15",1
"97","ABC","DM","ABC097","97","2014-10-22","2014-12-02","2014-10-22","2014-11-20","","","3","3","Dr. Nikku","1993-08-29",21,"YEARS","M","ASIAN","NOT HISPANIC OR LATINO","1","Statin Arm 1","1","Statin Arm 1","JPN","2014-10-22",1
"98","ABC","DM","ABC098","98","2014-02-02","2014-03-18","2014-02-02","2014-03-02","","","3","3","Dr. Nikku","1972-08-30",41,"YEARS","M","ASIAN","NOT HISPANIC OR LATINO","2","Statin Arm 2","2","Statin Arm 2","JPN","2014-02-02",1
"99","ABC","DM","ABC099","99","2014-10-24","2014-12-07","2014-10-24","2014-11-22","","","1","1","Dr. Nick","1966-01-16",48,"YEARS","M","WHITE","HISPANIC OR LATINO","3","Placebo","3","Placebo","USA","2014-10-24",1
"100","ABC","DM","ABC100","100","2014-09-22","2014-11-03","2014-09-22","2014-10-21","","","2","2","Dr. Nicola","1948-02-16",66,"YEARS","M","WHITE","NOT HISPANIC OR LATINO","2","Statin Arm 2","2","Statin Arm 2","ITA","2014-09-22",1
"101","ABC","DM","ABC101","101","2014-03-06","2014-04-16","2014-03-06","2014-04-02","","","1","1","Dr. Nick","1960-01-12",54,"YEARS","M","WHITE","NOT HISPANIC OR LATINO","2","Statin Arm 2","2","Statin Arm 2","USA","2014-03-06",1
"102","ABC","DM","ABC102","102","2014-09-10","2014-10-24","2014-09-10","2014-10-09","","","1","1","Dr. Nick","1955-08-31",59,"YEARS","F","WHITE","NOT HISPANIC OR LATINO","1","Statin Arm 1","1","Statin Arm 1","USA","2014-09-10",1
"103","ABC","DM","ABC103","103","2014-01-17","2014-02-27","2014-01-17","2014-02-14","","","1","1","Dr. Nick","1963-12-10",50,"YEARS","M","WHITE","NOT HISPANIC OR LATINO","3","Placebo","3","Placebo","USA","2014-01-17",1
"104","ABC","DM","ABC104","104","2014-09-10","2014-10-23","2014-09-10","2014-10-08","","","3","3","Dr. Nikku","1961-03-04",53,"YEARS","M","ASIAN","NOT HISPANIC OR LATINO","3","Placebo","3","Placebo","JPN","2014-09-10",1
"105","ABC","DM","ABC105","105","","","","","","","1","1","Dr. Nick","1982-09-13",32,"YEARS","M","WHITE","HISPANIC OR LATINO","SCRNFAIL","Screen Failure","SCRNFAIL","Screen Failure","USA","",NA
"106","ABC","DM","ABC106","106","2014-02-15","2014-03-29","2014-02-15","2014-03-15","","","2","2","Dr. Nicola","1967-12-17",46,"YEARS","M","WHITE","NOT HISPANIC OR LATINO","3","Placebo","3","Placebo","ITA","2014-02-15",1
"107","ABC","DM","ABC107","107","2014-08-20","2014-10-02","2014-08-20","2014-09-16","","","1","1","Dr. Nick","1960-01-21",54,"YEARS","M","BLACK OR AFRICAN AMERICAN","NOT HISPANIC OR LATINO","2","Statin Arm 2","2","Statin Arm 2","USA","2014-08-20",1
"108","ABC","DM","ABC108","108","2014-07-17","2014-08-26","2014-07-17","2014-08-15","","","1","1","Dr. Nick","1975-02-13",39,"YEARS","M","ASIAN","NOT HISPANIC OR LATINO","2","Statin Arm 2","2","Statin Arm 2","USA","2014-07-17",1
"109","ABC","DM","ABC109","109","2014-10-19","2014-12-01","2014-10-19","2014-11-16","","","3","3","Dr. Nikku","1984-08-01",30,"YEARS","M","ASIAN","NOT HISPANIC OR LATINO","2","Statin Arm 2","2","Statin Arm 2","JPN","2014-10-19",1
"110","ABC","DM","ABC110","110","2014-08-14","2014-09-24","2014-08-14","2014-09-11","","","1","1","Dr. Nick","1961-11-05",52,"YEARS","M","BLACK OR AFRICAN AMERICAN","NOT HISPANIC OR LATINO","3","Placebo","3","Placebo","USA","2014-08-14",1
"111","ABC","DM","ABC111","111","2014-03-03","2014-04-12","2014-03-03","2014-03-30","","","1","1","Dr. Nick","1951-03-24",62,"YEARS","M","WHITE","NOT HISPANIC OR LATINO","2","Statin Arm 2","2","Statin Arm 2","USA","2014-03-03",1
"112","ABC","DM","ABC112","112","2014-06-25","2014-08-04","2014-06-25","2014-07-23","","","2","2","Dr. Nicola","1953-09-05",60,"YEARS","F","ASIAN","NOT HISPANIC OR LATINO","2","Statin Arm 2","2","Statin Arm 2","ITA","2014-06-25",1
"113","ABC","DM","ABC113","113","2014-10-07","2014-11-18","2014-10-07","2014-11-05","","","1","1","Dr. Nick","1953-05-13",61,"YEARS","F","WHITE","HISPANIC OR LATINO","1","Statin Arm 1","1","Statin Arm 1","USA","2014-10-07",1
"114","ABC","DM","ABC114","114","2014-04-10","2014-05-21","2014-04-10","2014-05-07","","","1","1","Dr. Nick","1966-09-14",47,"YEARS","M","WHITE","HISPANIC OR LATINO","1","Statin Arm 1","1","Statin Arm 1","USA","2014-04-10",1
"115","ABC","DM","ABC115","115","2014-02-16","2014-04-01","2014-02-16","2014-03-16","","","1","1","Dr. Nick","1948-04-24",65,"YEARS","M","ASIAN","NOT HISPANIC OR LATINO","3","Placebo","3","Placebo","USA","2014-02-16",1
"116","ABC","DM","ABC116","116","2014-09-25","2014-11-07","2014-09-25","2014-10-23","","","1","1","Dr. Nick","1950-08-17",64,"YEARS","F","ASIAN","NOT HISPANIC OR LATINO","3","Placebo","3","Placebo","USA","2014-09-25",1
"117","ABC","DM","ABC117","117","2014-08-14","2014-09-26","2014-08-14","2014-09-10","","","1","1","Dr. Nick","1973-11-24",40,"YEARS","M","WHITE","HISPANIC OR LATINO","3","Placebo","3","Placebo","USA","2014-08-14",1
"118","ABC","DM","ABC118","118","2014-06-25","2014-08-08","2014-06-25","2014-07-22","","","1","1","Dr. Nick","1967-11-28",46,"YEARS","M","AMERICAN INDIAN OR ALASKA NATIVE","NOT HISPANIC OR LATINO","1","Statin Arm 1","1","Statin Arm 1","USA","2014-06-25",1
"119","ABC","DM","ABC119","119","2014-09-04","2014-10-09","2014-09-04","2014-10-03","","","2","2","Dr. Nicola","1983-08-07",31,"YEARS","F","WHITE","NOT HISPANIC OR LATINO","1","Statin Arm 1","1","Statin Arm 1","ITA","2014-09-04",1
"120","ABC","DM","ABC120","120","2014-10-05","2014-11-18","2014-10-05","2014-11-02","","","3","3","Dr. Nikku","1972-12-26",41,"YEARS","M","ASIAN","NOT HISPANIC OR LATINO","3","Placebo","3","Placebo","JPN","2014-10-05",1
"121","ABC","DM","ABC121","121","2014-09-20","2014-10-31","2014-09-20","2014-10-18","","","2","2","Dr. Nicola","1953-12-13",60,"YEARS","F","ASIAN","NOT HISPANIC OR LATINO","2","Statin Arm 2","2","Statin Arm 2","ITA","2014-09-20",1
"122","ABC","DM","ABC122","122","2014-03-02","2014-04-14","2014-03-02","2014-03-29","","","3","3","Dr. Nikku","1959-06-19",54,"YEARS","M","WHITE","NOT HISPANIC OR LATINO","2","Statin Arm 2","2","Statin Arm 2","JPN","2014-03-02",1
"123","ABC","DM","ABC123","123","2014-05-07","2014-06-18","2014-05-07","2014-06-05","","","2","2","Dr. Nicola","1957-05-17",56,"YEARS","M","BLACK OR AFRICAN AMERICAN","NOT HISPANIC OR LATINO","3","Placebo","3","Placebo","ITA","2014-05-07",1
"124","ABC","DM","ABC124","124","2014-05-24","2014-07-07","2014-05-24","2014-06-20","","","1","1","Dr. Nick","1971-08-10",42,"YEARS","M","WHITE","HISPANIC OR LATINO","1","Statin Arm 1","1","Statin Arm 1","USA","2014-05-24",1
"125","ABC","DM","ABC125","125","2014-03-26","2014-05-07","2014-03-26","2014-04-24","","","1","1","Dr. Nick","1976-10-24",37,"YEARS","M","BLACK OR AFRICAN AMERICAN","NOT HISPANIC OR LATINO","1","Statin Arm 1","1","Statin Arm 1","USA","2014-03-26",1
"126","ABC","DM","ABC126","126","2014-05-02","2014-06-15","2014-05-02","2014-05-31","","","1","1","Dr. Nick","1965-06-02",48,"YEARS","F","WHITE","HISPANIC OR LATINO","3","Placebo","3","Placebo","USA","2014-05-02",1
"127","ABC","DM","ABC127","127","2014-02-09","2014-03-25","2014-02-09","2014-03-09","","","1","1","Dr. Nick","1964-11-16",49,"YEARS","M","BLACK OR AFRICAN AMERICAN","NOT HISPANIC OR LATINO","2","Statin Arm 2","2","Statin Arm 2","USA","2014-02-09",1
"128","ABC","DM","ABC128","128","2014-08-23","2014-10-03","2014-08-23","2014-09-21","","","1","1","Dr. Nick","1962-09-13",51,"YEARS","F","WHITE","NOT HISPANIC OR LATINO","3","Placebo","3","Placebo","USA","2014-08-23",1
"129","ABC","DM","ABC129","129","2014-07-10","2014-08-19","2014-07-10","2014-08-08","","","1","1","Dr. Nick","1976-05-22",38,"YEARS","M","WHITE","HISPANIC OR LATINO","2","Statin Arm 2","2","Statin Arm 2","USA","2014-07-10",1
"130","ABC","DM","ABC130","130","2014-01-17","2014-02-28","2014-01-17","2014-02-14","","","1","1","Dr. Nick","1954-10-31",59,"YEARS","F","WHITE","NOT HISPANIC OR LATINO","1","Statin Arm 1","1","Statin Arm 1","USA","2014-01-17",1
"131","ABC","DM","ABC131","131","2014-06-19","2014-07-30","2014-06-19","2014-07-16","","","2","2","Dr. Nicola","1960-04-09",54,"YEARS","M","WHITE","NOT HISPANIC OR LATINO","3","Placebo","3","Placebo","ITA","2014-06-19",1
"132","ABC","DM","ABC132","132","2014-03-01","2014-04-14","2014-03-01","2014-03-29","","","1","1","Dr. Nick","1958-06-12",55,"YEARS","M","ASIAN","NOT HISPANIC OR LATINO","1","Statin Arm 1","1","Statin Arm 1","USA","2014-03-01",1
"133","ABC","DM","ABC133","133","2014-03-28","2014-05-09","2014-03-28","2014-04-25","","","1","1","Dr. Nick","1961-06-11",52,"YEARS","M","BLACK OR AFRICAN AMERICAN","NOT HISPANIC OR LATINO","2","Statin Arm 2","2","Statin Arm 2","USA","2014-03-28",1
"134","ABC","DM","ABC134","134","2014-08-31","2014-10-12","2014-08-31","2014-09-27","","","1","1","Dr. Nick","1970-09-24",43,"YEARS","M","WHITE","NOT HISPANIC OR LATINO","1","Statin Arm 1","1","Statin Arm 1","USA","2014-08-31",1
"135","ABC","DM","ABC135","135","2014-08-06","2014-09-19","2014-08-06","2014-09-02","","","1","1","Dr. Nick","1958-11-22",55,"YEARS","M","WHITE","NOT HISPANIC OR LATINO","3","Placebo","3","Placebo","USA","2014-08-06",1
"136","ABC","DM","ABC136","136","2014-10-21","2014-12-02","2014-10-21","2014-11-19","","","3","3","Dr. Nikku","1950-04-14",64,"YEARS","M","ASIAN","NOT HISPANIC OR LATINO","2","Statin Arm 2","2","Statin Arm 2","JPN","2014-10-21",1
"137","ABC","DM","ABC137","137","2014-07-10","2014-08-19","2014-07-10","2014-08-06","","","1","1","Dr. Nick","1949-10-20",64,"YEARS","M","WHITE","HISPANIC OR LATINO","3","Placebo","3","Placebo","USA","2014-07-10",1
"138","ABC","DM","ABC138","138","2014-09-27","2014-11-09","2014-09-27","2014-10-24","","","2","2","Dr. Nicola","1975-06-22",39,"YEARS","M","WHITE","NOT HISPANIC OR LATINO","1","Statin Arm 1","1","Statin Arm 1","ITA","2014-09-27",1
"139","ABC","DM","ABC139","139","2014-05-24","2014-07-03","2014-05-24","2014-06-20","","","1","1","Dr. Nick","1975-01-06",39,"YEARS","F","WHITE","NOT HISPANIC OR LATINO","3","Placebo","1","Statin Arm 1","USA","2014-05-24",1
"140","ABC","DM","ABC140","140","2014-06-03","2014-07-16","2014-06-03","2014-07-01","","","3","3","Dr. Nikku","1947-05-18",67,"YEARS","F","WHITE","NOT HISPANIC OR LATINO","1","Statin Arm 1","1","Statin Arm 1","JPN","2014-06-03",1
"141","ABC","DM","ABC141","141","2014-10-22","2014-12-03","2014-10-22","2014-11-19","","","1","1","Dr. Nick","1973-01-20",41,"YEARS","M","WHITE","HISPANIC OR LATINO","1","Statin Arm 1","1","Statin Arm 1","USA","2014-10-22",1
"142","ABC","DM","ABC142","142","2014-03-07","2014-04-20","2014-03-07","2014-04-05","","","2","2","Dr. Nicola","1959-10-29",54,"YEARS","M","WHITE","NOT HISPANIC OR LATINO","2","Statin Arm 2","2","Statin Arm 2","ITA","2014-03-07",1
"143","ABC","DM","ABC143","143","2014-09-07","2014-10-20","2014-09-07","2014-10-06","","","1","1","Dr. Nick","1960-08-10",54,"YEARS","M","BLACK OR AFRICAN AMERICAN","NOT HISPANIC OR LATINO","3","Placebo","3","Placebo","USA","2014-09-07",1
"144","ABC","DM","ABC144","144","2014-06-21","2014-07-31","2014-06-21","2014-07-20","","","1","1","Dr. Nick","1964-01-14",50,"YEARS","M","WHITE","NOT HISPANIC OR LATINO","1","Statin Arm 1","1","Statin Arm 1","USA","2014-06-21",1
"145","ABC","DM","ABC145","145","2014-02-07","2014-03-22","2014-02-07","2014-03-08","","","1","1","Dr. Nick","1966-03-09",47,"YEARS","F","AMERICAN INDIAN OR ALASKA NATIVE","NOT HISPANIC OR LATINO","1","Statin Arm 1","1","Statin Arm 1","USA","2014-02-07",1
"146","ABC","DM","ABC146","146","2014-07-24","2014-09-05","2014-07-24","2014-08-22","","","1","1","Dr. Nick","1990-01-03",24,"YEARS","M","NATIVE HAWAIIAN OR OTHER PACIFIC ISLANDER","NOT HISPANIC OR LATINO","2","Statin Arm 2","2","Statin Arm 2","USA","2014-07-24",1
"147","ABC","DM","ABC147","147","2014-08-16","2014-09-26","2014-08-16","2014-09-14","","","2","2","Dr. Nicola","1943-08-02",71,"YEARS","F","WHITE","NOT HISPANIC OR LATINO","3","Placebo","3","Placebo","ITA","2014-08-16",1
"148","ABC","DM","ABC148","148","2014-05-19","2014-07-01","2014-05-19","2014-06-15","","","2","2","Dr. Nicola","1953-11-27",60,"YEARS","M","BLACK OR AFRICAN AMERICAN","NOT HISPANIC OR LATINO","2","Statin Arm 2","2","Statin Arm 2","ITA","2014-05-19",1
"149","ABC","DM","ABC149","149","2014-07-24","2014-09-03","2014-07-24","2014-08-21","","","1","1","Dr. Nick","1961-08-27",52,"YEARS","F","WHITE","NOT HISPANIC OR LATINO","2","Statin Arm 2","2","Statin Arm 2","USA","2014-07-24",1
"150","ABC","DM","ABC150","150","2014-09-22","2014-11-05","2014-09-22","2014-10-21","","","1","1","Dr. Nick","1944-03-29",70,"YEARS","M","WHITE","HISPANIC OR LATINO","2","Statin Arm 2","2","Statin Arm 2","USA","2014-09-22",1
"151","ABC","DM","ABC151","151","2014-02-01","2014-03-16","2014-02-01","2014-03-01","","","1","1","Dr. Nick","1970-01-19",44,"YEARS","F","WHITE","HISPANIC OR LATINO","1","Statin Arm 1","1","Statin Arm 1","USA","2014-02-01",1
"152","ABC","DM","ABC152","152","2014-02-08","2014-03-24","2014-02-08","2014-03-08","","","1","1","Dr. Nick","1958-12-20",55,"YEARS","M","WHITE","NOT HISPANIC OR LATINO","1","Statin Arm 1","1","Statin Arm 1","USA","2014-02-08",1
"153","ABC","DM","ABC153","153","2014-03-15","2014-04-28","2014-03-15","2014-04-11","","","2","2","Dr. Nicola","1945-02-23",69,"YEARS","F","ASIAN","NOT HISPANIC OR LATINO","3","Placebo","3","Placebo","ITA","2014-03-15",1
"154","ABC","DM","ABC154","154","2014-08-28","2014-10-10","2014-08-28","2014-09-24","","","2","2","Dr. Nicola","1966-03-11",48,"YEARS","F","WHITE","NOT HISPANIC OR LATINO","3","Placebo","3","Placebo","ITA","2014-08-28",1
"155","ABC","DM","ABC155","155","2014-02-06","2014-03-20","2014-02-06","2014-03-06","","","1","1","Dr. Nick","1962-09-28",51,"YEARS","M","AMERICAN INDIAN OR ALASKA NATIVE","NOT HISPANIC OR LATINO","2","Statin Arm 2","2","Statin Arm 2","USA","2014-02-06",1
"156","ABC","DM","ABC156","156","2014-06-03","2014-07-13","2014-06-03","2014-07-01","","","1","1","Dr. Nick","1944-04-10",70,"YEARS","F","BLACK OR AFRICAN AMERICAN","NOT HISPANIC OR LATINO","3","Placebo","3","Placebo","USA","2014-06-03",1
"157","ABC","DM","ABC157","157","2014-02-05","2014-03-17","2014-02-05","2014-03-04","","","1","1","Dr. Nick","1971-07-22",42,"YEARS","M","WHITE","HISPANIC OR LATINO","1","Statin Arm 1","1","Statin Arm 1","USA","2014-02-05",1
"158","ABC","DM","ABC158","158","2014-10-18","2014-11-28","2014-10-18","2014-11-15","","","2","2","Dr. Nicola","1966-12-11",47,"YEARS","M","WHITE","NOT HISPANIC OR LATINO","1","Statin Arm 1","1","Statin Arm 1","ITA","2014-10-18",1
"159","ABC","DM","ABC159","159","2014-09-26","2014-10-12","2014-09-26","2014-10-12","2014-10-12","Y","1","1","Dr. Nick","1960-10-06",53,"YEARS","F","WHITE","NOT HISPANIC OR LATINO","2","Statin Arm 2","2","Statin Arm 2","USA","2014-09-26",1
"160","ABC","DM","ABC160","160","2014-05-18","2014-07-01","2014-05-18","2014-06-14","","","3","3","Dr. Nikku","1967-08-20",46,"YEARS","F","ASIAN","NOT HISPANIC OR LATINO","1","Statin Arm 1","1","Statin Arm 1","JPN","2014-05-18",1
"161","ABC","DM","ABC161","161","2014-05-25","2014-07-07","2014-05-25","2014-06-22","","","2","2","Dr. Nicola","1966-07-03",47,"YEARS","M","WHITE","NOT HISPANIC OR LATINO","1","Statin Arm 1","1","Statin Arm 1","ITA","2014-05-25",1
"162","ABC","DM","ABC162","162","2014-02-08","2014-03-23","2014-02-08","2014-03-09","","","2","2","Dr. Nicola","1964-08-15",49,"YEARS","M","WHITE","NOT HISPANIC OR LATINO","3","Placebo","3","Placebo","ITA","2014-02-08",1
