"","STUDYID","DOMAIN","USUBJID","DSSEQ","DSTERM","DSDECOD","DSCAT","DSSCAT","EPOCH","VISITNUM","VISIT","VISITDY","DSSTDTC","DSSTDY"
"1","ABC","DS","ABC001",1,"INFORMED CONSENT SIGNED","INFORMED CONSENT SIGNED","PROTOCOL MILESTONE","INFORMED CONSENT","SCREENING",1,"SCREENING",1,"2014-03-26",1
"2","ABC","DS","ABC001",2,"RANDOMIZATION INTO TREATMENT GROUP","RANDOMIZATION INTO TREATMENT GROUP","PROTOCOL MILESTONE","RANDOMIZATION","SCREENING",1,"SCREENING",1,"2014-03-26",1
"3","ABC","DS","ABC001",3,"COMPLETED","COMPLETED","DISPOSITION EVENT","END OF TREATMENT","TREATMENT",5,"VISIT 5",29,"2014-04-23",29
"4","ABC","DS","ABC001",4,"COMPLETED","COMPLETED","DISPOSITION EVENT","END OF STUDY","FOLLOW-UP",6,"FOLLOW-UP",43,"2014-05-07",43
"5","ABC","DS","ABC002",1,"INFORMED CONSENT SIGNED","INFORMED CONSENT SIGNED","PROTOCOL MILESTONE","INFORMED CONSENT","SCREENING",1,"SCREENING",1,"2014-02-09",1
"6","ABC","DS","ABC002",2,"RANDOMIZATION INTO TREATMENT GROUP","RANDOMIZATION INTO TREATMENT GROUP","PROTOCOL MILESTONE","RANDOMIZATION","SCREENING",1,"SCREENING",1,"2014-02-09",1
"7","ABC","DS","ABC002",3,"COMPLETED","COMPLETED","DISPOSITION EVENT","END OF TREATMENT","TREATMENT",5,"VISIT 5",29,"2014-03-09",29
"8","ABC","DS","ABC002",4,"COMPLETED","COMPLETED","DISPOSITION EVENT","END OF STUDY","FOLLOW-UP",6,"FOLLOW-UP",44,"2014-03-24",44
"9","ABC","DS","ABC003",1,"INFORMED CONSENT SIGNED","INFORMED CONSENT SIGNED","PROTOCOL MILESTONE","INFORMED CONSENT","SCREENING",1,"SCREENING",1,"2014-05-06",1
"10","ABC","DS","ABC003",2,"RANDOMIZATION INTO TREATMENT GROUP","RANDOMIZATION INTO TREATMENT GROUP","PROTOCOL MILESTONE","RANDOMIZATION","SCREENING",1,"SCREENING",1,"2014-05-06",1
"11","ABC","DS","ABC003",3,"ADVERSE EVENT","ADVERSE EVENT","DISPOSITION EVENT","END OF TREATMENT","TREATMENT",3.1,"UNSCHEDULED 3.1",17,"2014-05-22",17
"12","ABC","DS","ABC003",4,"COMPLETED","COMPLETED","DISPOSITION EVENT","END OF STUDY","FOLLOW-UP",6,"FOLLOW-UP",44,"2014-06-18",44
"13","ABC","DS","ABC004",1,"INFORMED CONSENT SIGNED","INFORMED CONSENT SIGNED","PROTOCOL MILESTONE","INFORMED CONSENT","SCREENING",1,"SCREENING",1,"2014-02-12",1
"14","ABC","DS","ABC004",2,"RANDOMIZATION INTO TREATMENT GROUP","RANDOMIZATION INTO TREATMENT GROUP","PROTOCOL MILESTONE","RANDOMIZATION","SCREENING",1,"SCREENING",1,"2014-02-12",1
"15","ABC","DS","ABC004",3,"COMPLETED","COMPLETED","DISPOSITION EVENT","END OF TREATMENT","TREATMENT",5,"VISIT 5",29,"2014-03-12",29
"16","ABC","DS","ABC004",4,"COMPLETED","COMPLETED","DISPOSITION EVENT","END OF STUDY","FOLLOW-UP",6,"FOLLOW-UP",42,"2014-03-25",42
"17","ABC","DS","ABC005",1,"INFORMED CONSENT SIGNED","INFORMED CONSENT SIGNED","PROTOCOL MILESTONE","INFORMED CONSENT","SCREENING",1,"SCREENING",1,"2014-03-30",1
"18","ABC","DS","ABC005",2,"RANDOMIZATION INTO TREATMENT GROUP","RANDOMIZATION INTO TREATMENT GROUP","PROTOCOL MILESTONE","RANDOMIZATION","SCREENING",1,"SCREENING",1,"2014-03-30",1
"19","ABC","DS","ABC005",3,"COMPLETED","COMPLETED","DISPOSITION EVENT","END OF TREATMENT","TREATMENT",5,"VISIT 5",29,"2014-04-27",29
"20","ABC","DS","ABC005",4,"COMPLETED","COMPLETED","DISPOSITION EVENT","END OF STUDY","FOLLOW-UP",6,"FOLLOW-UP",45,"2014-05-13",45
"21","ABC","DS","ABC006",1,"INFORMED CONSENT SIGNED","INFORMED CONSENT SIGNED","PROTOCOL MILESTONE","INFORMED CONSENT","SCREENING",1,"SCREENING",1,"2014-02-09",1
"22","ABC","DS","ABC006",2,"RANDOMIZATION INTO TREATMENT GROUP","RANDOMIZATION INTO TREATMENT GROUP","PROTOCOL MILESTONE","RANDOMIZATION","SCREENING",1,"SCREENING",1,"2014-02-09",1
"23","ABC","DS","ABC006",3,"COMPLETED","COMPLETED","DISPOSITION EVENT","END OF TREATMENT","TREATMENT",5,"VISIT 5",28,"2014-03-08",28
"24","ABC","DS","ABC006",4,"COMPLETED","COMPLETED","DISPOSITION EVENT","END OF STUDY","FOLLOW-UP",6,"FOLLOW-UP",43,"2014-03-23",43
"25","ABC","DS","ABC007",1,"INFORMED CONSENT SIGNED","INFORMED CONSENT SIGNED","PROTOCOL MILESTONE","INFORMED CONSENT","SCREENING",1,"SCREENING",1,"2014-01-25",1
"26","ABC","DS","ABC007",2,"RANDOMIZATION INTO TREATMENT GROUP","RANDOMIZATION INTO TREATMENT GROUP","PROTOCOL MILESTONE","RANDOMIZATION","SCREENING",1,"SCREENING",1,"2014-01-25",1
"27","ABC","DS","ABC007",3,"COMPLETED","COMPLETED","DISPOSITION EVENT","END OF TREATMENT","TREATMENT",5,"VISIT 5",28,"2014-02-21",28
"28","ABC","DS","ABC007",4,"COMPLETED","COMPLETED","DISPOSITION EVENT","END OF STUDY","FOLLOW-UP",6,"FOLLOW-UP",41,"2014-03-06",41
"29","ABC","DS","ABC008",1,"INFORMED CONSENT SIGNED","INFORMED CONSENT SIGNED","PROTOCOL MILESTONE","INFORMED CONSENT","SCREENING",1,"SCREENING",1,"2014-02-15",1
"30","ABC","DS","ABC008",2,"RANDOMIZATION INTO TREATMENT GROUP","RANDOMIZATION INTO TREATMENT GROUP","PROTOCOL MILESTONE","RANDOMIZATION","SCREENING",1,"SCREENING",1,"2014-02-15",1
"31","ABC","DS","ABC008",3,"COMPLETED","COMPLETED","DISPOSITION EVENT","END OF TREATMENT","TREATMENT",5,"VISIT 5",28,"2014-03-14",28
"32","ABC","DS","ABC008",4,"COMPLETED","COMPLETED","DISPOSITION EVENT","END OF STUDY","FOLLOW-UP",6,"FOLLOW-UP",42,"2014-03-28",42
"33","ABC","DS","ABC009",1,"INFORMED CONSENT SIGNED","INFORMED CONSENT SIGNED","PROTOCOL MILESTONE","INFORMED CONSENT","SCREENING",1,"SCREENING",1,"2014-05-24",1
"34","ABC","DS","ABC009",2,"RANDOMIZATION INTO TREATMENT GROUP","RANDOMIZATION INTO TREATMENT GROUP","PROTOCOL MILESTONE","RANDOMIZATION","SCREENING",1,"SCREENING",1,"2014-05-24",1
"35","ABC","DS","ABC009",3,"COMPLETED","COMPLETED","DISPOSITION EVENT","END OF TREATMENT","TREATMENT",5,"VISIT 5",29,"2014-06-21",29
"36","ABC","DS","ABC009",4,"COMPLETED","COMPLETED","DISPOSITION EVENT","END OF STUDY","FOLLOW-UP",6,"FOLLOW-UP",42,"2014-07-04",42
"37","ABC","DS","ABC010",1,"INFORMED CONSENT SIGNED","INFORMED CONSENT SIGNED","PROTOCOL MILESTONE","INFORMED CONSENT","SCREENING",1,"SCREENING",1,"2014-02-25",1
"38","ABC","DS","ABC010",2,"RANDOMIZATION INTO TREATMENT GROUP","RANDOMIZATION INTO TREATMENT GROUP","PROTOCOL MILESTONE","RANDOMIZATION","SCREENING",1,"SCREENING",1,"2014-02-25",1
"39","ABC","DS","ABC010",3,"COMPLETED","COMPLETED","DISPOSITION EVENT","END OF TREATMENT","TREATMENT",5,"VISIT 5",28,"2014-03-24",28
"40","ABC","DS","ABC010",4,"COMPLETED","COMPLETED","DISPOSITION EVENT","END OF STUDY","FOLLOW-UP",6,"FOLLOW-UP",45,"2014-04-10",45
"41","ABC","DS","ABC011",1,"INFORMED CONSENT SIGNED","INFORMED CONSENT SIGNED","PROTOCOL MILESTONE","INFORMED CONSENT","SCREENING",1,"SCREENING",1,"2014-01-26",1
"42","ABC","DS","ABC011",2,"RANDOMIZATION INTO TREATMENT GROUP","RANDOMIZATION INTO TREATMENT GROUP","PROTOCOL MILESTONE","RANDOMIZATION","SCREENING",1,"SCREENING",1,"2014-01-26",1
"43","ABC","DS","ABC011",3,"COMPLETED","COMPLETED","DISPOSITION EVENT","END OF TREATMENT","TREATMENT",5,"VISIT 5",30,"2014-02-24",30
"44","ABC","DS","ABC011",4,"COMPLETED","COMPLETED","DISPOSITION EVENT","END OF STUDY","FOLLOW-UP",6,"FOLLOW-UP",42,"2014-03-08",42
"45","ABC","DS","ABC012",1,"INFORMED CONSENT SIGNED","INFORMED CONSENT SIGNED","PROTOCOL MILESTONE","INFORMED CONSENT","SCREENING",1,"SCREENING",1,"2014-05-27",1
"46","ABC","DS","ABC012",2,"RANDOMIZATION INTO TREATMENT GROUP","RANDOMIZATION INTO TREATMENT GROUP","PROTOCOL MILESTONE","RANDOMIZATION","SCREENING",1,"SCREENING",1,"2014-05-27",1
"47","ABC","DS","ABC012",3,"COMPLETED","COMPLETED","DISPOSITION EVENT","END OF TREATMENT","TREATMENT",5,"VISIT 5",28,"2014-06-23",28
"48","ABC","DS","ABC012",4,"COMPLETED","COMPLETED","DISPOSITION EVENT","END OF STUDY","FOLLOW-UP",6,"FOLLOW-UP",43,"2014-07-08",43
"49","ABC","DS","ABC013",1,"INFORMED CONSENT SIGNED","INFORMED CONSENT SIGNED","PROTOCOL MILESTONE","INFORMED CONSENT","SCREENING",1,"SCREENING",1,"2014-02-09",1
"50","ABC","DS","ABC013",2,"RANDOMIZATION INTO TREATMENT GROUP","RANDOMIZATION INTO TREATMENT GROUP","PROTOCOL MILESTONE","RANDOMIZATION","SCREENING",1,"SCREENING",1,"2014-02-09",1
"51","ABC","DS","ABC013",3,"COMPLETED","COMPLETED","DISPOSITION EVENT","END OF TREATMENT","TREATMENT",5,"VISIT 5",28,"2014-03-08",28
"52","ABC","DS","ABC013",4,"COMPLETED","COMPLETED","DISPOSITION EVENT","END OF STUDY","FOLLOW-UP",6,"FOLLOW-UP",43,"2014-03-23",43
"53","ABC","DS","ABC014",1,"INFORMED CONSENT SIGNED","INFORMED CONSENT SIGNED","PROTOCOL MILESTONE","INFORMED CONSENT","SCREENING",1,"SCREENING",1,"2014-10-04",1
"54","ABC","DS","ABC014",2,"RANDOMIZATION INTO TREATMENT GROUP","RANDOMIZATION INTO TREATMENT GROUP","PROTOCOL MILESTONE","RANDOMIZATION","SCREENING",1,"SCREENING",1,"2014-10-04",1
"55","ABC","DS","ABC014",3,"COMPLETED","COMPLETED","DISPOSITION EVENT","END OF TREATMENT","TREATMENT",5,"VISIT 5",29,"2014-11-01",29
"56","ABC","DS","ABC014",4,"COMPLETED","COMPLETED","DISPOSITION EVENT","END OF STUDY","FOLLOW-UP",6,"FOLLOW-UP",42,"2014-11-14",42
"57","ABC","DS","ABC015",1,"INFORMED CONSENT SIGNED","INFORMED CONSENT SIGNED","PROTOCOL MILESTONE","INFORMED CONSENT","SCREENING",1,"SCREENING",1,"2014-10-22",1
"58","ABC","DS","ABC015",2,"RANDOMIZATION INTO TREATMENT GROUP","RANDOMIZATION INTO TREATMENT GROUP","PROTOCOL MILESTONE","RANDOMIZATION","SCREENING",1,"SCREENING",1,"2014-10-22",1
"59","ABC","DS","ABC015",3,"COMPLETED","COMPLETED","DISPOSITION EVENT","END OF TREATMENT","TREATMENT",5,"VISIT 5",28,"2014-11-18",28
"60","ABC","DS","ABC015",4,"COMPLETED","COMPLETED","DISPOSITION EVENT","END OF STUDY","FOLLOW-UP",6,"FOLLOW-UP",45,"2014-12-05",45
"61","ABC","DS","ABC016",1,"INFORMED CONSENT SIGNED","INFORMED CONSENT SIGNED","PROTOCOL MILESTONE","INFORMED CONSENT","SCREENING",1,"SCREENING",1,"2014-08-16",1
"62","ABC","DS","ABC016",2,"RANDOMIZATION INTO TREATMENT GROUP","RANDOMIZATION INTO TREATMENT GROUP","PROTOCOL MILESTONE","RANDOMIZATION","SCREENING",1,"SCREENING",1,"2014-08-16",1
"63","ABC","DS","ABC016",3,"COMPLETED","COMPLETED","DISPOSITION EVENT","END OF TREATMENT","TREATMENT",5,"VISIT 5",28,"2014-09-12",28
"64","ABC","DS","ABC016",4,"COMPLETED","COMPLETED","DISPOSITION EVENT","END OF STUDY","FOLLOW-UP",6,"FOLLOW-UP",43,"2014-09-27",43
"65","ABC","DS","ABC017",1,"INFORMED CONSENT SIGNED","INFORMED CONSENT SIGNED","PROTOCOL MILESTONE","INFORMED CONSENT","SCREENING",1,"SCREENING",1,"2014-05-11",1
"66","ABC","DS","ABC017",2,"RANDOMIZATION INTO TREATMENT GROUP","RANDOMIZATION INTO TREATMENT GROUP","PROTOCOL MILESTONE","RANDOMIZATION","SCREENING",1,"SCREENING",1,"2014-05-11",1
"67","ABC","DS","ABC017",3,"COMPLETED","COMPLETED","DISPOSITION EVENT","END OF TREATMENT","TREATMENT",5,"VISIT 5",30,"2014-06-09",30
"68","ABC","DS","ABC017",4,"COMPLETED","COMPLETED","DISPOSITION EVENT","END OF STUDY","FOLLOW-UP",6,"FOLLOW-UP",44,"2014-06-23",44
"69","ABC","DS","ABC018",1,"INFORMED CONSENT SIGNED","INFORMED CONSENT SIGNED","PROTOCOL MILESTONE","INFORMED CONSENT","SCREENING",1,"SCREENING",1,"2014-05-03",1
"70","ABC","DS","ABC018",2,"RANDOMIZATION INTO TREATMENT GROUP","RANDOMIZATION INTO TREATMENT GROUP","PROTOCOL MILESTONE","RANDOMIZATION","SCREENING",1,"SCREENING",1,"2014-05-03",1
"71","ABC","DS","ABC018",3,"COMPLETED","COMPLETED","DISPOSITION EVENT","END OF TREATMENT","TREATMENT",5,"VISIT 5",30,"2014-06-01",30
"72","ABC","DS","ABC018",4,"COMPLETED","COMPLETED","DISPOSITION EVENT","END OF STUDY","FOLLOW-UP",6,"FOLLOW-UP",45,"2014-06-16",45
"73","ABC","DS","ABC019",1,"INFORMED CONSENT SIGNED","INFORMED CONSENT SIGNED","PROTOCOL MILESTONE","INFORMED CONSENT","SCREENING",1,"SCREENING",1,"2014-04-20",1
"74","ABC","DS","ABC019",2,"RANDOMIZATION INTO TREATMENT GROUP","RANDOMIZATION INTO TREATMENT GROUP","PROTOCOL MILESTONE","RANDOMIZATION","SCREENING",1,"SCREENING",1,"2014-04-20",1
"75","ABC","DS","ABC019",3,"COMPLETED","COMPLETED","DISPOSITION EVENT","END OF TREATMENT","TREATMENT",5,"VISIT 5",30,"2014-05-19",30
"76","ABC","DS","ABC019",4,"COMPLETED","COMPLETED","DISPOSITION EVENT","END OF STUDY","FOLLOW-UP",6,"FOLLOW-UP",45,"2014-06-03",45
"77","ABC","DS","ABC020",1,"INFORMED CONSENT SIGNED","INFORMED CONSENT SIGNED","PROTOCOL MILESTONE","INFORMED CONSENT","SCREENING",1,"SCREENING",1,"2014-06-11",1
"78","ABC","DS","ABC020",2,"RANDOMIZATION INTO TREATMENT GROUP","RANDOMIZATION INTO TREATMENT GROUP","PROTOCOL MILESTONE","RANDOMIZATION","SCREENING",1,"SCREENING",1,"2014-06-11",1
"79","ABC","DS","ABC020",3,"COMPLETED","COMPLETED","DISPOSITION EVENT","END OF TREATMENT","TREATMENT",5,"VISIT 5",28,"2014-07-08",28
"80","ABC","DS","ABC020",4,"COMPLETED","COMPLETED","DISPOSITION EVENT","END OF STUDY","FOLLOW-UP",6,"FOLLOW-UP",42,"2014-07-22",42
"81","ABC","DS","ABC021",1,"INFORMED CONSENT SIGNED","INFORMED CONSENT SIGNED","PROTOCOL MILESTONE","INFORMED CONSENT","SCREENING",1,"SCREENING",1,"2014-04-07",1
"82","ABC","DS","ABC021",2,"RANDOMIZATION INTO TREATMENT GROUP","RANDOMIZATION INTO TREATMENT GROUP","PROTOCOL MILESTONE","RANDOMIZATION","SCREENING",1,"SCREENING",1,"2014-04-07",1
"83","ABC","DS","ABC021",3,"COMPLETED","COMPLETED","DISPOSITION EVENT","END OF TREATMENT","TREATMENT",5,"VISIT 5",28,"2014-05-04",28
"84","ABC","DS","ABC021",4,"COMPLETED","COMPLETED","DISPOSITION EVENT","END OF STUDY","FOLLOW-UP",6,"FOLLOW-UP",42,"2014-05-18",42
"85","ABC","DS","ABC022",1,"INFORMED CONSENT SIGNED","INFORMED CONSENT SIGNED","PROTOCOL MILESTONE","INFORMED CONSENT","SCREENING",1,"SCREENING",1,"2014-04-26",1
"86","ABC","DS","ABC022",2,"RANDOMIZATION INTO TREATMENT GROUP","RANDOMIZATION INTO TREATMENT GROUP","PROTOCOL MILESTONE","RANDOMIZATION","SCREENING",1,"SCREENING",1,"2014-04-26",1
"87","ABC","DS","ABC022",3,"COMPLETED","COMPLETED","DISPOSITION EVENT","END OF TREATMENT","TREATMENT",5,"VISIT 5",30,"2014-05-25",30
"88","ABC","DS","ABC022",4,"COMPLETED","COMPLETED","DISPOSITION EVENT","END OF STUDY","FOLLOW-UP",6,"FOLLOW-UP",42,"2014-06-06",42
"89","ABC","DS","ABC023",1,"INFORMED CONSENT SIGNED","INFORMED CONSENT SIGNED","PROTOCOL MILESTONE","INFORMED CONSENT","SCREENING",1,"SCREENING",1,"2014-03-30",1
"90","ABC","DS","ABC023",2,"RANDOMIZATION INTO TREATMENT GROUP","RANDOMIZATION INTO TREATMENT GROUP","PROTOCOL MILESTONE","RANDOMIZATION","SCREENING",1,"SCREENING",1,"2014-03-30",1
"91","ABC","DS","ABC023",3,"ADVERSE EVENT","ADVERSE EVENT","DISPOSITION EVENT","END OF TREATMENT","TREATMENT",1.1,"UNSCHEDULED 1.1",2,"2014-03-31",2
"92","ABC","DS","ABC023",4,"COMPLETED","COMPLETED","DISPOSITION EVENT","END OF STUDY","FOLLOW-UP",6,"FOLLOW-UP",45,"2014-05-13",45
"93","ABC","DS","ABC024",1,"INFORMED CONSENT SIGNED","INFORMED CONSENT SIGNED","PROTOCOL MILESTONE","INFORMED CONSENT","SCREENING",1,"SCREENING",1,"2014-05-21",1
"94","ABC","DS","ABC024",2,"RANDOMIZATION INTO TREATMENT GROUP","RANDOMIZATION INTO TREATMENT GROUP","PROTOCOL MILESTONE","RANDOMIZATION","SCREENING",1,"SCREENING",1,"2014-05-21",1
"95","ABC","DS","ABC024",3,"COMPLETED","COMPLETED","DISPOSITION EVENT","END OF TREATMENT","TREATMENT",5,"VISIT 5",28,"2014-06-17",28
"96","ABC","DS","ABC024",4,"COMPLETED","COMPLETED","DISPOSITION EVENT","END OF STUDY","FOLLOW-UP",6,"FOLLOW-UP",42,"2014-07-01",42
"97","ABC","DS","ABC025",1,"INFORMED CONSENT SIGNED","INFORMED CONSENT SIGNED","PROTOCOL MILESTONE","INFORMED CONSENT","SCREENING",1,"SCREENING",1,"2014-02-19",1
"98","ABC","DS","ABC025",2,"RANDOMIZATION INTO TREATMENT GROUP","RANDOMIZATION INTO TREATMENT GROUP","PROTOCOL MILESTONE","RANDOMIZATION","SCREENING",1,"SCREENING",1,"2014-02-19",1
"99","ABC","DS","ABC025",3,"COMPLETED","COMPLETED","DISPOSITION EVENT","END OF TREATMENT","TREATMENT",5,"VISIT 5",28,"2014-03-18",28
"100","ABC","DS","ABC025",4,"COMPLETED","COMPLETED","DISPOSITION EVENT","END OF STUDY","FOLLOW-UP",6,"FOLLOW-UP",45,"2014-04-04",45
"101","ABC","DS","ABC026",1,"INFORMED CONSENT SIGNED","INFORMED CONSENT SIGNED","PROTOCOL MILESTONE","INFORMED CONSENT","SCREENING",1,"SCREENING",1,"2014-08-10",1
"102","ABC","DS","ABC026",2,"RANDOMIZATION INTO TREATMENT GROUP","RANDOMIZATION INTO TREATMENT GROUP","PROTOCOL MILESTONE","RANDOMIZATION","SCREENING",1,"SCREENING",1,"2014-08-10",1
"103","ABC","DS","ABC026",3,"COMPLETED","COMPLETED","DISPOSITION EVENT","END OF TREATMENT","TREATMENT",5,"VISIT 5",28,"2014-09-06",28
"104","ABC","DS","ABC026",4,"COMPLETED","COMPLETED","DISPOSITION EVENT","END OF STUDY","FOLLOW-UP",6,"FOLLOW-UP",42,"2014-09-20",42
"105","ABC","DS","ABC028",1,"INFORMED CONSENT SIGNED","INFORMED CONSENT SIGNED","PROTOCOL MILESTONE","INFORMED CONSENT","SCREENING",1,"SCREENING",1,"2014-01-15",1
"106","ABC","DS","ABC028",2,"RANDOMIZATION INTO TREATMENT GROUP","RANDOMIZATION INTO TREATMENT GROUP","PROTOCOL MILESTONE","RANDOMIZATION","SCREENING",1,"SCREENING",1,"2014-01-15",1
"107","ABC","DS","ABC028",3,"COMPLETED","COMPLETED","DISPOSITION EVENT","END OF TREATMENT","TREATMENT",5,"VISIT 5",28,"2014-02-11",28
"108","ABC","DS","ABC028",4,"COMPLETED","COMPLETED","DISPOSITION EVENT","END OF STUDY","FOLLOW-UP",6,"FOLLOW-UP",45,"2014-02-28",45
"109","ABC","DS","ABC029",1,"INFORMED CONSENT SIGNED","INFORMED CONSENT SIGNED","PROTOCOL MILESTONE","INFORMED CONSENT","SCREENING",1,"SCREENING",1,"2014-06-11",1
"110","ABC","DS","ABC029",2,"RANDOMIZATION INTO TREATMENT GROUP","RANDOMIZATION INTO TREATMENT GROUP","PROTOCOL MILESTONE","RANDOMIZATION","SCREENING",1,"SCREENING",1,"2014-06-11",1
"111","ABC","DS","ABC029",3,"COMPLETED","COMPLETED","DISPOSITION EVENT","END OF TREATMENT","TREATMENT",5,"VISIT 5",29,"2014-07-09",29
"112","ABC","DS","ABC029",4,"COMPLETED","COMPLETED","DISPOSITION EVENT","END OF STUDY","FOLLOW-UP",6,"FOLLOW-UP",44,"2014-07-24",44
"113","ABC","DS","ABC030",1,"INFORMED CONSENT SIGNED","INFORMED CONSENT SIGNED","PROTOCOL MILESTONE","INFORMED CONSENT","SCREENING",1,"SCREENING",1,"2014-10-04",1
"114","ABC","DS","ABC030",2,"RANDOMIZATION INTO TREATMENT GROUP","RANDOMIZATION INTO TREATMENT GROUP","PROTOCOL MILESTONE","RANDOMIZATION","SCREENING",1,"SCREENING",1,"2014-10-04",1
"115","ABC","DS","ABC030",3,"COMPLETED","COMPLETED","DISPOSITION EVENT","END OF TREATMENT","TREATMENT",5,"VISIT 5",28,"2014-10-31",28
"116","ABC","DS","ABC030",4,"COMPLETED","COMPLETED","DISPOSITION EVENT","END OF STUDY","FOLLOW-UP",6,"FOLLOW-UP",45,"2014-11-17",45
"117","ABC","DS","ABC031",1,"INFORMED CONSENT SIGNED","INFORMED CONSENT SIGNED","PROTOCOL MILESTONE","INFORMED CONSENT","SCREENING",1,"SCREENING",1,"2014-03-24",1
"118","ABC","DS","ABC031",2,"RANDOMIZATION INTO TREATMENT GROUP","RANDOMIZATION INTO TREATMENT GROUP","PROTOCOL MILESTONE","RANDOMIZATION","SCREENING",1,"SCREENING",1,"2014-03-24",1
"119","ABC","DS","ABC031",3,"COMPLETED","COMPLETED","DISPOSITION EVENT","END OF TREATMENT","TREATMENT",5,"VISIT 5",29,"2014-04-21",29
"120","ABC","DS","ABC031",4,"COMPLETED","COMPLETED","DISPOSITION EVENT","END OF STUDY","FOLLOW-UP",6,"FOLLOW-UP",42,"2014-05-04",42
"121","ABC","DS","ABC032",1,"INFORMED CONSENT SIGNED","INFORMED CONSENT SIGNED","PROTOCOL MILESTONE","INFORMED CONSENT","SCREENING",1,"SCREENING",1,"2014-09-03",1
"122","ABC","DS","ABC032",2,"RANDOMIZATION INTO TREATMENT GROUP","RANDOMIZATION INTO TREATMENT GROUP","PROTOCOL MILESTONE","RANDOMIZATION","SCREENING",1,"SCREENING",1,"2014-09-03",1
"123","ABC","DS","ABC032",3,"COMPLETED","COMPLETED","DISPOSITION EVENT","END OF TREATMENT","TREATMENT",5,"VISIT 5",30,"2014-10-02",30
"124","ABC","DS","ABC032",4,"COMPLETED","COMPLETED","DISPOSITION EVENT","END OF STUDY","FOLLOW-UP",6,"FOLLOW-UP",43,"2014-10-15",43
"125","ABC","DS","ABC033",1,"INFORMED CONSENT SIGNED","INFORMED CONSENT SIGNED","PROTOCOL MILESTONE","INFORMED CONSENT","SCREENING",1,"SCREENING",1,"2014-02-27",1
"126","ABC","DS","ABC033",2,"RANDOMIZATION INTO TREATMENT GROUP","RANDOMIZATION INTO TREATMENT GROUP","PROTOCOL MILESTONE","RANDOMIZATION","SCREENING",1,"SCREENING",1,"2014-02-27",1
"127","ABC","DS","ABC033",3,"COMPLETED","COMPLETED","DISPOSITION EVENT","END OF TREATMENT","TREATMENT",5,"VISIT 5",29,"2014-03-27",29
"128","ABC","DS","ABC033",4,"COMPLETED","COMPLETED","DISPOSITION EVENT","END OF STUDY","FOLLOW-UP",6,"FOLLOW-UP",42,"2014-04-09",42
"129","ABC","DS","ABC034",1,"INFORMED CONSENT SIGNED","INFORMED CONSENT SIGNED","PROTOCOL MILESTONE","INFORMED CONSENT","SCREENING",1,"SCREENING",1,"2014-02-18",1
"130","ABC","DS","ABC034",2,"RANDOMIZATION INTO TREATMENT GROUP","RANDOMIZATION INTO TREATMENT GROUP","PROTOCOL MILESTONE","RANDOMIZATION","SCREENING",1,"SCREENING",1,"2014-02-18",1
"131","ABC","DS","ABC034",3,"COMPLETED","COMPLETED","DISPOSITION EVENT","END OF TREATMENT","TREATMENT",5,"VISIT 5",28,"2014-03-17",28
"132","ABC","DS","ABC034",4,"COMPLETED","COMPLETED","DISPOSITION EVENT","END OF STUDY","FOLLOW-UP",6,"FOLLOW-UP",45,"2014-04-03",45
"133","ABC","DS","ABC035",1,"INFORMED CONSENT SIGNED","INFORMED CONSENT SIGNED","PROTOCOL MILESTONE","INFORMED CONSENT","SCREENING",1,"SCREENING",1,"2014-06-18",1
"134","ABC","DS","ABC035",2,"RANDOMIZATION INTO TREATMENT GROUP","RANDOMIZATION INTO TREATMENT GROUP","PROTOCOL MILESTONE","RANDOMIZATION","SCREENING",1,"SCREENING",1,"2014-06-18",1
"135","ABC","DS","ABC035",3,"COMPLETED","COMPLETED","DISPOSITION EVENT","END OF TREATMENT","TREATMENT",5,"VISIT 5",29,"2014-07-16",29
"136","ABC","DS","ABC035",4,"COMPLETED","COMPLETED","DISPOSITION EVENT","END OF STUDY","FOLLOW-UP",6,"FOLLOW-UP",43,"2014-07-30",43
"137","ABC","DS","ABC036",1,"INFORMED CONSENT SIGNED","INFORMED CONSENT SIGNED","PROTOCOL MILESTONE","INFORMED CONSENT","SCREENING",1,"SCREENING",1,"2014-07-19",1
"138","ABC","DS","ABC036",2,"RANDOMIZATION INTO TREATMENT GROUP","RANDOMIZATION INTO TREATMENT GROUP","PROTOCOL MILESTONE","RANDOMIZATION","SCREENING",1,"SCREENING",1,"2014-07-19",1
"139","ABC","DS","ABC036",3,"COMPLETED","COMPLETED","DISPOSITION EVENT","END OF TREATMENT","TREATMENT",5,"VISIT 5",30,"2014-08-17",30
"140","ABC","DS","ABC036",4,"COMPLETED","COMPLETED","DISPOSITION EVENT","END OF STUDY","FOLLOW-UP",6,"FOLLOW-UP",42,"2014-08-29",42
"141","ABC","DS","ABC037",1,"INFORMED CONSENT SIGNED","INFORMED CONSENT SIGNED","PROTOCOL MILESTONE","INFORMED CONSENT","SCREENING",1,"SCREENING",1,"2014-08-27",1
"142","ABC","DS","ABC037",2,"RANDOMIZATION INTO TREATMENT GROUP","RANDOMIZATION INTO TREATMENT GROUP","PROTOCOL MILESTONE","RANDOMIZATION","SCREENING",1,"SCREENING",1,"2014-08-27",1
"143","ABC","DS","ABC037",3,"COMPLETED","COMPLETED","DISPOSITION EVENT","END OF TREATMENT","TREATMENT",5,"VISIT 5",28,"2014-09-23",28
"144","ABC","DS","ABC037",4,"COMPLETED","COMPLETED","DISPOSITION EVENT","END OF STUDY","FOLLOW-UP",6,"FOLLOW-UP",45,"2014-10-10",45
"145","ABC","DS","ABC038",1,"INFORMED CONSENT SIGNED","INFORMED CONSENT SIGNED","PROTOCOL MILESTONE","INFORMED CONSENT","SCREENING",1,"SCREENING",1,"2014-06-22",1
"146","ABC","DS","ABC038",2,"RANDOMIZATION INTO TREATMENT GROUP","RANDOMIZATION INTO TREATMENT GROUP","PROTOCOL MILESTONE","RANDOMIZATION","SCREENING",1,"SCREENING",1,"2014-06-22",1
"147","ABC","DS","ABC038",3,"COMPLETED","COMPLETED","DISPOSITION EVENT","END OF TREATMENT","TREATMENT",5,"VISIT 5",30,"2014-07-21",30
"148","ABC","DS","ABC038",4,"COMPLETED","COMPLETED","DISPOSITION EVENT","END OF STUDY","FOLLOW-UP",6,"FOLLOW-UP",44,"2014-08-04",44
"149","ABC","DS","ABC039",1,"INFORMED CONSENT SIGNED","INFORMED CONSENT SIGNED","PROTOCOL MILESTONE","INFORMED CONSENT","SCREENING",1,"SCREENING",1,"2014-10-25",1
"150","ABC","DS","ABC039",2,"RANDOMIZATION INTO TREATMENT GROUP","RANDOMIZATION INTO TREATMENT GROUP","PROTOCOL MILESTONE","RANDOMIZATION","SCREENING",1,"SCREENING",1,"2014-10-25",1
"151","ABC","DS","ABC039",3,"COMPLETED","COMPLETED","DISPOSITION EVENT","END OF TREATMENT","TREATMENT",5,"VISIT 5",29,"2014-11-22",29
"152","ABC","DS","ABC039",4,"COMPLETED","COMPLETED","DISPOSITION EVENT","END OF STUDY","FOLLOW-UP",6,"FOLLOW-UP",42,"2014-12-05",42
"153","ABC","DS","ABC040",1,"INFORMED CONSENT SIGNED","INFORMED CONSENT SIGNED","PROTOCOL MILESTONE","INFORMED CONSENT","SCREENING",1,"SCREENING",1,"2014-06-19",1
"154","ABC","DS","ABC040",2,"RANDOMIZATION INTO TREATMENT GROUP","RANDOMIZATION INTO TREATMENT GROUP","PROTOCOL MILESTONE","RANDOMIZATION","SCREENING",1,"SCREENING",1,"2014-06-19",1
"155","ABC","DS","ABC040",3,"COMPLETED","COMPLETED","DISPOSITION EVENT","END OF TREATMENT","TREATMENT",5,"VISIT 5",29,"2014-07-17",29
"156","ABC","DS","ABC040",4,"COMPLETED","COMPLETED","DISPOSITION EVENT","END OF STUDY","FOLLOW-UP",6,"FOLLOW-UP",45,"2014-08-02",45
"157","ABC","DS","ABC041",1,"INFORMED CONSENT SIGNED","INFORMED CONSENT SIGNED","PROTOCOL MILESTONE","INFORMED CONSENT","SCREENING",1,"SCREENING",1,"2014-05-17",1
"158","ABC","DS","ABC041",2,"RANDOMIZATION INTO TREATMENT GROUP","RANDOMIZATION INTO TREATMENT GROUP","PROTOCOL MILESTONE","RANDOMIZATION","SCREENING",1,"SCREENING",1,"2014-05-17",1
"159","ABC","DS","ABC041",3,"COMPLETED","COMPLETED","DISPOSITION EVENT","END OF TREATMENT","TREATMENT",5,"VISIT 5",29,"2014-06-14",29
"160","ABC","DS","ABC041",4,"COMPLETED","COMPLETED","DISPOSITION EVENT","END OF STUDY","FOLLOW-UP",6,"FOLLOW-UP",45,"2014-06-30",45
"161","ABC","DS","ABC042",1,"INFORMED CONSENT SIGNED","INFORMED CONSENT SIGNED","PROTOCOL MILESTONE","INFORMED CONSENT","SCREENING",1,"SCREENING",1,"2014-06-07",1
"162","ABC","DS","ABC042",2,"RANDOMIZATION INTO TREATMENT GROUP","RANDOMIZATION INTO TREATMENT GROUP","PROTOCOL MILESTONE","RANDOMIZATION","SCREENING",1,"SCREENING",1,"2014-06-07",1
"163","ABC","DS","ABC042",3,"COMPLETED","COMPLETED","DISPOSITION EVENT","END OF TREATMENT","TREATMENT",5,"VISIT 5",29,"2014-07-05",29
"164","ABC","DS","ABC042",4,"COMPLETED","COMPLETED","DISPOSITION EVENT","END OF STUDY","FOLLOW-UP",6,"FOLLOW-UP",44,"2014-07-20",44
"165","ABC","DS","ABC043",1,"INFORMED CONSENT SIGNED","INFORMED CONSENT SIGNED","PROTOCOL MILESTONE","INFORMED CONSENT","SCREENING",1,"SCREENING",1,"2014-10-15",1
"166","ABC","DS","ABC043",2,"RANDOMIZATION INTO TREATMENT GROUP","RANDOMIZATION INTO TREATMENT GROUP","PROTOCOL MILESTONE","RANDOMIZATION","SCREENING",1,"SCREENING",1,"2014-10-15",1
"167","ABC","DS","ABC043",3,"COMPLETED","COMPLETED","DISPOSITION EVENT","END OF TREATMENT","TREATMENT",5,"VISIT 5",29,"2014-11-12",29
"168","ABC","DS","ABC043",4,"COMPLETED","COMPLETED","DISPOSITION EVENT","END OF STUDY","FOLLOW-UP",6,"FOLLOW-UP",42,"2014-11-25",42
"169","ABC","DS","ABC044",1,"INFORMED CONSENT SIGNED","INFORMED CONSENT SIGNED","PROTOCOL MILESTONE","INFORMED CONSENT","SCREENING",1,"SCREENING",1,"2014-08-07",1
"170","ABC","DS","ABC044",2,"RANDOMIZATION INTO TREATMENT GROUP","RANDOMIZATION INTO TREATMENT GROUP","PROTOCOL MILESTONE","RANDOMIZATION","SCREENING",1,"SCREENING",1,"2014-08-07",1
"171","ABC","DS","ABC044",3,"PHYSICIAN DECISION","PHYSICIAN DECISION","DISPOSITION EVENT","END OF TREATMENT","TREATMENT",2.1,"UNSCHEDULED 2.1",12,"2014-08-18",12
"172","ABC","DS","ABC044",4,"COMPLETED","COMPLETED","DISPOSITION EVENT","END OF STUDY","FOLLOW-UP",6,"FOLLOW-UP",44,"2014-09-19",44
"173","ABC","DS","ABC045",1,"INFORMED CONSENT SIGNED","INFORMED CONSENT SIGNED","PROTOCOL MILESTONE","INFORMED CONSENT","SCREENING",1,"SCREENING",1,"2014-04-25",1
"174","ABC","DS","ABC045",2,"RANDOMIZATION INTO TREATMENT GROUP","RANDOMIZATION INTO TREATMENT GROUP","PROTOCOL MILESTONE","RANDOMIZATION","SCREENING",1,"SCREENING",1,"2014-04-25",1
"175","ABC","DS","ABC045",3,"COMPLETED","COMPLETED","DISPOSITION EVENT","END OF TREATMENT","TREATMENT",5,"VISIT 5",29,"2014-05-23",29
"176","ABC","DS","ABC045",4,"COMPLETED","COMPLETED","DISPOSITION EVENT","END OF STUDY","FOLLOW-UP",6,"FOLLOW-UP",43,"2014-06-06",43
"177","ABC","DS","ABC046",1,"INFORMED CONSENT SIGNED","INFORMED CONSENT SIGNED","PROTOCOL MILESTONE","INFORMED CONSENT","SCREENING",1,"SCREENING",1,"2014-03-08",1
"178","ABC","DS","ABC046",2,"RANDOMIZATION INTO TREATMENT GROUP","RANDOMIZATION INTO TREATMENT GROUP","PROTOCOL MILESTONE","RANDOMIZATION","SCREENING",1,"SCREENING",1,"2014-03-08",1
"179","ABC","DS","ABC046",3,"COMPLETED","COMPLETED","DISPOSITION EVENT","END OF TREATMENT","TREATMENT",5,"VISIT 5",30,"2014-04-06",30
"180","ABC","DS","ABC046",4,"COMPLETED","COMPLETED","DISPOSITION EVENT","END OF STUDY","FOLLOW-UP",6,"FOLLOW-UP",44,"2014-04-20",44
"181","ABC","DS","ABC047",1,"INFORMED CONSENT SIGNED","INFORMED CONSENT SIGNED","PROTOCOL MILESTONE","INFORMED CONSENT","SCREENING",1,"SCREENING",1,"2014-09-26",1
"182","ABC","DS","ABC047",2,"RANDOMIZATION INTO TREATMENT GROUP","RANDOMIZATION INTO TREATMENT GROUP","PROTOCOL MILESTONE","RANDOMIZATION","SCREENING",1,"SCREENING",1,"2014-09-26",1
"183","ABC","DS","ABC047",3,"COMPLETED","COMPLETED","DISPOSITION EVENT","END OF TREATMENT","TREATMENT",5,"VISIT 5",30,"2014-10-25",30
"184","ABC","DS","ABC047",4,"COMPLETED","COMPLETED","DISPOSITION EVENT","END OF STUDY","FOLLOW-UP",6,"FOLLOW-UP",42,"2014-11-06",42
"185","ABC","DS","ABC048",1,"INFORMED CONSENT SIGNED","INFORMED CONSENT SIGNED","PROTOCOL MILESTONE","INFORMED CONSENT","SCREENING",1,"SCREENING",1,"2014-02-24",1
"186","ABC","DS","ABC048",2,"RANDOMIZATION INTO TREATMENT GROUP","RANDOMIZATION INTO TREATMENT GROUP","PROTOCOL MILESTONE","RANDOMIZATION","SCREENING",1,"SCREENING",1,"2014-02-24",1
"187","ABC","DS","ABC048",3,"COMPLETED","COMPLETED","DISPOSITION EVENT","END OF TREATMENT","TREATMENT",5,"VISIT 5",30,"2014-03-25",30
"188","ABC","DS","ABC048",4,"COMPLETED","COMPLETED","DISPOSITION EVENT","END OF STUDY","FOLLOW-UP",6,"FOLLOW-UP",44,"2014-04-08",44
"189","ABC","DS","ABC049",1,"INFORMED CONSENT SIGNED","INFORMED CONSENT SIGNED","PROTOCOL MILESTONE","INFORMED CONSENT","SCREENING",1,"SCREENING",1,"2014-04-16",1
"190","ABC","DS","ABC049",2,"RANDOMIZATION INTO TREATMENT GROUP","RANDOMIZATION INTO TREATMENT GROUP","PROTOCOL MILESTONE","RANDOMIZATION","SCREENING",1,"SCREENING",1,"2014-04-16",1
"191","ABC","DS","ABC049",3,"COMPLETED","COMPLETED","DISPOSITION EVENT","END OF TREATMENT","TREATMENT",5,"VISIT 5",28,"2014-05-13",28
"192","ABC","DS","ABC049",4,"COMPLETED","COMPLETED","DISPOSITION EVENT","END OF STUDY","FOLLOW-UP",6,"FOLLOW-UP",45,"2014-05-30",45
"193","ABC","DS","ABC050",1,"INFORMED CONSENT SIGNED","INFORMED CONSENT SIGNED","PROTOCOL MILESTONE","INFORMED CONSENT","SCREENING",1,"SCREENING",1,"2014-10-22",1
"194","ABC","DS","ABC050",2,"RANDOMIZATION INTO TREATMENT GROUP","RANDOMIZATION INTO TREATMENT GROUP","PROTOCOL MILESTONE","RANDOMIZATION","SCREENING",1,"SCREENING",1,"2014-10-22",1
"195","ABC","DS","ABC050",3,"COMPLETED","COMPLETED","DISPOSITION EVENT","END OF TREATMENT","TREATMENT",5,"VISIT 5",30,"2014-11-20",30
"196","ABC","DS","ABC050",4,"COMPLETED","COMPLETED","DISPOSITION EVENT","END OF STUDY","FOLLOW-UP",6,"FOLLOW-UP",45,"2014-12-05",45
"197","ABC","DS","ABC051",1,"INFORMED CONSENT SIGNED","INFORMED CONSENT SIGNED","PROTOCOL MILESTONE","INFORMED CONSENT","SCREENING",1,"SCREENING",1,"2014-06-30",1
"198","ABC","DS","ABC051",2,"RANDOMIZATION INTO TREATMENT GROUP","RANDOMIZATION INTO TREATMENT GROUP","PROTOCOL MILESTONE","RANDOMIZATION","SCREENING",1,"SCREENING",1,"2014-06-30",1
"199","ABC","DS","ABC051",3,"COMPLETED","COMPLETED","DISPOSITION EVENT","END OF TREATMENT","TREATMENT",5,"VISIT 5",28,"2014-07-27",28
"200","ABC","DS","ABC051",4,"LOST TO FOLLOW UP","LOST TO FOLLOW UP","DISPOSITION EVENT","END OF STUDY","FOLLOW-UP",5.1,"UNSCHEDULED 5.1",31,"2014-07-30",31
"201","ABC","DS","ABC052",1,"INFORMED CONSENT SIGNED","INFORMED CONSENT SIGNED","PROTOCOL MILESTONE","INFORMED CONSENT","SCREENING",1,"SCREENING",1,"2014-04-16",1
"202","ABC","DS","ABC052",2,"RANDOMIZATION INTO TREATMENT GROUP","RANDOMIZATION INTO TREATMENT GROUP","PROTOCOL MILESTONE","RANDOMIZATION","SCREENING",1,"SCREENING",1,"2014-04-16",1
"203","ABC","DS","ABC052",3,"COMPLETED","COMPLETED","DISPOSITION EVENT","END OF TREATMENT","TREATMENT",5,"VISIT 5",30,"2014-05-15",30
"204","ABC","DS","ABC052",4,"COMPLETED","COMPLETED","DISPOSITION EVENT","END OF STUDY","FOLLOW-UP",6,"FOLLOW-UP",42,"2014-05-27",42
"205","ABC","DS","ABC053",1,"INFORMED CONSENT SIGNED","INFORMED CONSENT SIGNED","PROTOCOL MILESTONE","INFORMED CONSENT","SCREENING",1,"SCREENING",1,"2014-07-23",1
"206","ABC","DS","ABC053",2,"RANDOMIZATION INTO TREATMENT GROUP","RANDOMIZATION INTO TREATMENT GROUP","PROTOCOL MILESTONE","RANDOMIZATION","SCREENING",1,"SCREENING",1,"2014-07-23",1
"207","ABC","DS","ABC053",3,"COMPLETED","COMPLETED","DISPOSITION EVENT","END OF TREATMENT","TREATMENT",5,"VISIT 5",30,"2014-08-21",30
"208","ABC","DS","ABC053",4,"COMPLETED","COMPLETED","DISPOSITION EVENT","END OF STUDY","FOLLOW-UP",6,"FOLLOW-UP",42,"2014-09-02",42
"209","ABC","DS","ABC054",1,"INFORMED CONSENT SIGNED","INFORMED CONSENT SIGNED","PROTOCOL MILESTONE","INFORMED CONSENT","SCREENING",1,"SCREENING",1,"2014-06-22",1
"210","ABC","DS","ABC054",2,"RANDOMIZATION INTO TREATMENT GROUP","RANDOMIZATION INTO TREATMENT GROUP","PROTOCOL MILESTONE","RANDOMIZATION","SCREENING",1,"SCREENING",1,"2014-06-22",1
"211","ABC","DS","ABC054",3,"COMPLETED","COMPLETED","DISPOSITION EVENT","END OF TREATMENT","TREATMENT",5,"VISIT 5",30,"2014-07-21",30
"212","ABC","DS","ABC054",4,"COMPLETED","COMPLETED","DISPOSITION EVENT","END OF STUDY","FOLLOW-UP",6,"FOLLOW-UP",41,"2014-08-01",41
"213","ABC","DS","ABC055",1,"INFORMED CONSENT SIGNED","INFORMED CONSENT SIGNED","PROTOCOL MILESTONE","INFORMED CONSENT","SCREENING",1,"SCREENING",1,"2014-08-04",1
"214","ABC","DS","ABC055",2,"RANDOMIZATION INTO TREATMENT GROUP","RANDOMIZATION INTO TREATMENT GROUP","PROTOCOL MILESTONE","RANDOMIZATION","SCREENING",1,"SCREENING",1,"2014-08-04",1
"215","ABC","DS","ABC055",3,"COMPLETED","COMPLETED","DISPOSITION EVENT","END OF TREATMENT","TREATMENT",5,"VISIT 5",29,"2014-09-01",29
"216","ABC","DS","ABC055",4,"COMPLETED","COMPLETED","DISPOSITION EVENT","END OF STUDY","FOLLOW-UP",6,"FOLLOW-UP",44,"2014-09-16",44
"217","ABC","DS","ABC056",1,"INFORMED CONSENT SIGNED","INFORMED CONSENT SIGNED","PROTOCOL MILESTONE","INFORMED CONSENT","SCREENING",1,"SCREENING",1,"2014-07-08",1
"218","ABC","DS","ABC056",2,"RANDOMIZATION INTO TREATMENT GROUP","RANDOMIZATION INTO TREATMENT GROUP","PROTOCOL MILESTONE","RANDOMIZATION","SCREENING",1,"SCREENING",1,"2014-07-08",1
"219","ABC","DS","ABC056",3,"COMPLETED","COMPLETED","DISPOSITION EVENT","END OF TREATMENT","TREATMENT",5,"VISIT 5",29,"2014-08-05",29
"220","ABC","DS","ABC056",4,"COMPLETED","COMPLETED","DISPOSITION EVENT","END OF STUDY","FOLLOW-UP",6,"FOLLOW-UP",45,"2014-08-21",45
"221","ABC","DS","ABC057",1,"INFORMED CONSENT SIGNED","INFORMED CONSENT SIGNED","PROTOCOL MILESTONE","INFORMED CONSENT","SCREENING",1,"SCREENING",1,"2014-03-28",1
"222","ABC","DS","ABC057",2,"RANDOMIZATION INTO TREATMENT GROUP","RANDOMIZATION INTO TREATMENT GROUP","PROTOCOL MILESTONE","RANDOMIZATION","SCREENING",1,"SCREENING",1,"2014-03-28",1
"223","ABC","DS","ABC057",3,"COMPLETED","COMPLETED","DISPOSITION EVENT","END OF TREATMENT","TREATMENT",5,"VISIT 5",29,"2014-04-25",29
"224","ABC","DS","ABC057",4,"COMPLETED","COMPLETED","DISPOSITION EVENT","END OF STUDY","FOLLOW-UP",6,"FOLLOW-UP",44,"2014-05-10",44
"225","ABC","DS","ABC058",1,"INFORMED CONSENT SIGNED","INFORMED CONSENT SIGNED","PROTOCOL MILESTONE","INFORMED CONSENT","SCREENING",1,"SCREENING",1,"2014-04-26",1
"226","ABC","DS","ABC058",2,"RANDOMIZATION INTO TREATMENT GROUP","RANDOMIZATION INTO TREATMENT GROUP","PROTOCOL MILESTONE","RANDOMIZATION","SCREENING",1,"SCREENING",1,"2014-04-26",1
"227","ABC","DS","ABC058",3,"COMPLETED","COMPLETED","DISPOSITION EVENT","END OF TREATMENT","TREATMENT",5,"VISIT 5",30,"2014-05-25",30
"228","ABC","DS","ABC058",4,"COMPLETED","COMPLETED","DISPOSITION EVENT","END OF STUDY","FOLLOW-UP",6,"FOLLOW-UP",42,"2014-06-06",42
"229","ABC","DS","ABC059",1,"INFORMED CONSENT SIGNED","INFORMED CONSENT SIGNED","PROTOCOL MILESTONE","INFORMED CONSENT","SCREENING",1,"SCREENING",1,"2014-04-05",1
"230","ABC","DS","ABC059",2,"RANDOMIZATION INTO TREATMENT GROUP","RANDOMIZATION INTO TREATMENT GROUP","PROTOCOL MILESTONE","RANDOMIZATION","SCREENING",1,"SCREENING",1,"2014-04-05",1
"231","ABC","DS","ABC059",3,"COMPLETED","COMPLETED","DISPOSITION EVENT","END OF TREATMENT","TREATMENT",5,"VISIT 5",29,"2014-05-03",29
"232","ABC","DS","ABC059",4,"COMPLETED","COMPLETED","DISPOSITION EVENT","END OF STUDY","FOLLOW-UP",6,"FOLLOW-UP",44,"2014-05-18",44
"233","ABC","DS","ABC060",1,"INFORMED CONSENT SIGNED","INFORMED CONSENT SIGNED","PROTOCOL MILESTONE","INFORMED CONSENT","SCREENING",1,"SCREENING",1,"2014-08-14",1
"234","ABC","DS","ABC060",2,"RANDOMIZATION INTO TREATMENT GROUP","RANDOMIZATION INTO TREATMENT GROUP","PROTOCOL MILESTONE","RANDOMIZATION","SCREENING",1,"SCREENING",1,"2014-08-14",1
"235","ABC","DS","ABC060",3,"COMPLETED","COMPLETED","DISPOSITION EVENT","END OF TREATMENT","TREATMENT",5,"VISIT 5",28,"2014-09-10",28
"236","ABC","DS","ABC060",4,"COMPLETED","COMPLETED","DISPOSITION EVENT","END OF STUDY","FOLLOW-UP",6,"FOLLOW-UP",45,"2014-09-27",45
"237","ABC","DS","ABC061",1,"INFORMED CONSENT SIGNED","INFORMED CONSENT SIGNED","PROTOCOL MILESTONE","INFORMED CONSENT","SCREENING",1,"SCREENING",1,"2014-10-08",1
"238","ABC","DS","ABC061",2,"RANDOMIZATION INTO TREATMENT GROUP","RANDOMIZATION INTO TREATMENT GROUP","PROTOCOL MILESTONE","RANDOMIZATION","SCREENING",1,"SCREENING",1,"2014-10-08",1
"239","ABC","DS","ABC061",3,"COMPLETED","COMPLETED","DISPOSITION EVENT","END OF TREATMENT","TREATMENT",5,"VISIT 5",30,"2014-11-06",30
"240","ABC","DS","ABC061",4,"COMPLETED","COMPLETED","DISPOSITION EVENT","END OF STUDY","FOLLOW-UP",6,"FOLLOW-UP",45,"2014-11-21",45
"241","ABC","DS","ABC062",1,"INFORMED CONSENT SIGNED","INFORMED CONSENT SIGNED","PROTOCOL MILESTONE","INFORMED CONSENT","SCREENING",1,"SCREENING",1,"2014-07-13",1
"242","ABC","DS","ABC062",2,"RANDOMIZATION INTO TREATMENT GROUP","RANDOMIZATION INTO TREATMENT GROUP","PROTOCOL MILESTONE","RANDOMIZATION","SCREENING",1,"SCREENING",1,"2014-07-13",1
"243","ABC","DS","ABC062",3,"COMPLETED","COMPLETED","DISPOSITION EVENT","END OF TREATMENT","TREATMENT",5,"VISIT 5",30,"2014-08-11",30
"244","ABC","DS","ABC062",4,"COMPLETED","COMPLETED","DISPOSITION EVENT","END OF STUDY","FOLLOW-UP",6,"FOLLOW-UP",44,"2014-08-25",44
"245","ABC","DS","ABC063",1,"INFORMED CONSENT SIGNED","INFORMED CONSENT SIGNED","PROTOCOL MILESTONE","INFORMED CONSENT","SCREENING",1,"SCREENING",1,"2014-08-09",1
"246","ABC","DS","ABC063",2,"RANDOMIZATION INTO TREATMENT GROUP","RANDOMIZATION INTO TREATMENT GROUP","PROTOCOL MILESTONE","RANDOMIZATION","SCREENING",1,"SCREENING",1,"2014-08-09",1
"247","ABC","DS","ABC063",3,"COMPLETED","COMPLETED","DISPOSITION EVENT","END OF TREATMENT","TREATMENT",5,"VISIT 5",28,"2014-09-05",28
"248","ABC","DS","ABC063",4,"COMPLETED","COMPLETED","DISPOSITION EVENT","END OF STUDY","FOLLOW-UP",6,"FOLLOW-UP",45,"2014-09-22",45
"249","ABC","DS","ABC064",1,"INFORMED CONSENT SIGNED","INFORMED CONSENT SIGNED","PROTOCOL MILESTONE","INFORMED CONSENT","SCREENING",1,"SCREENING",1,"2014-01-22",1
"250","ABC","DS","ABC064",2,"RANDOMIZATION INTO TREATMENT GROUP","RANDOMIZATION INTO TREATMENT GROUP","PROTOCOL MILESTONE","RANDOMIZATION","SCREENING",1,"SCREENING",1,"2014-01-22",1
"251","ABC","DS","ABC064",3,"COMPLETED","COMPLETED","DISPOSITION EVENT","END OF TREATMENT","TREATMENT",5,"VISIT 5",29,"2014-02-19",29
"252","ABC","DS","ABC064",4,"COMPLETED","COMPLETED","DISPOSITION EVENT","END OF STUDY","FOLLOW-UP",6,"FOLLOW-UP",45,"2014-03-07",45
"253","ABC","DS","ABC065",1,"INFORMED CONSENT SIGNED","INFORMED CONSENT SIGNED","PROTOCOL MILESTONE","INFORMED CONSENT","SCREENING",1,"SCREENING",1,"2014-08-07",1
"254","ABC","DS","ABC065",2,"RANDOMIZATION INTO TREATMENT GROUP","RANDOMIZATION INTO TREATMENT GROUP","PROTOCOL MILESTONE","RANDOMIZATION","SCREENING",1,"SCREENING",1,"2014-08-07",1
"255","ABC","DS","ABC065",3,"COMPLETED","COMPLETED","DISPOSITION EVENT","END OF TREATMENT","TREATMENT",5,"VISIT 5",30,"2014-09-05",30
"256","ABC","DS","ABC065",4,"COMPLETED","COMPLETED","DISPOSITION EVENT","END OF STUDY","FOLLOW-UP",6,"FOLLOW-UP",44,"2014-09-19",44
"257","ABC","DS","ABC066",1,"INFORMED CONSENT SIGNED","INFORMED CONSENT SIGNED","PROTOCOL MILESTONE","INFORMED CONSENT","SCREENING",1,"SCREENING",1,"2014-04-22",1
"258","ABC","DS","ABC066",2,"RANDOMIZATION INTO TREATMENT GROUP","RANDOMIZATION INTO TREATMENT GROUP","PROTOCOL MILESTONE","RANDOMIZATION","SCREENING",1,"SCREENING",1,"2014-04-22",1
"259","ABC","DS","ABC066",3,"COMPLETED","COMPLETED","DISPOSITION EVENT","END OF TREATMENT","TREATMENT",5,"VISIT 5",30,"2014-05-21",30
"260","ABC","DS","ABC066",4,"COMPLETED","COMPLETED","DISPOSITION EVENT","END OF STUDY","FOLLOW-UP",6,"FOLLOW-UP",41,"2014-06-01",41
"261","ABC","DS","ABC067",1,"INFORMED CONSENT SIGNED","INFORMED CONSENT SIGNED","PROTOCOL MILESTONE","INFORMED CONSENT","SCREENING",1,"SCREENING",1,"2014-04-28",1
"262","ABC","DS","ABC067",2,"RANDOMIZATION INTO TREATMENT GROUP","RANDOMIZATION INTO TREATMENT GROUP","PROTOCOL MILESTONE","RANDOMIZATION","SCREENING",1,"SCREENING",1,"2014-04-28",1
"263","ABC","DS","ABC067",3,"COMPLETED","COMPLETED","DISPOSITION EVENT","END OF TREATMENT","TREATMENT",5,"VISIT 5",30,"2014-05-27",30
"264","ABC","DS","ABC067",4,"COMPLETED","COMPLETED","DISPOSITION EVENT","END OF STUDY","FOLLOW-UP",6,"FOLLOW-UP",41,"2014-06-07",41
"265","ABC","DS","ABC068",1,"INFORMED CONSENT SIGNED","INFORMED CONSENT SIGNED","PROTOCOL MILESTONE","INFORMED CONSENT","SCREENING",1,"SCREENING",1,"2014-06-14",1
"266","ABC","DS","ABC068",2,"RANDOMIZATION INTO TREATMENT GROUP","RANDOMIZATION INTO TREATMENT GROUP","PROTOCOL MILESTONE","RANDOMIZATION","SCREENING",1,"SCREENING",1,"2014-06-14",1
"267","ABC","DS","ABC068",3,"COMPLETED","COMPLETED","DISPOSITION EVENT","END OF TREATMENT","TREATMENT",5,"VISIT 5",30,"2014-07-13",30
"268","ABC","DS","ABC068",4,"COMPLETED","COMPLETED","DISPOSITION EVENT","END OF STUDY","FOLLOW-UP",6,"FOLLOW-UP",42,"2014-07-25",42
"269","ABC","DS","ABC069",1,"INFORMED CONSENT SIGNED","INFORMED CONSENT SIGNED","PROTOCOL MILESTONE","INFORMED CONSENT","SCREENING",1,"SCREENING",1,"2014-08-10",1
"270","ABC","DS","ABC069",2,"RANDOMIZATION INTO TREATMENT GROUP","RANDOMIZATION INTO TREATMENT GROUP","PROTOCOL MILESTONE","RANDOMIZATION","SCREENING",1,"SCREENING",1,"2014-08-10",1
"271","ABC","DS","ABC069",3,"COMPLETED","COMPLETED","DISPOSITION EVENT","END OF TREATMENT","TREATMENT",5,"VISIT 5",30,"2014-09-08",30
"272","ABC","DS","ABC069",4,"COMPLETED","COMPLETED","DISPOSITION EVENT","END OF STUDY","FOLLOW-UP",6,"FOLLOW-UP",44,"2014-09-22",44
"273","ABC","DS","ABC070",1,"INFORMED CONSENT SIGNED","INFORMED CONSENT SIGNED","PROTOCOL MILESTONE","INFORMED CONSENT","SCREENING",1,"SCREENING",1,"2014-05-22",1
"274","ABC","DS","ABC070",2,"RANDOMIZATION INTO TREATMENT GROUP","RANDOMIZATION INTO TREATMENT GROUP","PROTOCOL MILESTONE","RANDOMIZATION","SCREENING",1,"SCREENING",1,"2014-05-22",1
"275","ABC","DS","ABC070",3,"COMPLETED","COMPLETED","DISPOSITION EVENT","END OF TREATMENT","TREATMENT",5,"VISIT 5",29,"2014-06-19",29
"276","ABC","DS","ABC070",4,"COMPLETED","COMPLETED","DISPOSITION EVENT","END OF STUDY","FOLLOW-UP",6,"FOLLOW-UP",43,"2014-07-03",43
"277","ABC","DS","ABC071",1,"INFORMED CONSENT SIGNED","INFORMED CONSENT SIGNED","PROTOCOL MILESTONE","INFORMED CONSENT","SCREENING",1,"SCREENING",1,"2014-03-03",1
"278","ABC","DS","ABC071",2,"RANDOMIZATION INTO TREATMENT GROUP","RANDOMIZATION INTO TREATMENT GROUP","PROTOCOL MILESTONE","RANDOMIZATION","SCREENING",1,"SCREENING",1,"2014-03-03",1
"279","ABC","DS","ABC071",3,"COMPLETED","COMPLETED","DISPOSITION EVENT","END OF TREATMENT","TREATMENT",5,"VISIT 5",28,"2014-03-30",28
"280","ABC","DS","ABC071",4,"COMPLETED","COMPLETED","DISPOSITION EVENT","END OF STUDY","FOLLOW-UP",6,"FOLLOW-UP",43,"2014-04-14",43
"281","ABC","DS","ABC072",1,"INFORMED CONSENT SIGNED","INFORMED CONSENT SIGNED","PROTOCOL MILESTONE","INFORMED CONSENT","SCREENING",1,"SCREENING",1,"2014-09-12",1
"282","ABC","DS","ABC072",2,"RANDOMIZATION INTO TREATMENT GROUP","RANDOMIZATION INTO TREATMENT GROUP","PROTOCOL MILESTONE","RANDOMIZATION","SCREENING",1,"SCREENING",1,"2014-09-12",1
"283","ABC","DS","ABC072",3,"COMPLETED","COMPLETED","DISPOSITION EVENT","END OF TREATMENT","TREATMENT",5,"VISIT 5",29,"2014-10-10",29
"284","ABC","DS","ABC072",4,"COMPLETED","COMPLETED","DISPOSITION EVENT","END OF STUDY","FOLLOW-UP",6,"FOLLOW-UP",44,"2014-10-25",44
"285","ABC","DS","ABC073",1,"INFORMED CONSENT SIGNED","INFORMED CONSENT SIGNED","PROTOCOL MILESTONE","INFORMED CONSENT","SCREENING",1,"SCREENING",1,"2014-08-15",1
"286","ABC","DS","ABC073",2,"RANDOMIZATION INTO TREATMENT GROUP","RANDOMIZATION INTO TREATMENT GROUP","PROTOCOL MILESTONE","RANDOMIZATION","SCREENING",1,"SCREENING",1,"2014-08-15",1
"287","ABC","DS","ABC073",3,"COMPLETED","COMPLETED","DISPOSITION EVENT","END OF TREATMENT","TREATMENT",5,"VISIT 5",28,"2014-09-11",28
"288","ABC","DS","ABC073",4,"COMPLETED","COMPLETED","DISPOSITION EVENT","END OF STUDY","FOLLOW-UP",6,"FOLLOW-UP",42,"2014-09-25",42
"289","ABC","DS","ABC074",1,"INFORMED CONSENT SIGNED","INFORMED CONSENT SIGNED","PROTOCOL MILESTONE","INFORMED CONSENT","SCREENING",1,"SCREENING",1,"2014-02-28",1
"290","ABC","DS","ABC074",2,"RANDOMIZATION INTO TREATMENT GROUP","RANDOMIZATION INTO TREATMENT GROUP","PROTOCOL MILESTONE","RANDOMIZATION","SCREENING",1,"SCREENING",1,"2014-02-28",1
"291","ABC","DS","ABC074",3,"COMPLETED","COMPLETED","DISPOSITION EVENT","END OF TREATMENT","TREATMENT",5,"VISIT 5",29,"2014-03-28",29
"292","ABC","DS","ABC074",4,"COMPLETED","COMPLETED","DISPOSITION EVENT","END OF STUDY","FOLLOW-UP",6,"FOLLOW-UP",45,"2014-04-13",45
"293","ABC","DS","ABC075",1,"INFORMED CONSENT SIGNED","INFORMED CONSENT SIGNED","PROTOCOL MILESTONE","INFORMED CONSENT","SCREENING",1,"SCREENING",1,"2014-06-15",1
"294","ABC","DS","ABC075",2,"RANDOMIZATION INTO TREATMENT GROUP","RANDOMIZATION INTO TREATMENT GROUP","PROTOCOL MILESTONE","RANDOMIZATION","SCREENING",1,"SCREENING",1,"2014-06-15",1
"295","ABC","DS","ABC075",3,"COMPLETED","COMPLETED","DISPOSITION EVENT","END OF TREATMENT","TREATMENT",5,"VISIT 5",30,"2014-07-14",30
"296","ABC","DS","ABC075",4,"COMPLETED","COMPLETED","DISPOSITION EVENT","END OF STUDY","FOLLOW-UP",6,"FOLLOW-UP",44,"2014-07-28",44
"297","ABC","DS","ABC076",1,"INFORMED CONSENT SIGNED","INFORMED CONSENT SIGNED","PROTOCOL MILESTONE","INFORMED CONSENT","SCREENING",1,"SCREENING",1,"2014-05-05",1
"298","ABC","DS","ABC076",2,"RANDOMIZATION INTO TREATMENT GROUP","RANDOMIZATION INTO TREATMENT GROUP","PROTOCOL MILESTONE","RANDOMIZATION","SCREENING",1,"SCREENING",1,"2014-05-05",1
"299","ABC","DS","ABC076",3,"COMPLETED","COMPLETED","DISPOSITION EVENT","END OF TREATMENT","TREATMENT",5,"VISIT 5",30,"2014-06-03",30
"300","ABC","DS","ABC076",4,"COMPLETED","COMPLETED","DISPOSITION EVENT","END OF STUDY","FOLLOW-UP",6,"FOLLOW-UP",41,"2014-06-14",41
"301","ABC","DS","ABC077",1,"INFORMED CONSENT SIGNED","INFORMED CONSENT SIGNED","PROTOCOL MILESTONE","INFORMED CONSENT","SCREENING",1,"SCREENING",1,"2014-10-06",1
"302","ABC","DS","ABC077",2,"RANDOMIZATION INTO TREATMENT GROUP","RANDOMIZATION INTO TREATMENT GROUP","PROTOCOL MILESTONE","RANDOMIZATION","SCREENING",1,"SCREENING",1,"2014-10-06",1
"303","ABC","DS","ABC077",3,"COMPLETED","COMPLETED","DISPOSITION EVENT","END OF TREATMENT","TREATMENT",5,"VISIT 5",28,"2014-11-02",28
"304","ABC","DS","ABC077",4,"COMPLETED","COMPLETED","DISPOSITION EVENT","END OF STUDY","FOLLOW-UP",6,"FOLLOW-UP",45,"2014-11-19",45
"305","ABC","DS","ABC078",1,"INFORMED CONSENT SIGNED","INFORMED CONSENT SIGNED","PROTOCOL MILESTONE","INFORMED CONSENT","SCREENING",1,"SCREENING",1,"2014-04-04",1
"306","ABC","DS","ABC078",2,"RANDOMIZATION INTO TREATMENT GROUP","RANDOMIZATION INTO TREATMENT GROUP","PROTOCOL MILESTONE","RANDOMIZATION","SCREENING",1,"SCREENING",1,"2014-04-04",1
"307","ABC","DS","ABC078",3,"COMPLETED","COMPLETED","DISPOSITION EVENT","END OF TREATMENT","TREATMENT",5,"VISIT 5",29,"2014-05-02",29
"308","ABC","DS","ABC078",4,"COMPLETED","COMPLETED","DISPOSITION EVENT","END OF STUDY","FOLLOW-UP",6,"FOLLOW-UP",42,"2014-05-15",42
"309","ABC","DS","ABC079",1,"INFORMED CONSENT SIGNED","INFORMED CONSENT SIGNED","PROTOCOL MILESTONE","INFORMED CONSENT","SCREENING",1,"SCREENING",1,"2014-07-05",1
"310","ABC","DS","ABC079",2,"RANDOMIZATION INTO TREATMENT GROUP","RANDOMIZATION INTO TREATMENT GROUP","PROTOCOL MILESTONE","RANDOMIZATION","SCREENING",1,"SCREENING",1,"2014-07-05",1
"311","ABC","DS","ABC079",3,"COMPLETED","COMPLETED","DISPOSITION EVENT","END OF TREATMENT","TREATMENT",5,"VISIT 5",30,"2014-08-03",30
"312","ABC","DS","ABC079",4,"COMPLETED","COMPLETED","DISPOSITION EVENT","END OF STUDY","FOLLOW-UP",6,"FOLLOW-UP",41,"2014-08-14",41
"313","ABC","DS","ABC080",1,"INFORMED CONSENT SIGNED","INFORMED CONSENT SIGNED","PROTOCOL MILESTONE","INFORMED CONSENT","SCREENING",1,"SCREENING",1,"2014-04-13",1
"314","ABC","DS","ABC080",2,"RANDOMIZATION INTO TREATMENT GROUP","RANDOMIZATION INTO TREATMENT GROUP","PROTOCOL MILESTONE","RANDOMIZATION","SCREENING",1,"SCREENING",1,"2014-04-13",1
"315","ABC","DS","ABC080",3,"DEATH","DEATH","DISPOSITION EVENT","END OF TREATMENT","TREATMENT",2.1,"UNSCHEDULED 2.1",13,"2014-04-25",13
"316","ABC","DS","ABC080",4,"DEATH","DEATH","DISPOSITION EVENT","END OF STUDY","FOLLOW-UP",2.1,"UNSCHEDULED 2.1",13,"2014-04-25",13
"317","ABC","DS","ABC081",1,"INFORMED CONSENT SIGNED","INFORMED CONSENT SIGNED","PROTOCOL MILESTONE","INFORMED CONSENT","SCREENING",1,"SCREENING",1,"2014-04-16",1
"318","ABC","DS","ABC081",2,"RANDOMIZATION INTO TREATMENT GROUP","RANDOMIZATION INTO TREATMENT GROUP","PROTOCOL MILESTONE","RANDOMIZATION","SCREENING",1,"SCREENING",1,"2014-04-16",1
"319","ABC","DS","ABC081",3,"COMPLETED","COMPLETED","DISPOSITION EVENT","END OF TREATMENT","TREATMENT",5,"VISIT 5",30,"2014-05-15",30
"320","ABC","DS","ABC081",4,"COMPLETED","COMPLETED","DISPOSITION EVENT","END OF STUDY","FOLLOW-UP",6,"FOLLOW-UP",45,"2014-05-30",45
"321","ABC","DS","ABC082",1,"INFORMED CONSENT SIGNED","INFORMED CONSENT SIGNED","PROTOCOL MILESTONE","INFORMED CONSENT","SCREENING",1,"SCREENING",1,"2014-04-10",1
"322","ABC","DS","ABC082",2,"RANDOMIZATION INTO TREATMENT GROUP","RANDOMIZATION INTO TREATMENT GROUP","PROTOCOL MILESTONE","RANDOMIZATION","SCREENING",1,"SCREENING",1,"2014-04-10",1
"323","ABC","DS","ABC082",3,"COMPLETED","COMPLETED","DISPOSITION EVENT","END OF TREATMENT","TREATMENT",5,"VISIT 5",30,"2014-05-09",30
"324","ABC","DS","ABC082",4,"COMPLETED","COMPLETED","DISPOSITION EVENT","END OF STUDY","FOLLOW-UP",6,"FOLLOW-UP",42,"2014-05-21",42
"325","ABC","DS","ABC083",1,"INFORMED CONSENT SIGNED","INFORMED CONSENT SIGNED","PROTOCOL MILESTONE","INFORMED CONSENT","SCREENING",1,"SCREENING",1,"2014-05-01",1
"326","ABC","DS","ABC083",2,"RANDOMIZATION INTO TREATMENT GROUP","RANDOMIZATION INTO TREATMENT GROUP","PROTOCOL MILESTONE","RANDOMIZATION","SCREENING",1,"SCREENING",1,"2014-05-01",1
"327","ABC","DS","ABC083",3,"COMPLETED","COMPLETED","DISPOSITION EVENT","END OF TREATMENT","TREATMENT",5,"VISIT 5",29,"2014-05-29",29
"328","ABC","DS","ABC083",4,"COMPLETED","COMPLETED","DISPOSITION EVENT","END OF STUDY","FOLLOW-UP",6,"FOLLOW-UP",45,"2014-06-14",45
"329","ABC","DS","ABC084",1,"INFORMED CONSENT SIGNED","INFORMED CONSENT SIGNED","PROTOCOL MILESTONE","INFORMED CONSENT","SCREENING",1,"SCREENING",1,"2014-06-26",1
"330","ABC","DS","ABC084",2,"RANDOMIZATION INTO TREATMENT GROUP","RANDOMIZATION INTO TREATMENT GROUP","PROTOCOL MILESTONE","RANDOMIZATION","SCREENING",1,"SCREENING",1,"2014-06-26",1
"331","ABC","DS","ABC084",3,"COMPLETED","COMPLETED","DISPOSITION EVENT","END OF TREATMENT","TREATMENT",5,"VISIT 5",28,"2014-07-23",28
"332","ABC","DS","ABC084",4,"COMPLETED","COMPLETED","DISPOSITION EVENT","END OF STUDY","FOLLOW-UP",6,"FOLLOW-UP",43,"2014-08-07",43
"333","ABC","DS","ABC085",1,"INFORMED CONSENT SIGNED","INFORMED CONSENT SIGNED","PROTOCOL MILESTONE","INFORMED CONSENT","SCREENING",1,"SCREENING",1,"2014-10-27",1
"334","ABC","DS","ABC085",2,"RANDOMIZATION INTO TREATMENT GROUP","RANDOMIZATION INTO TREATMENT GROUP","PROTOCOL MILESTONE","RANDOMIZATION","SCREENING",1,"SCREENING",1,"2014-10-27",1
"335","ABC","DS","ABC085",3,"COMPLETED","COMPLETED","DISPOSITION EVENT","END OF TREATMENT","TREATMENT",5,"VISIT 5",28,"2014-11-23",28
"336","ABC","DS","ABC085",4,"COMPLETED","COMPLETED","DISPOSITION EVENT","END OF STUDY","FOLLOW-UP",6,"FOLLOW-UP",44,"2014-12-09",44
"337","ABC","DS","ABC086",1,"INFORMED CONSENT SIGNED","INFORMED CONSENT SIGNED","PROTOCOL MILESTONE","INFORMED CONSENT","SCREENING",1,"SCREENING",1,"2014-02-17",1
"338","ABC","DS","ABC086",2,"RANDOMIZATION INTO TREATMENT GROUP","RANDOMIZATION INTO TREATMENT GROUP","PROTOCOL MILESTONE","RANDOMIZATION","SCREENING",1,"SCREENING",1,"2014-02-17",1
"339","ABC","DS","ABC086",3,"COMPLETED","COMPLETED","DISPOSITION EVENT","END OF TREATMENT","TREATMENT",5,"VISIT 5",28,"2014-03-16",28
"340","ABC","DS","ABC086",4,"COMPLETED","COMPLETED","DISPOSITION EVENT","END OF STUDY","FOLLOW-UP",6,"FOLLOW-UP",44,"2014-04-01",44
"341","ABC","DS","ABC087",1,"INFORMED CONSENT SIGNED","INFORMED CONSENT SIGNED","PROTOCOL MILESTONE","INFORMED CONSENT","SCREENING",1,"SCREENING",1,"2014-09-29",1
"342","ABC","DS","ABC087",2,"RANDOMIZATION INTO TREATMENT GROUP","RANDOMIZATION INTO TREATMENT GROUP","PROTOCOL MILESTONE","RANDOMIZATION","SCREENING",1,"SCREENING",1,"2014-09-29",1
"343","ABC","DS","ABC087",3,"COMPLETED","COMPLETED","DISPOSITION EVENT","END OF TREATMENT","TREATMENT",5,"VISIT 5",30,"2014-10-28",30
"344","ABC","DS","ABC087",4,"COMPLETED","COMPLETED","DISPOSITION EVENT","END OF STUDY","FOLLOW-UP",6,"FOLLOW-UP",44,"2014-11-11",44
"345","ABC","DS","ABC088",1,"INFORMED CONSENT SIGNED","INFORMED CONSENT SIGNED","PROTOCOL MILESTONE","INFORMED CONSENT","SCREENING",1,"SCREENING",1,"2014-02-01",1
"346","ABC","DS","ABC088",2,"RANDOMIZATION INTO TREATMENT GROUP","RANDOMIZATION INTO TREATMENT GROUP","PROTOCOL MILESTONE","RANDOMIZATION","SCREENING",1,"SCREENING",1,"2014-02-01",1
"347","ABC","DS","ABC088",3,"COMPLETED","COMPLETED","DISPOSITION EVENT","END OF TREATMENT","TREATMENT",5,"VISIT 5",30,"2014-03-02",30
"348","ABC","DS","ABC088",4,"COMPLETED","COMPLETED","DISPOSITION EVENT","END OF STUDY","FOLLOW-UP",6,"FOLLOW-UP",42,"2014-03-14",42
"349","ABC","DS","ABC089",1,"INFORMED CONSENT SIGNED","INFORMED CONSENT SIGNED","PROTOCOL MILESTONE","INFORMED CONSENT","SCREENING",1,"SCREENING",1,"2014-01-28",1
"350","ABC","DS","ABC089",2,"RANDOMIZATION INTO TREATMENT GROUP","RANDOMIZATION INTO TREATMENT GROUP","PROTOCOL MILESTONE","RANDOMIZATION","SCREENING",1,"SCREENING",1,"2014-01-28",1
"351","ABC","DS","ABC089",3,"COMPLETED","COMPLETED","DISPOSITION EVENT","END OF TREATMENT","TREATMENT",5,"VISIT 5",29,"2014-02-25",29
"352","ABC","DS","ABC089",4,"COMPLETED","COMPLETED","DISPOSITION EVENT","END OF STUDY","FOLLOW-UP",6,"FOLLOW-UP",41,"2014-03-09",41
"353","ABC","DS","ABC091",1,"INFORMED CONSENT SIGNED","INFORMED CONSENT SIGNED","PROTOCOL MILESTONE","INFORMED CONSENT","SCREENING",1,"SCREENING",1,"2014-08-31",1
"354","ABC","DS","ABC091",2,"RANDOMIZATION INTO TREATMENT GROUP","RANDOMIZATION INTO TREATMENT GROUP","PROTOCOL MILESTONE","RANDOMIZATION","SCREENING",1,"SCREENING",1,"2014-08-31",1
"355","ABC","DS","ABC091",3,"COMPLETED","COMPLETED","DISPOSITION EVENT","END OF TREATMENT","TREATMENT",5,"VISIT 5",28,"2014-09-27",28
"356","ABC","DS","ABC091",4,"LOST TO FOLLOW UP","LOST TO FOLLOW UP","DISPOSITION EVENT","END OF STUDY","FOLLOW-UP",5.1,"UNSCHEDULED 5.1",44,"2014-10-13",44
"357","ABC","DS","ABC092",1,"INFORMED CONSENT SIGNED","INFORMED CONSENT SIGNED","PROTOCOL MILESTONE","INFORMED CONSENT","SCREENING",1,"SCREENING",1,"2014-10-09",1
"358","ABC","DS","ABC092",2,"RANDOMIZATION INTO TREATMENT GROUP","RANDOMIZATION INTO TREATMENT GROUP","PROTOCOL MILESTONE","RANDOMIZATION","SCREENING",1,"SCREENING",1,"2014-10-09",1
"359","ABC","DS","ABC092",3,"COMPLETED","COMPLETED","DISPOSITION EVENT","END OF TREATMENT","TREATMENT",5,"VISIT 5",29,"2014-11-06",29
"360","ABC","DS","ABC092",4,"LOST TO FOLLOW UP","LOST TO FOLLOW UP","DISPOSITION EVENT","END OF STUDY","FOLLOW-UP",5.1,"UNSCHEDULED 5.1",30,"2014-11-07",30
"361","ABC","DS","ABC093",1,"INFORMED CONSENT SIGNED","INFORMED CONSENT SIGNED","PROTOCOL MILESTONE","INFORMED CONSENT","SCREENING",1,"SCREENING",1,"2014-09-20",1
"362","ABC","DS","ABC093",2,"RANDOMIZATION INTO TREATMENT GROUP","RANDOMIZATION INTO TREATMENT GROUP","PROTOCOL MILESTONE","RANDOMIZATION","SCREENING",1,"SCREENING",1,"2014-09-20",1
"363","ABC","DS","ABC093",3,"COMPLETED","COMPLETED","DISPOSITION EVENT","END OF TREATMENT","TREATMENT",5,"VISIT 5",30,"2014-10-19",30
"364","ABC","DS","ABC093",4,"COMPLETED","COMPLETED","DISPOSITION EVENT","END OF STUDY","FOLLOW-UP",6,"FOLLOW-UP",45,"2014-11-03",45
"365","ABC","DS","ABC094",1,"INFORMED CONSENT SIGNED","INFORMED CONSENT SIGNED","PROTOCOL MILESTONE","INFORMED CONSENT","SCREENING",1,"SCREENING",1,"2014-05-13",1
"366","ABC","DS","ABC094",2,"RANDOMIZATION INTO TREATMENT GROUP","RANDOMIZATION INTO TREATMENT GROUP","PROTOCOL MILESTONE","RANDOMIZATION","SCREENING",1,"SCREENING",1,"2014-05-13",1
"367","ABC","DS","ABC094",3,"COMPLETED","COMPLETED","DISPOSITION EVENT","END OF TREATMENT","TREATMENT",5,"VISIT 5",30,"2014-06-11",30
"368","ABC","DS","ABC094",4,"COMPLETED","COMPLETED","DISPOSITION EVENT","END OF STUDY","FOLLOW-UP",6,"FOLLOW-UP",44,"2014-06-25",44
"369","ABC","DS","ABC095",1,"INFORMED CONSENT SIGNED","INFORMED CONSENT SIGNED","PROTOCOL MILESTONE","INFORMED CONSENT","SCREENING",1,"SCREENING",1,"2014-01-17",1
"370","ABC","DS","ABC095",2,"RANDOMIZATION INTO TREATMENT GROUP","RANDOMIZATION INTO TREATMENT GROUP","PROTOCOL MILESTONE","RANDOMIZATION","SCREENING",1,"SCREENING",1,"2014-01-17",1
"371","ABC","DS","ABC095",3,"COMPLETED","COMPLETED","DISPOSITION EVENT","END OF TREATMENT","TREATMENT",5,"VISIT 5",30,"2014-02-15",30
"372","ABC","DS","ABC095",4,"COMPLETED","COMPLETED","DISPOSITION EVENT","END OF STUDY","FOLLOW-UP",6,"FOLLOW-UP",44,"2014-03-01",44
"373","ABC","DS","ABC096",1,"INFORMED CONSENT SIGNED","INFORMED CONSENT SIGNED","PROTOCOL MILESTONE","INFORMED CONSENT","SCREENING",1,"SCREENING",1,"2014-10-15",1
"374","ABC","DS","ABC096",2,"RANDOMIZATION INTO TREATMENT GROUP","RANDOMIZATION INTO TREATMENT GROUP","PROTOCOL MILESTONE","RANDOMIZATION","SCREENING",1,"SCREENING",1,"2014-10-15",1
"375","ABC","DS","ABC096",3,"COMPLETED","COMPLETED","DISPOSITION EVENT","END OF TREATMENT","TREATMENT",5,"VISIT 5",29,"2014-11-12",29
"376","ABC","DS","ABC096",4,"COMPLETED","COMPLETED","DISPOSITION EVENT","END OF STUDY","FOLLOW-UP",6,"FOLLOW-UP",42,"2014-11-25",42
"377","ABC","DS","ABC097",1,"INFORMED CONSENT SIGNED","INFORMED CONSENT SIGNED","PROTOCOL MILESTONE","INFORMED CONSENT","SCREENING",1,"SCREENING",1,"2014-10-22",1
"378","ABC","DS","ABC097",2,"RANDOMIZATION INTO TREATMENT GROUP","RANDOMIZATION INTO TREATMENT GROUP","PROTOCOL MILESTONE","RANDOMIZATION","SCREENING",1,"SCREENING",1,"2014-10-22",1
"379","ABC","DS","ABC097",3,"COMPLETED","COMPLETED","DISPOSITION EVENT","END OF TREATMENT","TREATMENT",5,"VISIT 5",30,"2014-11-20",30
"380","ABC","DS","ABC097",4,"COMPLETED","COMPLETED","DISPOSITION EVENT","END OF STUDY","FOLLOW-UP",6,"FOLLOW-UP",42,"2014-12-02",42
"381","ABC","DS","ABC098",1,"INFORMED CONSENT SIGNED","INFORMED CONSENT SIGNED","PROTOCOL MILESTONE","INFORMED CONSENT","SCREENING",1,"SCREENING",1,"2014-02-02",1
"382","ABC","DS","ABC098",2,"RANDOMIZATION INTO TREATMENT GROUP","RANDOMIZATION INTO TREATMENT GROUP","PROTOCOL MILESTONE","RANDOMIZATION","SCREENING",1,"SCREENING",1,"2014-02-02",1
"383","ABC","DS","ABC098",3,"COMPLETED","COMPLETED","DISPOSITION EVENT","END OF TREATMENT","TREATMENT",5,"VISIT 5",29,"2014-03-02",29
"384","ABC","DS","ABC098",4,"COMPLETED","COMPLETED","DISPOSITION EVENT","END OF STUDY","FOLLOW-UP",6,"FOLLOW-UP",45,"2014-03-18",45
"385","ABC","DS","ABC099",1,"INFORMED CONSENT SIGNED","INFORMED CONSENT SIGNED","PROTOCOL MILESTONE","INFORMED CONSENT","SCREENING",1,"SCREENING",1,"2014-10-24",1
"386","ABC","DS","ABC099",2,"RANDOMIZATION INTO TREATMENT GROUP","RANDOMIZATION INTO TREATMENT GROUP","PROTOCOL MILESTONE","RANDOMIZATION","SCREENING",1,"SCREENING",1,"2014-10-24",1
"387","ABC","DS","ABC099",3,"COMPLETED","COMPLETED","DISPOSITION EVENT","END OF TREATMENT","TREATMENT",5,"VISIT 5",30,"2014-11-22",30
"388","ABC","DS","ABC099",4,"COMPLETED","COMPLETED","DISPOSITION EVENT","END OF STUDY","FOLLOW-UP",6,"FOLLOW-UP",45,"2014-12-07",45
"389","ABC","DS","ABC100",1,"INFORMED CONSENT SIGNED","INFORMED CONSENT SIGNED","PROTOCOL MILESTONE","INFORMED CONSENT","SCREENING",1,"SCREENING",1,"2014-09-22",1
"390","ABC","DS","ABC100",2,"RANDOMIZATION INTO TREATMENT GROUP","RANDOMIZATION INTO TREATMENT GROUP","PROTOCOL MILESTONE","RANDOMIZATION","SCREENING",1,"SCREENING",1,"2014-09-22",1
"391","ABC","DS","ABC100",3,"COMPLETED","COMPLETED","DISPOSITION EVENT","END OF TREATMENT","TREATMENT",5,"VISIT 5",30,"2014-10-21",30
"392","ABC","DS","ABC100",4,"COMPLETED","COMPLETED","DISPOSITION EVENT","END OF STUDY","FOLLOW-UP",6,"FOLLOW-UP",43,"2014-11-03",43
"393","ABC","DS","ABC101",1,"INFORMED CONSENT SIGNED","INFORMED CONSENT SIGNED","PROTOCOL MILESTONE","INFORMED CONSENT","SCREENING",1,"SCREENING",1,"2014-03-06",1
"394","ABC","DS","ABC101",2,"RANDOMIZATION INTO TREATMENT GROUP","RANDOMIZATION INTO TREATMENT GROUP","PROTOCOL MILESTONE","RANDOMIZATION","SCREENING",1,"SCREENING",1,"2014-03-06",1
"395","ABC","DS","ABC101",3,"COMPLETED","COMPLETED","DISPOSITION EVENT","END OF TREATMENT","TREATMENT",5,"VISIT 5",28,"2014-04-02",28
"396","ABC","DS","ABC101",4,"COMPLETED","COMPLETED","DISPOSITION EVENT","END OF STUDY","FOLLOW-UP",6,"FOLLOW-UP",42,"2014-04-16",42
"397","ABC","DS","ABC102",1,"INFORMED CONSENT SIGNED","INFORMED CONSENT SIGNED","PROTOCOL MILESTONE","INFORMED CONSENT","SCREENING",1,"SCREENING",1,"2014-09-10",1
"398","ABC","DS","ABC102",2,"RANDOMIZATION INTO TREATMENT GROUP","RANDOMIZATION INTO TREATMENT GROUP","PROTOCOL MILESTONE","RANDOMIZATION","SCREENING",1,"SCREENING",1,"2014-09-10",1
"399","ABC","DS","ABC102",3,"COMPLETED","COMPLETED","DISPOSITION EVENT","END OF TREATMENT","TREATMENT",5,"VISIT 5",30,"2014-10-09",30
"400","ABC","DS","ABC102",4,"COMPLETED","COMPLETED","DISPOSITION EVENT","END OF STUDY","FOLLOW-UP",6,"FOLLOW-UP",45,"2014-10-24",45
"401","ABC","DS","ABC103",1,"INFORMED CONSENT SIGNED","INFORMED CONSENT SIGNED","PROTOCOL MILESTONE","INFORMED CONSENT","SCREENING",1,"SCREENING",1,"2014-01-17",1
"402","ABC","DS","ABC103",2,"RANDOMIZATION INTO TREATMENT GROUP","RANDOMIZATION INTO TREATMENT GROUP","PROTOCOL MILESTONE","RANDOMIZATION","SCREENING",1,"SCREENING",1,"2014-01-17",1
"403","ABC","DS","ABC103",3,"COMPLETED","COMPLETED","DISPOSITION EVENT","END OF TREATMENT","TREATMENT",5,"VISIT 5",29,"2014-02-14",29
"404","ABC","DS","ABC103",4,"COMPLETED","COMPLETED","DISPOSITION EVENT","END OF STUDY","FOLLOW-UP",6,"FOLLOW-UP",42,"2014-02-27",42
"405","ABC","DS","ABC104",1,"INFORMED CONSENT SIGNED","INFORMED CONSENT SIGNED","PROTOCOL MILESTONE","INFORMED CONSENT","SCREENING",1,"SCREENING",1,"2014-09-10",1
"406","ABC","DS","ABC104",2,"RANDOMIZATION INTO TREATMENT GROUP","RANDOMIZATION INTO TREATMENT GROUP","PROTOCOL MILESTONE","RANDOMIZATION","SCREENING",1,"SCREENING",1,"2014-09-10",1
"407","ABC","DS","ABC104",3,"COMPLETED","COMPLETED","DISPOSITION EVENT","END OF TREATMENT","TREATMENT",5,"VISIT 5",29,"2014-10-08",29
"408","ABC","DS","ABC104",4,"COMPLETED","COMPLETED","DISPOSITION EVENT","END OF STUDY","FOLLOW-UP",6,"FOLLOW-UP",44,"2014-10-23",44
"409","ABC","DS","ABC106",1,"INFORMED CONSENT SIGNED","INFORMED CONSENT SIGNED","PROTOCOL MILESTONE","INFORMED CONSENT","SCREENING",1,"SCREENING",1,"2014-02-15",1
"410","ABC","DS","ABC106",2,"RANDOMIZATION INTO TREATMENT GROUP","RANDOMIZATION INTO TREATMENT GROUP","PROTOCOL MILESTONE","RANDOMIZATION","SCREENING",1,"SCREENING",1,"2014-02-15",1
"411","ABC","DS","ABC106",3,"COMPLETED","COMPLETED","DISPOSITION EVENT","END OF TREATMENT","TREATMENT",5,"VISIT 5",29,"2014-03-15",29
"412","ABC","DS","ABC106",4,"COMPLETED","COMPLETED","DISPOSITION EVENT","END OF STUDY","FOLLOW-UP",6,"FOLLOW-UP",43,"2014-03-29",43
"413","ABC","DS","ABC107",1,"INFORMED CONSENT SIGNED","INFORMED CONSENT SIGNED","PROTOCOL MILESTONE","INFORMED CONSENT","SCREENING",1,"SCREENING",1,"2014-08-20",1
"414","ABC","DS","ABC107",2,"RANDOMIZATION INTO TREATMENT GROUP","RANDOMIZATION INTO TREATMENT GROUP","PROTOCOL MILESTONE","RANDOMIZATION","SCREENING",1,"SCREENING",1,"2014-08-20",1
"415","ABC","DS","ABC107",3,"COMPLETED","COMPLETED","DISPOSITION EVENT","END OF TREATMENT","TREATMENT",5,"VISIT 5",28,"2014-09-16",28
"416","ABC","DS","ABC107",4,"COMPLETED","COMPLETED","DISPOSITION EVENT","END OF STUDY","FOLLOW-UP",6,"FOLLOW-UP",44,"2014-10-02",44
"417","ABC","DS","ABC108",1,"INFORMED CONSENT SIGNED","INFORMED CONSENT SIGNED","PROTOCOL MILESTONE","INFORMED CONSENT","SCREENING",1,"SCREENING",1,"2014-07-17",1
"418","ABC","DS","ABC108",2,"RANDOMIZATION INTO TREATMENT GROUP","RANDOMIZATION INTO TREATMENT GROUP","PROTOCOL MILESTONE","RANDOMIZATION","SCREENING",1,"SCREENING",1,"2014-07-17",1
"419","ABC","DS","ABC108",3,"COMPLETED","COMPLETED","DISPOSITION EVENT","END OF TREATMENT","TREATMENT",5,"VISIT 5",30,"2014-08-15",30
"420","ABC","DS","ABC108",4,"COMPLETED","COMPLETED","DISPOSITION EVENT","END OF STUDY","FOLLOW-UP",6,"FOLLOW-UP",41,"2014-08-26",41
"421","ABC","DS","ABC109",1,"INFORMED CONSENT SIGNED","INFORMED CONSENT SIGNED","PROTOCOL MILESTONE","INFORMED CONSENT","SCREENING",1,"SCREENING",1,"2014-10-19",1
"422","ABC","DS","ABC109",2,"RANDOMIZATION INTO TREATMENT GROUP","RANDOMIZATION INTO TREATMENT GROUP","PROTOCOL MILESTONE","RANDOMIZATION","SCREENING",1,"SCREENING",1,"2014-10-19",1
"423","ABC","DS","ABC109",3,"COMPLETED","COMPLETED","DISPOSITION EVENT","END OF TREATMENT","TREATMENT",5,"VISIT 5",29,"2014-11-16",29
"424","ABC","DS","ABC109",4,"COMPLETED","COMPLETED","DISPOSITION EVENT","END OF STUDY","FOLLOW-UP",6,"FOLLOW-UP",44,"2014-12-01",44
"425","ABC","DS","ABC110",1,"INFORMED CONSENT SIGNED","INFORMED CONSENT SIGNED","PROTOCOL MILESTONE","INFORMED CONSENT","SCREENING",1,"SCREENING",1,"2014-08-14",1
"426","ABC","DS","ABC110",2,"RANDOMIZATION INTO TREATMENT GROUP","RANDOMIZATION INTO TREATMENT GROUP","PROTOCOL MILESTONE","RANDOMIZATION","SCREENING",1,"SCREENING",1,"2014-08-14",1
"427","ABC","DS","ABC110",3,"COMPLETED","COMPLETED","DISPOSITION EVENT","END OF TREATMENT","TREATMENT",5,"VISIT 5",29,"2014-09-11",29
"428","ABC","DS","ABC110",4,"COMPLETED","COMPLETED","DISPOSITION EVENT","END OF STUDY","FOLLOW-UP",6,"FOLLOW-UP",42,"2014-09-24",42
"429","ABC","DS","ABC111",1,"INFORMED CONSENT SIGNED","INFORMED CONSENT SIGNED","PROTOCOL MILESTONE","INFORMED CONSENT","SCREENING",1,"SCREENING",1,"2014-03-03",1
"430","ABC","DS","ABC111",2,"RANDOMIZATION INTO TREATMENT GROUP","RANDOMIZATION INTO TREATMENT GROUP","PROTOCOL MILESTONE","RANDOMIZATION","SCREENING",1,"SCREENING",1,"2014-03-03",1
"431","ABC","DS","ABC111",3,"COMPLETED","COMPLETED","DISPOSITION EVENT","END OF TREATMENT","TREATMENT",5,"VISIT 5",28,"2014-03-30",28
"432","ABC","DS","ABC111",4,"COMPLETED","COMPLETED","DISPOSITION EVENT","END OF STUDY","FOLLOW-UP",6,"FOLLOW-UP",41,"2014-04-12",41
"433","ABC","DS","ABC112",1,"INFORMED CONSENT SIGNED","INFORMED CONSENT SIGNED","PROTOCOL MILESTONE","INFORMED CONSENT","SCREENING",1,"SCREENING",1,"2014-06-25",1
"434","ABC","DS","ABC112",2,"RANDOMIZATION INTO TREATMENT GROUP","RANDOMIZATION INTO TREATMENT GROUP","PROTOCOL MILESTONE","RANDOMIZATION","SCREENING",1,"SCREENING",1,"2014-06-25",1
"435","ABC","DS","ABC112",3,"COMPLETED","COMPLETED","DISPOSITION EVENT","END OF TREATMENT","TREATMENT",5,"VISIT 5",29,"2014-07-23",29
"436","ABC","DS","ABC112",4,"COMPLETED","COMPLETED","DISPOSITION EVENT","END OF STUDY","FOLLOW-UP",6,"FOLLOW-UP",41,"2014-08-04",41
"437","ABC","DS","ABC113",1,"INFORMED CONSENT SIGNED","INFORMED CONSENT SIGNED","PROTOCOL MILESTONE","INFORMED CONSENT","SCREENING",1,"SCREENING",1,"2014-10-07",1
"438","ABC","DS","ABC113",2,"RANDOMIZATION INTO TREATMENT GROUP","RANDOMIZATION INTO TREATMENT GROUP","PROTOCOL MILESTONE","RANDOMIZATION","SCREENING",1,"SCREENING",1,"2014-10-07",1
"439","ABC","DS","ABC113",3,"COMPLETED","COMPLETED","DISPOSITION EVENT","END OF TREATMENT","TREATMENT",5,"VISIT 5",30,"2014-11-05",30
"440","ABC","DS","ABC113",4,"COMPLETED","COMPLETED","DISPOSITION EVENT","END OF STUDY","FOLLOW-UP",6,"FOLLOW-UP",43,"2014-11-18",43
"441","ABC","DS","ABC114",1,"INFORMED CONSENT SIGNED","INFORMED CONSENT SIGNED","PROTOCOL MILESTONE","INFORMED CONSENT","SCREENING",1,"SCREENING",1,"2014-04-10",1
"442","ABC","DS","ABC114",2,"RANDOMIZATION INTO TREATMENT GROUP","RANDOMIZATION INTO TREATMENT GROUP","PROTOCOL MILESTONE","RANDOMIZATION","SCREENING",1,"SCREENING",1,"2014-04-10",1
"443","ABC","DS","ABC114",3,"COMPLETED","COMPLETED","DISPOSITION EVENT","END OF TREATMENT","TREATMENT",5,"VISIT 5",28,"2014-05-07",28
"444","ABC","DS","ABC114",4,"COMPLETED","COMPLETED","DISPOSITION EVENT","END OF STUDY","FOLLOW-UP",6,"FOLLOW-UP",42,"2014-05-21",42
"445","ABC","DS","ABC115",1,"INFORMED CONSENT SIGNED","INFORMED CONSENT SIGNED","PROTOCOL MILESTONE","INFORMED CONSENT","SCREENING",1,"SCREENING",1,"2014-02-16",1
"446","ABC","DS","ABC115",2,"RANDOMIZATION INTO TREATMENT GROUP","RANDOMIZATION INTO TREATMENT GROUP","PROTOCOL MILESTONE","RANDOMIZATION","SCREENING",1,"SCREENING",1,"2014-02-16",1
"447","ABC","DS","ABC115",3,"COMPLETED","COMPLETED","DISPOSITION EVENT","END OF TREATMENT","TREATMENT",5,"VISIT 5",29,"2014-03-16",29
"448","ABC","DS","ABC115",4,"COMPLETED","COMPLETED","DISPOSITION EVENT","END OF STUDY","FOLLOW-UP",6,"FOLLOW-UP",45,"2014-04-01",45
"449","ABC","DS","ABC116",1,"INFORMED CONSENT SIGNED","INFORMED CONSENT SIGNED","PROTOCOL MILESTONE","INFORMED CONSENT","SCREENING",1,"SCREENING",1,"2014-09-25",1
"450","ABC","DS","ABC116",2,"RANDOMIZATION INTO TREATMENT GROUP","RANDOMIZATION INTO TREATMENT GROUP","PROTOCOL MILESTONE","RANDOMIZATION","SCREENING",1,"SCREENING",1,"2014-09-25",1
"451","ABC","DS","ABC116",3,"COMPLETED","COMPLETED","DISPOSITION EVENT","END OF TREATMENT","TREATMENT",5,"VISIT 5",29,"2014-10-23",29
"452","ABC","DS","ABC116",4,"COMPLETED","COMPLETED","DISPOSITION EVENT","END OF STUDY","FOLLOW-UP",6,"FOLLOW-UP",44,"2014-11-07",44
"453","ABC","DS","ABC117",1,"INFORMED CONSENT SIGNED","INFORMED CONSENT SIGNED","PROTOCOL MILESTONE","INFORMED CONSENT","SCREENING",1,"SCREENING",1,"2014-08-14",1
"454","ABC","DS","ABC117",2,"RANDOMIZATION INTO TREATMENT GROUP","RANDOMIZATION INTO TREATMENT GROUP","PROTOCOL MILESTONE","RANDOMIZATION","SCREENING",1,"SCREENING",1,"2014-08-14",1
"455","ABC","DS","ABC117",3,"COMPLETED","COMPLETED","DISPOSITION EVENT","END OF TREATMENT","TREATMENT",5,"VISIT 5",28,"2014-09-10",28
"456","ABC","DS","ABC117",4,"COMPLETED","COMPLETED","DISPOSITION EVENT","END OF STUDY","FOLLOW-UP",6,"FOLLOW-UP",44,"2014-09-26",44
"457","ABC","DS","ABC118",1,"INFORMED CONSENT SIGNED","INFORMED CONSENT SIGNED","PROTOCOL MILESTONE","INFORMED CONSENT","SCREENING",1,"SCREENING",1,"2014-06-25",1
"458","ABC","DS","ABC118",2,"RANDOMIZATION INTO TREATMENT GROUP","RANDOMIZATION INTO TREATMENT GROUP","PROTOCOL MILESTONE","RANDOMIZATION","SCREENING",1,"SCREENING",1,"2014-06-25",1
"459","ABC","DS","ABC118",3,"COMPLETED","COMPLETED","DISPOSITION EVENT","END OF TREATMENT","TREATMENT",5,"VISIT 5",28,"2014-07-22",28
"460","ABC","DS","ABC118",4,"COMPLETED","COMPLETED","DISPOSITION EVENT","END OF STUDY","FOLLOW-UP",6,"FOLLOW-UP",45,"2014-08-08",45
"461","ABC","DS","ABC119",1,"INFORMED CONSENT SIGNED","INFORMED CONSENT SIGNED","PROTOCOL MILESTONE","INFORMED CONSENT","SCREENING",1,"SCREENING",1,"2014-09-04",1
"462","ABC","DS","ABC119",2,"RANDOMIZATION INTO TREATMENT GROUP","RANDOMIZATION INTO TREATMENT GROUP","PROTOCOL MILESTONE","RANDOMIZATION","SCREENING",1,"SCREENING",1,"2014-09-04",1
"463","ABC","DS","ABC119",3,"COMPLETED","COMPLETED","DISPOSITION EVENT","END OF TREATMENT","TREATMENT",5,"VISIT 5",30,"2014-10-03",30
"464","ABC","DS","ABC119",4,"DID NOT WISH TO CONTINUE","WITHDRAWAL BY SUBJECT","DISPOSITION EVENT","END OF STUDY","FOLLOW-UP",5.1,"UNSCHEDULED 5.1",36,"2014-10-09",36
"465","ABC","DS","ABC120",1,"INFORMED CONSENT SIGNED","INFORMED CONSENT SIGNED","PROTOCOL MILESTONE","INFORMED CONSENT","SCREENING",1,"SCREENING",1,"2014-10-05",1
"466","ABC","DS","ABC120",2,"RANDOMIZATION INTO TREATMENT GROUP","RANDOMIZATION INTO TREATMENT GROUP","PROTOCOL MILESTONE","RANDOMIZATION","SCREENING",1,"SCREENING",1,"2014-10-05",1
"467","ABC","DS","ABC120",3,"COMPLETED","COMPLETED","DISPOSITION EVENT","END OF TREATMENT","TREATMENT",5,"VISIT 5",29,"2014-11-02",29
"468","ABC","DS","ABC120",4,"COMPLETED","COMPLETED","DISPOSITION EVENT","END OF STUDY","FOLLOW-UP",6,"FOLLOW-UP",45,"2014-11-18",45
"469","ABC","DS","ABC121",1,"INFORMED CONSENT SIGNED","INFORMED CONSENT SIGNED","PROTOCOL MILESTONE","INFORMED CONSENT","SCREENING",1,"SCREENING",1,"2014-09-20",1
"470","ABC","DS","ABC121",2,"RANDOMIZATION INTO TREATMENT GROUP","RANDOMIZATION INTO TREATMENT GROUP","PROTOCOL MILESTONE","RANDOMIZATION","SCREENING",1,"SCREENING",1,"2014-09-20",1
"471","ABC","DS","ABC121",3,"COMPLETED","COMPLETED","DISPOSITION EVENT","END OF TREATMENT","TREATMENT",5,"VISIT 5",29,"2014-10-18",29
"472","ABC","DS","ABC121",4,"COMPLETED","COMPLETED","DISPOSITION EVENT","END OF STUDY","FOLLOW-UP",6,"FOLLOW-UP",42,"2014-10-31",42
"473","ABC","DS","ABC122",1,"INFORMED CONSENT SIGNED","INFORMED CONSENT SIGNED","PROTOCOL MILESTONE","INFORMED CONSENT","SCREENING",1,"SCREENING",1,"2014-03-02",1
"474","ABC","DS","ABC122",2,"RANDOMIZATION INTO TREATMENT GROUP","RANDOMIZATION INTO TREATMENT GROUP","PROTOCOL MILESTONE","RANDOMIZATION","SCREENING",1,"SCREENING",1,"2014-03-02",1
"475","ABC","DS","ABC122",3,"COMPLETED","COMPLETED","DISPOSITION EVENT","END OF TREATMENT","TREATMENT",5,"VISIT 5",28,"2014-03-29",28
"476","ABC","DS","ABC122",4,"COMPLETED","COMPLETED","DISPOSITION EVENT","END OF STUDY","FOLLOW-UP",6,"FOLLOW-UP",44,"2014-04-14",44
"477","ABC","DS","ABC123",1,"INFORMED CONSENT SIGNED","INFORMED CONSENT SIGNED","PROTOCOL MILESTONE","INFORMED CONSENT","SCREENING",1,"SCREENING",1,"2014-05-07",1
"478","ABC","DS","ABC123",2,"RANDOMIZATION INTO TREATMENT GROUP","RANDOMIZATION INTO TREATMENT GROUP","PROTOCOL MILESTONE","RANDOMIZATION","SCREENING",1,"SCREENING",1,"2014-05-07",1
"479","ABC","DS","ABC123",3,"COMPLETED","COMPLETED","DISPOSITION EVENT","END OF TREATMENT","TREATMENT",5,"VISIT 5",30,"2014-06-05",30
"480","ABC","DS","ABC123",4,"COMPLETED","COMPLETED","DISPOSITION EVENT","END OF STUDY","FOLLOW-UP",6,"FOLLOW-UP",43,"2014-06-18",43
"481","ABC","DS","ABC124",1,"INFORMED CONSENT SIGNED","INFORMED CONSENT SIGNED","PROTOCOL MILESTONE","INFORMED CONSENT","SCREENING",1,"SCREENING",1,"2014-05-24",1
"482","ABC","DS","ABC124",2,"RANDOMIZATION INTO TREATMENT GROUP","RANDOMIZATION INTO TREATMENT GROUP","PROTOCOL MILESTONE","RANDOMIZATION","SCREENING",1,"SCREENING",1,"2014-05-24",1
"483","ABC","DS","ABC124",3,"COMPLETED","COMPLETED","DISPOSITION EVENT","END OF TREATMENT","TREATMENT",5,"VISIT 5",28,"2014-06-20",28
"484","ABC","DS","ABC124",4,"COMPLETED","COMPLETED","DISPOSITION EVENT","END OF STUDY","FOLLOW-UP",6,"FOLLOW-UP",45,"2014-07-07",45
"485","ABC","DS","ABC125",1,"INFORMED CONSENT SIGNED","INFORMED CONSENT SIGNED","PROTOCOL MILESTONE","INFORMED CONSENT","SCREENING",1,"SCREENING",1,"2014-03-26",1
"486","ABC","DS","ABC125",2,"RANDOMIZATION INTO TREATMENT GROUP","RANDOMIZATION INTO TREATMENT GROUP","PROTOCOL MILESTONE","RANDOMIZATION","SCREENING",1,"SCREENING",1,"2014-03-26",1
"487","ABC","DS","ABC125",3,"COMPLETED","COMPLETED","DISPOSITION EVENT","END OF TREATMENT","TREATMENT",5,"VISIT 5",30,"2014-04-24",30
"488","ABC","DS","ABC125",4,"COMPLETED","COMPLETED","DISPOSITION EVENT","END OF STUDY","FOLLOW-UP",6,"FOLLOW-UP",43,"2014-05-07",43
"489","ABC","DS","ABC126",1,"INFORMED CONSENT SIGNED","INFORMED CONSENT SIGNED","PROTOCOL MILESTONE","INFORMED CONSENT","SCREENING",1,"SCREENING",1,"2014-05-02",1
"490","ABC","DS","ABC126",2,"RANDOMIZATION INTO TREATMENT GROUP","RANDOMIZATION INTO TREATMENT GROUP","PROTOCOL MILESTONE","RANDOMIZATION","SCREENING",1,"SCREENING",1,"2014-05-02",1
"491","ABC","DS","ABC126",3,"COMPLETED","COMPLETED","DISPOSITION EVENT","END OF TREATMENT","TREATMENT",5,"VISIT 5",30,"2014-05-31",30
"492","ABC","DS","ABC126",4,"COMPLETED","COMPLETED","DISPOSITION EVENT","END OF STUDY","FOLLOW-UP",6,"FOLLOW-UP",45,"2014-06-15",45
"493","ABC","DS","ABC127",1,"INFORMED CONSENT SIGNED","INFORMED CONSENT SIGNED","PROTOCOL MILESTONE","INFORMED CONSENT","SCREENING",1,"SCREENING",1,"2014-02-09",1
"494","ABC","DS","ABC127",2,"RANDOMIZATION INTO TREATMENT GROUP","RANDOMIZATION INTO TREATMENT GROUP","PROTOCOL MILESTONE","RANDOMIZATION","SCREENING",1,"SCREENING",1,"2014-02-09",1
"495","ABC","DS","ABC127",3,"COMPLETED","COMPLETED","DISPOSITION EVENT","END OF TREATMENT","TREATMENT",5,"VISIT 5",29,"2014-03-09",29
"496","ABC","DS","ABC127",4,"COMPLETED","COMPLETED","DISPOSITION EVENT","END OF STUDY","FOLLOW-UP",6,"FOLLOW-UP",45,"2014-03-25",45
"497","ABC","DS","ABC128",1,"INFORMED CONSENT SIGNED","INFORMED CONSENT SIGNED","PROTOCOL MILESTONE","INFORMED CONSENT","SCREENING",1,"SCREENING",1,"2014-08-23",1
"498","ABC","DS","ABC128",2,"RANDOMIZATION INTO TREATMENT GROUP","RANDOMIZATION INTO TREATMENT GROUP","PROTOCOL MILESTONE","RANDOMIZATION","SCREENING",1,"SCREENING",1,"2014-08-23",1
"499","ABC","DS","ABC128",3,"COMPLETED","COMPLETED","DISPOSITION EVENT","END OF TREATMENT","TREATMENT",5,"VISIT 5",30,"2014-09-21",30
"500","ABC","DS","ABC128",4,"COMPLETED","COMPLETED","DISPOSITION EVENT","END OF STUDY","FOLLOW-UP",6,"FOLLOW-UP",42,"2014-10-03",42
"501","ABC","DS","ABC129",1,"INFORMED CONSENT SIGNED","INFORMED CONSENT SIGNED","PROTOCOL MILESTONE","INFORMED CONSENT","SCREENING",1,"SCREENING",1,"2014-07-10",1
"502","ABC","DS","ABC129",2,"RANDOMIZATION INTO TREATMENT GROUP","RANDOMIZATION INTO TREATMENT GROUP","PROTOCOL MILESTONE","RANDOMIZATION","SCREENING",1,"SCREENING",1,"2014-07-10",1
"503","ABC","DS","ABC129",3,"COMPLETED","COMPLETED","DISPOSITION EVENT","END OF TREATMENT","TREATMENT",5,"VISIT 5",30,"2014-08-08",30
"504","ABC","DS","ABC129",4,"COMPLETED","COMPLETED","DISPOSITION EVENT","END OF STUDY","FOLLOW-UP",6,"FOLLOW-UP",41,"2014-08-19",41
"505","ABC","DS","ABC130",1,"INFORMED CONSENT SIGNED","INFORMED CONSENT SIGNED","PROTOCOL MILESTONE","INFORMED CONSENT","SCREENING",1,"SCREENING",1,"2014-01-17",1
"506","ABC","DS","ABC130",2,"RANDOMIZATION INTO TREATMENT GROUP","RANDOMIZATION INTO TREATMENT GROUP","PROTOCOL MILESTONE","RANDOMIZATION","SCREENING",1,"SCREENING",1,"2014-01-17",1
"507","ABC","DS","ABC130",3,"COMPLETED","COMPLETED","DISPOSITION EVENT","END OF TREATMENT","TREATMENT",5,"VISIT 5",29,"2014-02-14",29
"508","ABC","DS","ABC130",4,"COMPLETED","COMPLETED","DISPOSITION EVENT","END OF STUDY","FOLLOW-UP",6,"FOLLOW-UP",43,"2014-02-28",43
"509","ABC","DS","ABC131",1,"INFORMED CONSENT SIGNED","INFORMED CONSENT SIGNED","PROTOCOL MILESTONE","INFORMED CONSENT","SCREENING",1,"SCREENING",1,"2014-06-19",1
"510","ABC","DS","ABC131",2,"RANDOMIZATION INTO TREATMENT GROUP","RANDOMIZATION INTO TREATMENT GROUP","PROTOCOL MILESTONE","RANDOMIZATION","SCREENING",1,"SCREENING",1,"2014-06-19",1
"511","ABC","DS","ABC131",3,"COMPLETED","COMPLETED","DISPOSITION EVENT","END OF TREATMENT","TREATMENT",5,"VISIT 5",28,"2014-07-16",28
"512","ABC","DS","ABC131",4,"COMPLETED","COMPLETED","DISPOSITION EVENT","END OF STUDY","FOLLOW-UP",6,"FOLLOW-UP",42,"2014-07-30",42
"513","ABC","DS","ABC132",1,"INFORMED CONSENT SIGNED","INFORMED CONSENT SIGNED","PROTOCOL MILESTONE","INFORMED CONSENT","SCREENING",1,"SCREENING",1,"2014-03-01",1
"514","ABC","DS","ABC132",2,"RANDOMIZATION INTO TREATMENT GROUP","RANDOMIZATION INTO TREATMENT GROUP","PROTOCOL MILESTONE","RANDOMIZATION","SCREENING",1,"SCREENING",1,"2014-03-01",1
"515","ABC","DS","ABC132",3,"COMPLETED","COMPLETED","DISPOSITION EVENT","END OF TREATMENT","TREATMENT",5,"VISIT 5",29,"2014-03-29",29
"516","ABC","DS","ABC132",4,"COMPLETED","COMPLETED","DISPOSITION EVENT","END OF STUDY","FOLLOW-UP",6,"FOLLOW-UP",45,"2014-04-14",45
"517","ABC","DS","ABC133",1,"INFORMED CONSENT SIGNED","INFORMED CONSENT SIGNED","PROTOCOL MILESTONE","INFORMED CONSENT","SCREENING",1,"SCREENING",1,"2014-03-28",1
"518","ABC","DS","ABC133",2,"RANDOMIZATION INTO TREATMENT GROUP","RANDOMIZATION INTO TREATMENT GROUP","PROTOCOL MILESTONE","RANDOMIZATION","SCREENING",1,"SCREENING",1,"2014-03-28",1
"519","ABC","DS","ABC133",3,"COMPLETED","COMPLETED","DISPOSITION EVENT","END OF TREATMENT","TREATMENT",5,"VISIT 5",29,"2014-04-25",29
"520","ABC","DS","ABC133",4,"COMPLETED","COMPLETED","DISPOSITION EVENT","END OF STUDY","FOLLOW-UP",6,"FOLLOW-UP",43,"2014-05-09",43
"521","ABC","DS","ABC134",1,"INFORMED CONSENT SIGNED","INFORMED CONSENT SIGNED","PROTOCOL MILESTONE","INFORMED CONSENT","SCREENING",1,"SCREENING",1,"2014-08-31",1
"522","ABC","DS","ABC134",2,"RANDOMIZATION INTO TREATMENT GROUP","RANDOMIZATION INTO TREATMENT GROUP","PROTOCOL MILESTONE","RANDOMIZATION","SCREENING",1,"SCREENING",1,"2014-08-31",1
"523","ABC","DS","ABC134",3,"COMPLETED","COMPLETED","DISPOSITION EVENT","END OF TREATMENT","TREATMENT",5,"VISIT 5",28,"2014-09-27",28
"524","ABC","DS","ABC134",4,"COMPLETED","COMPLETED","DISPOSITION EVENT","END OF STUDY","FOLLOW-UP",6,"FOLLOW-UP",43,"2014-10-12",43
"525","ABC","DS","ABC135",1,"INFORMED CONSENT SIGNED","INFORMED CONSENT SIGNED","PROTOCOL MILESTONE","INFORMED CONSENT","SCREENING",1,"SCREENING",1,"2014-08-06",1
"526","ABC","DS","ABC135",2,"RANDOMIZATION INTO TREATMENT GROUP","RANDOMIZATION INTO TREATMENT GROUP","PROTOCOL MILESTONE","RANDOMIZATION","SCREENING",1,"SCREENING",1,"2014-08-06",1
"527","ABC","DS","ABC135",3,"COMPLETED","COMPLETED","DISPOSITION EVENT","END OF TREATMENT","TREATMENT",5,"VISIT 5",28,"2014-09-02",28
"528","ABC","DS","ABC135",4,"COMPLETED","COMPLETED","DISPOSITION EVENT","END OF STUDY","FOLLOW-UP",6,"FOLLOW-UP",45,"2014-09-19",45
"529","ABC","DS","ABC136",1,"INFORMED CONSENT SIGNED","INFORMED CONSENT SIGNED","PROTOCOL MILESTONE","INFORMED CONSENT","SCREENING",1,"SCREENING",1,"2014-10-21",1
"530","ABC","DS","ABC136",2,"RANDOMIZATION INTO TREATMENT GROUP","RANDOMIZATION INTO TREATMENT GROUP","PROTOCOL MILESTONE","RANDOMIZATION","SCREENING",1,"SCREENING",1,"2014-10-21",1
"531","ABC","DS","ABC136",3,"COMPLETED","COMPLETED","DISPOSITION EVENT","END OF TREATMENT","TREATMENT",5,"VISIT 5",30,"2014-11-19",30
"532","ABC","DS","ABC136",4,"COMPLETED","COMPLETED","DISPOSITION EVENT","END OF STUDY","FOLLOW-UP",6,"FOLLOW-UP",43,"2014-12-02",43
"533","ABC","DS","ABC137",1,"INFORMED CONSENT SIGNED","INFORMED CONSENT SIGNED","PROTOCOL MILESTONE","INFORMED CONSENT","SCREENING",1,"SCREENING",1,"2014-07-10",1
"534","ABC","DS","ABC137",2,"RANDOMIZATION INTO TREATMENT GROUP","RANDOMIZATION INTO TREATMENT GROUP","PROTOCOL MILESTONE","RANDOMIZATION","SCREENING",1,"SCREENING",1,"2014-07-10",1
"535","ABC","DS","ABC137",3,"COMPLETED","COMPLETED","DISPOSITION EVENT","END OF TREATMENT","TREATMENT",5,"VISIT 5",28,"2014-08-06",28
"536","ABC","DS","ABC137",4,"COMPLETED","COMPLETED","DISPOSITION EVENT","END OF STUDY","FOLLOW-UP",6,"FOLLOW-UP",41,"2014-08-19",41
"537","ABC","DS","ABC138",1,"INFORMED CONSENT SIGNED","INFORMED CONSENT SIGNED","PROTOCOL MILESTONE","INFORMED CONSENT","SCREENING",1,"SCREENING",1,"2014-09-27",1
"538","ABC","DS","ABC138",2,"RANDOMIZATION INTO TREATMENT GROUP","RANDOMIZATION INTO TREATMENT GROUP","PROTOCOL MILESTONE","RANDOMIZATION","SCREENING",1,"SCREENING",1,"2014-09-27",1
"539","ABC","DS","ABC138",3,"COMPLETED","COMPLETED","DISPOSITION EVENT","END OF TREATMENT","TREATMENT",5,"VISIT 5",28,"2014-10-24",28
"540","ABC","DS","ABC138",4,"COMPLETED","COMPLETED","DISPOSITION EVENT","END OF STUDY","FOLLOW-UP",6,"FOLLOW-UP",44,"2014-11-09",44
"541","ABC","DS","ABC139",1,"INFORMED CONSENT SIGNED","INFORMED CONSENT SIGNED","PROTOCOL MILESTONE","INFORMED CONSENT","SCREENING",1,"SCREENING",1,"2014-05-24",1
"542","ABC","DS","ABC139",2,"RANDOMIZATION INTO TREATMENT GROUP","RANDOMIZATION INTO TREATMENT GROUP","PROTOCOL MILESTONE","RANDOMIZATION","SCREENING",1,"SCREENING",1,"2014-05-24",1
"543","ABC","DS","ABC139",3,"COMPLETED","COMPLETED","DISPOSITION EVENT","END OF TREATMENT","TREATMENT",5,"VISIT 5",28,"2014-06-20",28
"544","ABC","DS","ABC139",4,"COMPLETED","COMPLETED","DISPOSITION EVENT","END OF STUDY","FOLLOW-UP",6,"FOLLOW-UP",41,"2014-07-03",41
"545","ABC","DS","ABC140",1,"INFORMED CONSENT SIGNED","INFORMED CONSENT SIGNED","PROTOCOL MILESTONE","INFORMED CONSENT","SCREENING",1,"SCREENING",1,"2014-06-03",1
"546","ABC","DS","ABC140",2,"RANDOMIZATION INTO TREATMENT GROUP","RANDOMIZATION INTO TREATMENT GROUP","PROTOCOL MILESTONE","RANDOMIZATION","SCREENING",1,"SCREENING",1,"2014-06-03",1
"547","ABC","DS","ABC140",3,"COMPLETED","COMPLETED","DISPOSITION EVENT","END OF TREATMENT","TREATMENT",5,"VISIT 5",29,"2014-07-01",29
"548","ABC","DS","ABC140",4,"COMPLETED","COMPLETED","DISPOSITION EVENT","END OF STUDY","FOLLOW-UP",6,"FOLLOW-UP",44,"2014-07-16",44
"549","ABC","DS","ABC141",1,"INFORMED CONSENT SIGNED","INFORMED CONSENT SIGNED","PROTOCOL MILESTONE","INFORMED CONSENT","SCREENING",1,"SCREENING",1,"2014-10-22",1
"550","ABC","DS","ABC141",2,"RANDOMIZATION INTO TREATMENT GROUP","RANDOMIZATION INTO TREATMENT GROUP","PROTOCOL MILESTONE","RANDOMIZATION","SCREENING",1,"SCREENING",1,"2014-10-22",1
"551","ABC","DS","ABC141",3,"COMPLETED","COMPLETED","DISPOSITION EVENT","END OF TREATMENT","TREATMENT",5,"VISIT 5",29,"2014-11-19",29
"552","ABC","DS","ABC141",4,"COMPLETED","COMPLETED","DISPOSITION EVENT","END OF STUDY","FOLLOW-UP",6,"FOLLOW-UP",43,"2014-12-03",43
"553","ABC","DS","ABC142",1,"INFORMED CONSENT SIGNED","INFORMED CONSENT SIGNED","PROTOCOL MILESTONE","INFORMED CONSENT","SCREENING",1,"SCREENING",1,"2014-03-07",1
"554","ABC","DS","ABC142",2,"RANDOMIZATION INTO TREATMENT GROUP","RANDOMIZATION INTO TREATMENT GROUP","PROTOCOL MILESTONE","RANDOMIZATION","SCREENING",1,"SCREENING",1,"2014-03-07",1
"555","ABC","DS","ABC142",3,"COMPLETED","COMPLETED","DISPOSITION EVENT","END OF TREATMENT","TREATMENT",5,"VISIT 5",30,"2014-04-05",30
"556","ABC","DS","ABC142",4,"COMPLETED","COMPLETED","DISPOSITION EVENT","END OF STUDY","FOLLOW-UP",6,"FOLLOW-UP",45,"2014-04-20",45
"557","ABC","DS","ABC143",1,"INFORMED CONSENT SIGNED","INFORMED CONSENT SIGNED","PROTOCOL MILESTONE","INFORMED CONSENT","SCREENING",1,"SCREENING",1,"2014-09-07",1
"558","ABC","DS","ABC143",2,"RANDOMIZATION INTO TREATMENT GROUP","RANDOMIZATION INTO TREATMENT GROUP","PROTOCOL MILESTONE","RANDOMIZATION","SCREENING",1,"SCREENING",1,"2014-09-07",1
"559","ABC","DS","ABC143",3,"COMPLETED","COMPLETED","DISPOSITION EVENT","END OF TREATMENT","TREATMENT",5,"VISIT 5",30,"2014-10-06",30
"560","ABC","DS","ABC143",4,"COMPLETED","COMPLETED","DISPOSITION EVENT","END OF STUDY","FOLLOW-UP",6,"FOLLOW-UP",44,"2014-10-20",44
"561","ABC","DS","ABC144",1,"INFORMED CONSENT SIGNED","INFORMED CONSENT SIGNED","PROTOCOL MILESTONE","INFORMED CONSENT","SCREENING",1,"SCREENING",1,"2014-06-21",1
"562","ABC","DS","ABC144",2,"RANDOMIZATION INTO TREATMENT GROUP","RANDOMIZATION INTO TREATMENT GROUP","PROTOCOL MILESTONE","RANDOMIZATION","SCREENING",1,"SCREENING",1,"2014-06-21",1
"563","ABC","DS","ABC144",3,"COMPLETED","COMPLETED","DISPOSITION EVENT","END OF TREATMENT","TREATMENT",5,"VISIT 5",30,"2014-07-20",30
"564","ABC","DS","ABC144",4,"COMPLETED","COMPLETED","DISPOSITION EVENT","END OF STUDY","FOLLOW-UP",6,"FOLLOW-UP",41,"2014-07-31",41
"565","ABC","DS","ABC145",1,"INFORMED CONSENT SIGNED","INFORMED CONSENT SIGNED","PROTOCOL MILESTONE","INFORMED CONSENT","SCREENING",1,"SCREENING",1,"2014-02-07",1
"566","ABC","DS","ABC145",2,"RANDOMIZATION INTO TREATMENT GROUP","RANDOMIZATION INTO TREATMENT GROUP","PROTOCOL MILESTONE","RANDOMIZATION","SCREENING",1,"SCREENING",1,"2014-02-07",1
"567","ABC","DS","ABC145",3,"COMPLETED","COMPLETED","DISPOSITION EVENT","END OF TREATMENT","TREATMENT",5,"VISIT 5",30,"2014-03-08",30
"568","ABC","DS","ABC145",4,"COMPLETED","COMPLETED","DISPOSITION EVENT","END OF STUDY","FOLLOW-UP",6,"FOLLOW-UP",44,"2014-03-22",44
"569","ABC","DS","ABC146",1,"INFORMED CONSENT SIGNED","INFORMED CONSENT SIGNED","PROTOCOL MILESTONE","INFORMED CONSENT","SCREENING",1,"SCREENING",1,"2014-07-24",1
"570","ABC","DS","ABC146",2,"RANDOMIZATION INTO TREATMENT GROUP","RANDOMIZATION INTO TREATMENT GROUP","PROTOCOL MILESTONE","RANDOMIZATION","SCREENING",1,"SCREENING",1,"2014-07-24",1
"571","ABC","DS","ABC146",3,"COMPLETED","COMPLETED","DISPOSITION EVENT","END OF TREATMENT","TREATMENT",5,"VISIT 5",30,"2014-08-22",30
"572","ABC","DS","ABC146",4,"COMPLETED","COMPLETED","DISPOSITION EVENT","END OF STUDY","FOLLOW-UP",6,"FOLLOW-UP",44,"2014-09-05",44
"573","ABC","DS","ABC147",1,"INFORMED CONSENT SIGNED","INFORMED CONSENT SIGNED","PROTOCOL MILESTONE","INFORMED CONSENT","SCREENING",1,"SCREENING",1,"2014-08-16",1
"574","ABC","DS","ABC147",2,"RANDOMIZATION INTO TREATMENT GROUP","RANDOMIZATION INTO TREATMENT GROUP","PROTOCOL MILESTONE","RANDOMIZATION","SCREENING",1,"SCREENING",1,"2014-08-16",1
"575","ABC","DS","ABC147",3,"COMPLETED","COMPLETED","DISPOSITION EVENT","END OF TREATMENT","TREATMENT",5,"VISIT 5",30,"2014-09-14",30
"576","ABC","DS","ABC147",4,"COMPLETED","COMPLETED","DISPOSITION EVENT","END OF STUDY","FOLLOW-UP",6,"FOLLOW-UP",42,"2014-09-26",42
"577","ABC","DS","ABC148",1,"INFORMED CONSENT SIGNED","INFORMED CONSENT SIGNED","PROTOCOL MILESTONE","INFORMED CONSENT","SCREENING",1,"SCREENING",1,"2014-05-19",1
"578","ABC","DS","ABC148",2,"RANDOMIZATION INTO TREATMENT GROUP","RANDOMIZATION INTO TREATMENT GROUP","PROTOCOL MILESTONE","RANDOMIZATION","SCREENING",1,"SCREENING",1,"2014-05-19",1
"579","ABC","DS","ABC148",3,"COMPLETED","COMPLETED","DISPOSITION EVENT","END OF TREATMENT","TREATMENT",5,"VISIT 5",28,"2014-06-15",28
"580","ABC","DS","ABC148",4,"COMPLETED","COMPLETED","DISPOSITION EVENT","END OF STUDY","FOLLOW-UP",6,"FOLLOW-UP",44,"2014-07-01",44
"581","ABC","DS","ABC149",1,"INFORMED CONSENT SIGNED","INFORMED CONSENT SIGNED","PROTOCOL MILESTONE","INFORMED CONSENT","SCREENING",1,"SCREENING",1,"2014-07-24",1
"582","ABC","DS","ABC149",2,"RANDOMIZATION INTO TREATMENT GROUP","RANDOMIZATION INTO TREATMENT GROUP","PROTOCOL MILESTONE","RANDOMIZATION","SCREENING",1,"SCREENING",1,"2014-07-24",1
"583","ABC","DS","ABC149",3,"COMPLETED","COMPLETED","DISPOSITION EVENT","END OF TREATMENT","TREATMENT",5,"VISIT 5",29,"2014-08-21",29
"584","ABC","DS","ABC149",4,"COMPLETED","COMPLETED","DISPOSITION EVENT","END OF STUDY","FOLLOW-UP",6,"FOLLOW-UP",42,"2014-09-03",42
"585","ABC","DS","ABC150",1,"INFORMED CONSENT SIGNED","INFORMED CONSENT SIGNED","PROTOCOL MILESTONE","INFORMED CONSENT","SCREENING",1,"SCREENING",1,"2014-09-22",1
"586","ABC","DS","ABC150",2,"RANDOMIZATION INTO TREATMENT GROUP","RANDOMIZATION INTO TREATMENT GROUP","PROTOCOL MILESTONE","RANDOMIZATION","SCREENING",1,"SCREENING",1,"2014-09-22",1
"587","ABC","DS","ABC150",3,"COMPLETED","COMPLETED","DISPOSITION EVENT","END OF TREATMENT","TREATMENT",5,"VISIT 5",30,"2014-10-21",30
"588","ABC","DS","ABC150",4,"COMPLETED","COMPLETED","DISPOSITION EVENT","END OF STUDY","FOLLOW-UP",6,"FOLLOW-UP",45,"2014-11-05",45
"589","ABC","DS","ABC151",1,"INFORMED CONSENT SIGNED","INFORMED CONSENT SIGNED","PROTOCOL MILESTONE","INFORMED CONSENT","SCREENING",1,"SCREENING",1,"2014-02-01",1
"590","ABC","DS","ABC151",2,"RANDOMIZATION INTO TREATMENT GROUP","RANDOMIZATION INTO TREATMENT GROUP","PROTOCOL MILESTONE","RANDOMIZATION","SCREENING",1,"SCREENING",1,"2014-02-01",1
"591","ABC","DS","ABC151",3,"COMPLETED","COMPLETED","DISPOSITION EVENT","END OF TREATMENT","TREATMENT",5,"VISIT 5",29,"2014-03-01",29
"592","ABC","DS","ABC151",4,"COMPLETED","COMPLETED","DISPOSITION EVENT","END OF STUDY","FOLLOW-UP",6,"FOLLOW-UP",44,"2014-03-16",44
"593","ABC","DS","ABC152",1,"INFORMED CONSENT SIGNED","INFORMED CONSENT SIGNED","PROTOCOL MILESTONE","INFORMED CONSENT","SCREENING",1,"SCREENING",1,"2014-02-08",1
"594","ABC","DS","ABC152",2,"RANDOMIZATION INTO TREATMENT GROUP","RANDOMIZATION INTO TREATMENT GROUP","PROTOCOL MILESTONE","RANDOMIZATION","SCREENING",1,"SCREENING",1,"2014-02-08",1
"595","ABC","DS","ABC152",3,"COMPLETED","COMPLETED","DISPOSITION EVENT","END OF TREATMENT","TREATMENT",5,"VISIT 5",29,"2014-03-08",29
"596","ABC","DS","ABC152",4,"COMPLETED","COMPLETED","DISPOSITION EVENT","END OF STUDY","FOLLOW-UP",6,"FOLLOW-UP",45,"2014-03-24",45
"597","ABC","DS","ABC153",1,"INFORMED CONSENT SIGNED","INFORMED CONSENT SIGNED","PROTOCOL MILESTONE","INFORMED CONSENT","SCREENING",1,"SCREENING",1,"2014-03-15",1
"598","ABC","DS","ABC153",2,"RANDOMIZATION INTO TREATMENT GROUP","RANDOMIZATION INTO TREATMENT GROUP","PROTOCOL MILESTONE","RANDOMIZATION","SCREENING",1,"SCREENING",1,"2014-03-15",1
"599","ABC","DS","ABC153",3,"COMPLETED","COMPLETED","DISPOSITION EVENT","END OF TREATMENT","TREATMENT",5,"VISIT 5",28,"2014-04-11",28
"600","ABC","DS","ABC153",4,"COMPLETED","COMPLETED","DISPOSITION EVENT","END OF STUDY","FOLLOW-UP",6,"FOLLOW-UP",45,"2014-04-28",45
"601","ABC","DS","ABC154",1,"INFORMED CONSENT SIGNED","INFORMED CONSENT SIGNED","PROTOCOL MILESTONE","INFORMED CONSENT","SCREENING",1,"SCREENING",1,"2014-08-28",1
"602","ABC","DS","ABC154",2,"RANDOMIZATION INTO TREATMENT GROUP","RANDOMIZATION INTO TREATMENT GROUP","PROTOCOL MILESTONE","RANDOMIZATION","SCREENING",1,"SCREENING",1,"2014-08-28",1
"603","ABC","DS","ABC154",3,"COMPLETED","COMPLETED","DISPOSITION EVENT","END OF TREATMENT","TREATMENT",5,"VISIT 5",28,"2014-09-24",28
"604","ABC","DS","ABC154",4,"COMPLETED","COMPLETED","DISPOSITION EVENT","END OF STUDY","FOLLOW-UP",6,"FOLLOW-UP",44,"2014-10-10",44
"605","ABC","DS","ABC155",1,"INFORMED CONSENT SIGNED","INFORMED CONSENT SIGNED","PROTOCOL MILESTONE","INFORMED CONSENT","SCREENING",1,"SCREENING",1,"2014-02-06",1
"606","ABC","DS","ABC155",2,"RANDOMIZATION INTO TREATMENT GROUP","RANDOMIZATION INTO TREATMENT GROUP","PROTOCOL MILESTONE","RANDOMIZATION","SCREENING",1,"SCREENING",1,"2014-02-06",1
"607","ABC","DS","ABC155",3,"COMPLETED","COMPLETED","DISPOSITION EVENT","END OF TREATMENT","TREATMENT",5,"VISIT 5",29,"2014-03-06",29
"608","ABC","DS","ABC155",4,"COMPLETED","COMPLETED","DISPOSITION EVENT","END OF STUDY","FOLLOW-UP",6,"FOLLOW-UP",43,"2014-03-20",43
"609","ABC","DS","ABC156",1,"INFORMED CONSENT SIGNED","INFORMED CONSENT SIGNED","PROTOCOL MILESTONE","INFORMED CONSENT","SCREENING",1,"SCREENING",1,"2014-06-03",1
"610","ABC","DS","ABC156",2,"RANDOMIZATION INTO TREATMENT GROUP","RANDOMIZATION INTO TREATMENT GROUP","PROTOCOL MILESTONE","RANDOMIZATION","SCREENING",1,"SCREENING",1,"2014-06-03",1
"611","ABC","DS","ABC156",3,"COMPLETED","COMPLETED","DISPOSITION EVENT","END OF TREATMENT","TREATMENT",5,"VISIT 5",29,"2014-07-01",29
"612","ABC","DS","ABC156",4,"COMPLETED","COMPLETED","DISPOSITION EVENT","END OF STUDY","FOLLOW-UP",6,"FOLLOW-UP",41,"2014-07-13",41
"613","ABC","DS","ABC157",1,"INFORMED CONSENT SIGNED","INFORMED CONSENT SIGNED","PROTOCOL MILESTONE","INFORMED CONSENT","SCREENING",1,"SCREENING",1,"2014-02-05",1
"614","ABC","DS","ABC157",2,"RANDOMIZATION INTO TREATMENT GROUP","RANDOMIZATION INTO TREATMENT GROUP","PROTOCOL MILESTONE","RANDOMIZATION","SCREENING",1,"SCREENING",1,"2014-02-05",1
"615","ABC","DS","ABC157",3,"COMPLETED","COMPLETED","DISPOSITION EVENT","END OF TREATMENT","TREATMENT",5,"VISIT 5",28,"2014-03-04",28
"616","ABC","DS","ABC157",4,"COMPLETED","COMPLETED","DISPOSITION EVENT","END OF STUDY","FOLLOW-UP",6,"FOLLOW-UP",41,"2014-03-17",41
"617","ABC","DS","ABC158",1,"INFORMED CONSENT SIGNED","INFORMED CONSENT SIGNED","PROTOCOL MILESTONE","INFORMED CONSENT","SCREENING",1,"SCREENING",1,"2014-10-18",1
"618","ABC","DS","ABC158",2,"RANDOMIZATION INTO TREATMENT GROUP","RANDOMIZATION INTO TREATMENT GROUP","PROTOCOL MILESTONE","RANDOMIZATION","SCREENING",1,"SCREENING",1,"2014-10-18",1
"619","ABC","DS","ABC158",3,"COMPLETED","COMPLETED","DISPOSITION EVENT","END OF TREATMENT","TREATMENT",5,"VISIT 5",29,"2014-11-15",29
"620","ABC","DS","ABC158",4,"COMPLETED","COMPLETED","DISPOSITION EVENT","END OF STUDY","FOLLOW-UP",6,"FOLLOW-UP",42,"2014-11-28",42
"621","ABC","DS","ABC159",1,"INFORMED CONSENT SIGNED","INFORMED CONSENT SIGNED","PROTOCOL MILESTONE","INFORMED CONSENT","SCREENING",1,"SCREENING",1,"2014-09-26",1
"622","ABC","DS","ABC159",2,"RANDOMIZATION INTO TREATMENT GROUP","RANDOMIZATION INTO TREATMENT GROUP","PROTOCOL MILESTONE","RANDOMIZATION","SCREENING",1,"SCREENING",1,"2014-09-26",1
"623","ABC","DS","ABC159",3,"DEATH","DEATH","DISPOSITION EVENT","END OF TREATMENT","TREATMENT",3.1,"UNSCHEDULED 3.1",17,"2014-10-12",17
"624","ABC","DS","ABC159",4,"DEATH","DEATH","DISPOSITION EVENT","END OF STUDY","FOLLOW-UP",3.1,"UNSCHEDULED 3.1",17,"2014-10-12",17
"625","ABC","DS","ABC160",1,"INFORMED CONSENT SIGNED","INFORMED CONSENT SIGNED","PROTOCOL MILESTONE","INFORMED CONSENT","SCREENING",1,"SCREENING",1,"2014-05-18",1
"626","ABC","DS","ABC160",2,"RANDOMIZATION INTO TREATMENT GROUP","RANDOMIZATION INTO TREATMENT GROUP","PROTOCOL MILESTONE","RANDOMIZATION","SCREENING",1,"SCREENING",1,"2014-05-18",1
"627","ABC","DS","ABC160",3,"COMPLETED","COMPLETED","DISPOSITION EVENT","END OF TREATMENT","TREATMENT",5,"VISIT 5",28,"2014-06-14",28
"628","ABC","DS","ABC160",4,"COMPLETED","COMPLETED","DISPOSITION EVENT","END OF STUDY","FOLLOW-UP",6,"FOLLOW-UP",45,"2014-07-01",45
"629","ABC","DS","ABC161",1,"INFORMED CONSENT SIGNED","INFORMED CONSENT SIGNED","PROTOCOL MILESTONE","INFORMED CONSENT","SCREENING",1,"SCREENING",1,"2014-05-25",1
"630","ABC","DS","ABC161",2,"RANDOMIZATION INTO TREATMENT GROUP","RANDOMIZATION INTO TREATMENT GROUP","PROTOCOL MILESTONE","RANDOMIZATION","SCREENING",1,"SCREENING",1,"2014-05-25",1
"631","ABC","DS","ABC161",3,"COMPLETED","COMPLETED","DISPOSITION EVENT","END OF TREATMENT","TREATMENT",5,"VISIT 5",29,"2014-06-22",29
"632","ABC","DS","ABC161",4,"COMPLETED","COMPLETED","DISPOSITION EVENT","END OF STUDY","FOLLOW-UP",6,"FOLLOW-UP",44,"2014-07-07",44
"633","ABC","DS","ABC162",1,"INFORMED CONSENT SIGNED","INFORMED CONSENT SIGNED","PROTOCOL MILESTONE","INFORMED CONSENT","SCREENING",1,"SCREENING",1,"2014-02-08",1
"634","ABC","DS","ABC162",2,"RANDOMIZATION INTO TREATMENT GROUP","RANDOMIZATION INTO TREATMENT GROUP","PROTOCOL MILESTONE","RANDOMIZATION","SCREENING",1,"SCREENING",1,"2014-02-08",1
"635","ABC","DS","ABC162",3,"COMPLETED","COMPLETED","DISPOSITION EVENT","END OF TREATMENT","TREATMENT",5,"VISIT 5",30,"2014-03-09",30
"636","ABC","DS","ABC162",4,"COMPLETED","COMPLETED","DISPOSITION EVENT","END OF STUDY","FOLLOW-UP",6,"FOLLOW-UP",44,"2014-03-23",44
