"","STUDYID","DOMAIN","USUBJID","EXSEQ","EXTRT","EXCAT","EXDOSE","EXDOSU","EXDOSFRM","EXDOSFRQ","EXDOSRGM","EXROUTE","EXLOT","EXFAST","EPOCH","EXSTDTC","EXENDTC","EXSTDY","EXENDY"
"1","ABC","EX","ABC001",1,"STATIN","COURSE1",20,"mg","TABLET","QD","EVERY DAY","ORAL","20","N","TREATMENT","2014-03-26","2014-04-23",1,29
"2","ABC","EX","ABC002",1,"PLACEBO","COURSE1",0,"mg","TABLET","QD","EVERY DAY","ORAL","0","N","TREATMENT","2014-02-09","2014-03-09",1,29
"3","ABC","EX","ABC003",1,"STATIN","COURSE1",10,"mg","TABLET","QD","EVERY DAY","ORAL","10","N","TREATMENT","2014-05-06","2014-05-22",1,17
"4","ABC","EX","ABC004",1,"STATIN","COURSE1",10,"mg","TABLET","QD","EVERY DAY","ORAL","10","N","TREATMENT","2014-02-12","2014-03-12",1,29
"5","ABC","EX","ABC005",1,"STATIN","COURSE1",10,"mg","TABLET","QD","EVERY DAY","ORAL","10","N","TREATMENT","2014-03-30","2014-04-27",1,29
"6","ABC","EX","ABC006",1,"STATIN","COURSE1",10,"mg","TABLET","QD","EVERY DAY","ORAL","10","N","TREATMENT","2014-02-09","2014-03-08",1,28
"7","ABC","EX","ABC007",1,"STATIN","COURSE1",20,"mg","TABLET","QD","EVERY DAY","ORAL","20","N","TREATMENT","2014-01-25","2014-02-21",1,28
"8","ABC","EX","ABC008",1,"PLACEBO","COURSE1",0,"mg","TABLET","QD","EVERY DAY","ORAL","0","N","TREATMENT","2014-02-15","2014-03-14",1,28
"9","ABC","EX","ABC009",1,"STATIN","COURSE1",10,"mg","TABLET","QD","EVERY DAY","ORAL","10","N","TREATMENT","2014-05-24","2014-06-21",1,29
"10","ABC","EX","ABC010",1,"STATIN","COURSE1",20,"mg","TABLET","QD","EVERY DAY","ORAL","20","N","TREATMENT","2014-02-25","2014-03-24",1,28
"11","ABC","EX","ABC011",1,"STATIN","COURSE1",10,"mg","TABLET","QD","EVERY DAY","ORAL","10","N","TREATMENT","2014-01-26","2014-02-24",1,30
"12","ABC","EX","ABC012",1,"STATIN","COURSE1",20,"mg","TABLET","QD","EVERY DAY","ORAL","20","N","TREATMENT","2014-05-27","2014-06-23",1,28
"13","ABC","EX","ABC013",1,"STATIN","COURSE1",20,"mg","TABLET","QD","EVERY DAY","ORAL","20","N","TREATMENT","2014-02-09","2014-03-08",1,28
"14","ABC","EX","ABC014",1,"STATIN","COURSE1",10,"mg","TABLET","QD","EVERY DAY","ORAL","10","N","TREATMENT","2014-10-04","2014-11-01",1,29
"15","ABC","EX","ABC015",1,"PLACEBO","COURSE1",0,"mg","TABLET","QD","EVERY DAY","ORAL","0","N","TREATMENT","2014-10-22","2014-11-18",1,28
"16","ABC","EX","ABC016",1,"STATIN","COURSE1",20,"mg","TABLET","QD","EVERY DAY","ORAL","20","N","TREATMENT","2014-08-16","2014-09-12",1,28
"17","ABC","EX","ABC017",1,"PLACEBO","COURSE1",0,"mg","TABLET","QD","EVERY DAY","ORAL","0","N","TREATMENT","2014-05-11","2014-06-09",1,30
"18","ABC","EX","ABC018",1,"STATIN","COURSE1",10,"mg","TABLET","QD","EVERY DAY","ORAL","10","N","TREATMENT","2014-05-03","2014-06-01",1,30
"19","ABC","EX","ABC019",1,"PLACEBO","COURSE1",0,"mg","TABLET","QD","EVERY DAY","ORAL","0","N","TREATMENT","2014-04-20","2014-05-19",1,30
"20","ABC","EX","ABC020",1,"STATIN","COURSE1",20,"mg","TABLET","QD","EVERY DAY","ORAL","20","N","TREATMENT","2014-06-11","2014-07-08",1,28
"21","ABC","EX","ABC021",1,"STATIN","COURSE1",20,"mg","TABLET","QD","EVERY DAY","ORAL","20","N","TREATMENT","2014-04-07","2014-05-04",1,28
"22","ABC","EX","ABC022",1,"PLACEBO","COURSE1",0,"mg","TABLET","QD","EVERY DAY","ORAL","0","N","TREATMENT","2014-04-26","2014-05-25",1,30
"23","ABC","EX","ABC023",1,"PLACEBO","COURSE1",0,"mg","TABLET","QD","EVERY DAY","ORAL","0","N","TREATMENT","2014-03-30","2014-03-31",1,2
"24","ABC","EX","ABC024",1,"STATIN","COURSE1",10,"mg","TABLET","QD","EVERY DAY","ORAL","10","N","TREATMENT","2014-05-21","2014-06-17",1,28
"25","ABC","EX","ABC025",1,"PLACEBO","COURSE1",0,"mg","TABLET","QD","EVERY DAY","ORAL","0","N","TREATMENT","2014-02-19","2014-03-18",1,28
"26","ABC","EX","ABC026",1,"PLACEBO","COURSE1",0,"mg","TABLET","QD","EVERY DAY","ORAL","0","N","TREATMENT","2014-08-10","2014-09-06",1,28
"27","ABC","EX","ABC028",1,"PLACEBO","COURSE1",0,"mg","TABLET","QD","EVERY DAY","ORAL","0","N","TREATMENT","2014-01-15","2014-02-11",1,28
"28","ABC","EX","ABC029",1,"STATIN","COURSE1",20,"mg","TABLET","QD","EVERY DAY","ORAL","20","N","TREATMENT","2014-06-11","2014-07-09",1,29
"29","ABC","EX","ABC030",1,"STATIN","COURSE1",20,"mg","TABLET","QD","EVERY DAY","ORAL","20","N","TREATMENT","2014-10-04","2014-10-31",1,28
"30","ABC","EX","ABC031",1,"PLACEBO","COURSE1",0,"mg","TABLET","QD","EVERY DAY","ORAL","0","N","TREATMENT","2014-03-24","2014-04-21",1,29
"31","ABC","EX","ABC032",1,"STATIN","COURSE1",10,"mg","TABLET","QD","EVERY DAY","ORAL","10","N","TREATMENT","2014-09-03","2014-10-02",1,30
"32","ABC","EX","ABC033",1,"STATIN","COURSE1",20,"mg","TABLET","QD","EVERY DAY","ORAL","20","N","TREATMENT","2014-02-27","2014-03-27",1,29
"33","ABC","EX","ABC034",1,"STATIN","COURSE1",20,"mg","TABLET","QD","EVERY DAY","ORAL","20","N","TREATMENT","2014-02-18","2014-03-17",1,28
"34","ABC","EX","ABC035",1,"PLACEBO","COURSE1",0,"mg","TABLET","QD","EVERY DAY","ORAL","0","N","TREATMENT","2014-06-18","2014-07-16",1,29
"35","ABC","EX","ABC036",1,"STATIN","COURSE1",20,"mg","TABLET","QD","EVERY DAY","ORAL","20","N","TREATMENT","2014-07-19","2014-08-17",1,30
"36","ABC","EX","ABC037",1,"PLACEBO","COURSE1",0,"mg","TABLET","QD","EVERY DAY","ORAL","0","N","TREATMENT","2014-08-27","2014-09-23",1,28
"37","ABC","EX","ABC038",1,"STATIN","COURSE1",20,"mg","TABLET","QD","EVERY DAY","ORAL","20","N","TREATMENT","2014-06-22","2014-07-21",1,30
"38","ABC","EX","ABC039",1,"STATIN","COURSE1",10,"mg","TABLET","QD","EVERY DAY","ORAL","10","N","TREATMENT","2014-10-25","2014-11-22",1,29
"39","ABC","EX","ABC040",1,"STATIN","COURSE1",10,"mg","TABLET","QD","EVERY DAY","ORAL","10","N","TREATMENT","2014-06-19","2014-07-17",1,29
"40","ABC","EX","ABC041",1,"PLACEBO","COURSE1",0,"mg","TABLET","QD","EVERY DAY","ORAL","0","N","TREATMENT","2014-05-17","2014-06-14",1,29
"41","ABC","EX","ABC042",1,"PLACEBO","COURSE1",0,"mg","TABLET","QD","EVERY DAY","ORAL","0","N","TREATMENT","2014-06-07","2014-07-05",1,29
"42","ABC","EX","ABC043",1,"STATIN","COURSE1",20,"mg","TABLET","QD","EVERY DAY","ORAL","20","N","TREATMENT","2014-10-15","2014-11-12",1,29
"43","ABC","EX","ABC044",1,"STATIN","COURSE1",20,"mg","TABLET","QD","EVERY DAY","ORAL","20","N","TREATMENT","2014-08-07","2014-08-18",1,12
"44","ABC","EX","ABC045",1,"STATIN","COURSE1",10,"mg","TABLET","QD","EVERY DAY","ORAL","10","N","TREATMENT","2014-04-25","2014-05-23",1,29
"45","ABC","EX","ABC046",1,"PLACEBO","COURSE1",0,"mg","TABLET","QD","EVERY DAY","ORAL","0","N","TREATMENT","2014-03-08","2014-04-06",1,30
"46","ABC","EX","ABC047",1,"STATIN","COURSE1",20,"mg","TABLET","QD","EVERY DAY","ORAL","20","N","TREATMENT","2014-09-26","2014-10-25",1,30
"47","ABC","EX","ABC048",1,"STATIN","COURSE1",20,"mg","TABLET","QD","EVERY DAY","ORAL","20","N","TREATMENT","2014-02-24","2014-03-25",1,30
"48","ABC","EX","ABC049",1,"PLACEBO","COURSE1",0,"mg","TABLET","QD","EVERY DAY","ORAL","0","N","TREATMENT","2014-04-16","2014-05-13",1,28
"49","ABC","EX","ABC050",1,"PLACEBO","COURSE1",0,"mg","TABLET","QD","EVERY DAY","ORAL","0","N","TREATMENT","2014-10-22","2014-11-20",1,30
"50","ABC","EX","ABC051",1,"STATIN","COURSE1",10,"mg","TABLET","QD","EVERY DAY","ORAL","10","N","TREATMENT","2014-06-30","2014-07-27",1,28
"51","ABC","EX","ABC052",1,"STATIN","COURSE1",20,"mg","TABLET","QD","EVERY DAY","ORAL","20","N","TREATMENT","2014-04-16","2014-05-15",1,30
"52","ABC","EX","ABC053",1,"STATIN","COURSE1",10,"mg","TABLET","QD","EVERY DAY","ORAL","10","N","TREATMENT","2014-07-23","2014-08-21",1,30
"53","ABC","EX","ABC054",1,"STATIN","COURSE1",20,"mg","TABLET","QD","EVERY DAY","ORAL","20","N","TREATMENT","2014-06-22","2014-07-21",1,30
"54","ABC","EX","ABC055",1,"PLACEBO","COURSE1",0,"mg","TABLET","QD","EVERY DAY","ORAL","0","N","TREATMENT","2014-08-04","2014-09-01",1,29
"55","ABC","EX","ABC056",1,"STATIN","COURSE1",20,"mg","TABLET","QD","EVERY DAY","ORAL","20","N","TREATMENT","2014-07-08","2014-08-05",1,29
"56","ABC","EX","ABC057",1,"STATIN","COURSE1",10,"mg","TABLET","QD","EVERY DAY","ORAL","10","N","TREATMENT","2014-03-28","2014-04-25",1,29
"57","ABC","EX","ABC058",1,"STATIN","COURSE1",10,"mg","TABLET","QD","EVERY DAY","ORAL","10","N","TREATMENT","2014-04-26","2014-05-25",1,30
"58","ABC","EX","ABC059",1,"PLACEBO","COURSE1",0,"mg","TABLET","QD","EVERY DAY","ORAL","0","N","TREATMENT","2014-04-05","2014-05-03",1,29
"59","ABC","EX","ABC060",1,"PLACEBO","COURSE1",0,"mg","TABLET","QD","EVERY DAY","ORAL","0","N","TREATMENT","2014-08-14","2014-09-10",1,28
"60","ABC","EX","ABC061",1,"STATIN","COURSE1",20,"mg","TABLET","QD","EVERY DAY","ORAL","20","N","TREATMENT","2014-10-08","2014-11-06",1,30
"61","ABC","EX","ABC062",1,"PLACEBO","COURSE1",0,"mg","TABLET","QD","EVERY DAY","ORAL","0","N","TREATMENT","2014-07-13","2014-08-11",1,30
"62","ABC","EX","ABC063",1,"PLACEBO","COURSE1",0,"mg","TABLET","QD","EVERY DAY","ORAL","0","N","TREATMENT","2014-08-09","2014-09-05",1,28
"63","ABC","EX","ABC064",1,"PLACEBO","COURSE1",0,"mg","TABLET","QD","EVERY DAY","ORAL","0","N","TREATMENT","2014-01-22","2014-02-19",1,29
"64","ABC","EX","ABC065",1,"PLACEBO","COURSE1",0,"mg","TABLET","QD","EVERY DAY","ORAL","0","N","TREATMENT","2014-08-07","2014-09-05",1,30
"65","ABC","EX","ABC066",1,"STATIN","COURSE1",10,"mg","TABLET","QD","EVERY DAY","ORAL","10","N","TREATMENT","2014-04-22","2014-05-21",1,30
"66","ABC","EX","ABC067",1,"PLACEBO","COURSE1",0,"mg","TABLET","QD","EVERY DAY","ORAL","0","N","TREATMENT","2014-04-28","2014-05-27",1,30
"67","ABC","EX","ABC068",1,"STATIN","COURSE1",10,"mg","TABLET","QD","EVERY DAY","ORAL","10","N","TREATMENT","2014-06-14","2014-07-13",1,30
"68","ABC","EX","ABC069",1,"STATIN","COURSE1",10,"mg","TABLET","QD","EVERY DAY","ORAL","10","N","TREATMENT","2014-08-10","2014-09-08",1,30
"69","ABC","EX","ABC070",1,"STATIN","COURSE1",20,"mg","TABLET","QD","EVERY DAY","ORAL","20","N","TREATMENT","2014-05-22","2014-06-19",1,29
"70","ABC","EX","ABC071",1,"STATIN","COURSE1",20,"mg","TABLET","QD","EVERY DAY","ORAL","20","N","TREATMENT","2014-03-03","2014-03-30",1,28
"71","ABC","EX","ABC072",1,"STATIN","COURSE1",10,"mg","TABLET","QD","EVERY DAY","ORAL","10","N","TREATMENT","2014-09-12","2014-10-10",1,29
"72","ABC","EX","ABC073",1,"STATIN","COURSE1",20,"mg","TABLET","QD","EVERY DAY","ORAL","20","N","TREATMENT","2014-08-15","2014-09-11",1,28
"73","ABC","EX","ABC074",1,"STATIN","COURSE1",10,"mg","TABLET","QD","EVERY DAY","ORAL","10","N","TREATMENT","2014-02-28","2014-03-28",1,29
"74","ABC","EX","ABC075",1,"STATIN","COURSE1",10,"mg","TABLET","QD","EVERY DAY","ORAL","10","N","TREATMENT","2014-06-15","2014-07-14",1,30
"75","ABC","EX","ABC076",1,"STATIN","COURSE1",10,"mg","TABLET","QD","EVERY DAY","ORAL","10","N","TREATMENT","2014-05-05","2014-06-03",1,30
"76","ABC","EX","ABC077",1,"STATIN","COURSE1",20,"mg","TABLET","QD","EVERY DAY","ORAL","20","N","TREATMENT","2014-10-06","2014-11-02",1,28
"77","ABC","EX","ABC078",1,"STATIN","COURSE1",20,"mg","TABLET","QD","EVERY DAY","ORAL","20","N","TREATMENT","2014-04-04","2014-05-02",1,29
"78","ABC","EX","ABC079",1,"STATIN","COURSE1",10,"mg","TABLET","QD","EVERY DAY","ORAL","10","N","TREATMENT","2014-07-05","2014-08-03",1,30
"79","ABC","EX","ABC080",1,"STATIN","COURSE1",10,"mg","TABLET","QD","EVERY DAY","ORAL","10","N","TREATMENT","2014-04-13","2014-04-25",1,13
"80","ABC","EX","ABC081",1,"STATIN","COURSE1",10,"mg","TABLET","QD","EVERY DAY","ORAL","10","N","TREATMENT","2014-04-16","2014-05-15",1,30
"81","ABC","EX","ABC082",1,"PLACEBO","COURSE1",0,"mg","TABLET","QD","EVERY DAY","ORAL","0","N","TREATMENT","2014-04-10","2014-05-09",1,30
"82","ABC","EX","ABC083",1,"STATIN","COURSE1",20,"mg","TABLET","QD","EVERY DAY","ORAL","20","N","TREATMENT","2014-05-01","2014-05-29",1,29
"83","ABC","EX","ABC084",1,"STATIN","COURSE1",10,"mg","TABLET","QD","EVERY DAY","ORAL","10","N","TREATMENT","2014-06-26","2014-07-23",1,28
"84","ABC","EX","ABC085",1,"STATIN","COURSE1",10,"mg","TABLET","QD","EVERY DAY","ORAL","10","N","TREATMENT","2014-10-27","2014-11-23",1,28
"85","ABC","EX","ABC086",1,"PLACEBO","COURSE1",0,"mg","TABLET","QD","EVERY DAY","ORAL","0","N","TREATMENT","2014-02-17","2014-03-16",1,28
"86","ABC","EX","ABC087",1,"PLACEBO","COURSE1",0,"mg","TABLET","QD","EVERY DAY","ORAL","0","N","TREATMENT","2014-09-29","2014-10-28",1,30
"87","ABC","EX","ABC088",1,"STATIN","COURSE1",20,"mg","TABLET","QD","EVERY DAY","ORAL","20","N","TREATMENT","2014-02-01","2014-03-02",1,30
"88","ABC","EX","ABC089",1,"STATIN","COURSE1",20,"mg","TABLET","QD","EVERY DAY","ORAL","20","N","TREATMENT","2014-01-28","2014-02-25",1,29
"89","ABC","EX","ABC091",1,"STATIN","COURSE1",10,"mg","TABLET","QD","EVERY DAY","ORAL","10","N","TREATMENT","2014-08-31","2014-09-27",1,28
"90","ABC","EX","ABC092",1,"STATIN","COURSE1",10,"mg","TABLET","QD","EVERY DAY","ORAL","10","N","TREATMENT","2014-10-09","2014-11-06",1,29
"91","ABC","EX","ABC093",1,"STATIN","COURSE1",10,"mg","TABLET","QD","EVERY DAY","ORAL","10","N","TREATMENT","2014-09-20","2014-10-19",1,30
"92","ABC","EX","ABC094",1,"STATIN","COURSE1",20,"mg","TABLET","QD","EVERY DAY","ORAL","20","N","TREATMENT","2014-05-13","2014-06-11",1,30
"93","ABC","EX","ABC095",1,"STATIN","COURSE1",20,"mg","TABLET","QD","EVERY DAY","ORAL","20","N","TREATMENT","2014-01-17","2014-02-15",1,30
"94","ABC","EX","ABC096",1,"STATIN","COURSE1",20,"mg","TABLET","QD","EVERY DAY","ORAL","20","N","TREATMENT","2014-10-15","2014-11-12",1,29
"95","ABC","EX","ABC097",1,"STATIN","COURSE1",10,"mg","TABLET","QD","EVERY DAY","ORAL","10","N","TREATMENT","2014-10-22","2014-11-20",1,30
"96","ABC","EX","ABC098",1,"STATIN","COURSE1",20,"mg","TABLET","QD","EVERY DAY","ORAL","20","N","TREATMENT","2014-02-02","2014-03-02",1,29
"97","ABC","EX","ABC099",1,"PLACEBO","COURSE1",0,"mg","TABLET","QD","EVERY DAY","ORAL","0","N","TREATMENT","2014-10-24","2014-11-22",1,30
"98","ABC","EX","ABC100",1,"STATIN","COURSE1",20,"mg","TABLET","QD","EVERY DAY","ORAL","20","N","TREATMENT","2014-09-22","2014-10-21",1,30
"99","ABC","EX","ABC101",1,"STATIN","COURSE1",20,"mg","TABLET","QD","EVERY DAY","ORAL","20","N","TREATMENT","2014-03-06","2014-04-02",1,28
"100","ABC","EX","ABC102",1,"STATIN","COURSE1",10,"mg","TABLET","QD","EVERY DAY","ORAL","10","N","TREATMENT","2014-09-10","2014-10-09",1,30
"101","ABC","EX","ABC103",1,"PLACEBO","COURSE1",0,"mg","TABLET","QD","EVERY DAY","ORAL","0","N","TREATMENT","2014-01-17","2014-02-14",1,29
"102","ABC","EX","ABC104",1,"PLACEBO","COURSE1",0,"mg","TABLET","QD","EVERY DAY","ORAL","0","N","TREATMENT","2014-09-10","2014-10-08",1,29
"103","ABC","EX","ABC106",1,"PLACEBO","COURSE1",0,"mg","TABLET","QD","EVERY DAY","ORAL","0","N","TREATMENT","2014-02-15","2014-03-15",1,29
"104","ABC","EX","ABC107",1,"STATIN","COURSE1",20,"mg","TABLET","QD","EVERY DAY","ORAL","20","N","TREATMENT","2014-08-20","2014-09-16",1,28
"105","ABC","EX","ABC108",1,"STATIN","COURSE1",20,"mg","TABLET","QD","EVERY DAY","ORAL","20","N","TREATMENT","2014-07-17","2014-08-15",1,30
"106","ABC","EX","ABC109",1,"STATIN","COURSE1",20,"mg","TABLET","QD","EVERY DAY","ORAL","20","N","TREATMENT","2014-10-19","2014-11-16",1,29
"107","ABC","EX","ABC110",1,"PLACEBO","COURSE1",0,"mg","TABLET","QD","EVERY DAY","ORAL","0","N","TREATMENT","2014-08-14","2014-09-11",1,29
"108","ABC","EX","ABC111",1,"STATIN","COURSE1",20,"mg","TABLET","QD","EVERY DAY","ORAL","20","N","TREATMENT","2014-03-03","2014-03-30",1,28
"109","ABC","EX","ABC112",1,"STATIN","COURSE1",20,"mg","TABLET","QD","EVERY DAY","ORAL","20","N","TREATMENT","2014-06-25","2014-07-23",1,29
"110","ABC","EX","ABC113",1,"STATIN","COURSE1",10,"mg","TABLET","QD","EVERY DAY","ORAL","10","N","TREATMENT","2014-10-07","2014-11-05",1,30
"111","ABC","EX","ABC114",1,"STATIN","COURSE1",10,"mg","TABLET","QD","EVERY DAY","ORAL","10","N","TREATMENT","2014-04-10","2014-05-07",1,28
"112","ABC","EX","ABC115",1,"PLACEBO","COURSE1",0,"mg","TABLET","QD","EVERY DAY","ORAL","0","N","TREATMENT","2014-02-16","2014-03-16",1,29
"113","ABC","EX","ABC116",1,"PLACEBO","COURSE1",0,"mg","TABLET","QD","EVERY DAY","ORAL","0","N","TREATMENT","2014-09-25","2014-10-23",1,29
"114","ABC","EX","ABC117",1,"PLACEBO","COURSE1",0,"mg","TABLET","QD","EVERY DAY","ORAL","0","N","TREATMENT","2014-08-14","2014-09-10",1,28
"115","ABC","EX","ABC118",1,"STATIN","COURSE1",10,"mg","TABLET","QD","EVERY DAY","ORAL","10","N","TREATMENT","2014-06-25","2014-07-22",1,28
"116","ABC","EX","ABC119",1,"STATIN","COURSE1",10,"mg","TABLET","QD","EVERY DAY","ORAL","10","N","TREATMENT","2014-09-04","2014-10-03",1,30
"117","ABC","EX","ABC120",1,"PLACEBO","COURSE1",0,"mg","TABLET","QD","EVERY DAY","ORAL","0","N","TREATMENT","2014-10-05","2014-11-02",1,29
"118","ABC","EX","ABC121",1,"STATIN","COURSE1",20,"mg","TABLET","QD","EVERY DAY","ORAL","20","N","TREATMENT","2014-09-20","2014-10-18",1,29
"119","ABC","EX","ABC122",1,"STATIN","COURSE1",20,"mg","TABLET","QD","EVERY DAY","ORAL","20","N","TREATMENT","2014-03-02","2014-03-29",1,28
"120","ABC","EX","ABC123",1,"PLACEBO","COURSE1",0,"mg","TABLET","QD","EVERY DAY","ORAL","0","N","TREATMENT","2014-05-07","2014-06-05",1,30
"121","ABC","EX","ABC124",1,"STATIN","COURSE1",10,"mg","TABLET","QD","EVERY DAY","ORAL","10","N","TREATMENT","2014-05-24","2014-06-20",1,28
"122","ABC","EX","ABC125",1,"STATIN","COURSE1",10,"mg","TABLET","QD","EVERY DAY","ORAL","10","N","TREATMENT","2014-03-26","2014-04-24",1,30
"123","ABC","EX","ABC126",1,"PLACEBO","COURSE1",0,"mg","TABLET","QD","EVERY DAY","ORAL","0","N","TREATMENT","2014-05-02","2014-05-31",1,30
"124","ABC","EX","ABC127",1,"STATIN","COURSE1",20,"mg","TABLET","QD","EVERY DAY","ORAL","20","N","TREATMENT","2014-02-09","2014-03-09",1,29
"125","ABC","EX","ABC128",1,"PLACEBO","COURSE1",0,"mg","TABLET","QD","EVERY DAY","ORAL","0","N","TREATMENT","2014-08-23","2014-09-21",1,30
"126","ABC","EX","ABC129",1,"STATIN","COURSE1",20,"mg","TABLET","QD","EVERY DAY","ORAL","20","N","TREATMENT","2014-07-10","2014-08-08",1,30
"127","ABC","EX","ABC130",1,"STATIN","COURSE1",10,"mg","TABLET","QD","EVERY DAY","ORAL","10","N","TREATMENT","2014-01-17","2014-02-14",1,29
"128","ABC","EX","ABC131",1,"PLACEBO","COURSE1",0,"mg","TABLET","QD","EVERY DAY","ORAL","0","N","TREATMENT","2014-06-19","2014-07-16",1,28
"129","ABC","EX","ABC132",1,"STATIN","COURSE1",10,"mg","TABLET","QD","EVERY DAY","ORAL","10","N","TREATMENT","2014-03-01","2014-03-29",1,29
"130","ABC","EX","ABC133",1,"STATIN","COURSE1",20,"mg","TABLET","QD","EVERY DAY","ORAL","20","N","TREATMENT","2014-03-28","2014-04-25",1,29
"131","ABC","EX","ABC134",1,"STATIN","COURSE1",10,"mg","TABLET","QD","EVERY DAY","ORAL","10","N","TREATMENT","2014-08-31","2014-09-27",1,28
"132","ABC","EX","ABC135",1,"PLACEBO","COURSE1",0,"mg","TABLET","QD","EVERY DAY","ORAL","0","N","TREATMENT","2014-08-06","2014-09-02",1,28
"133","ABC","EX","ABC136",1,"STATIN","COURSE1",20,"mg","TABLET","QD","EVERY DAY","ORAL","20","N","TREATMENT","2014-10-21","2014-11-19",1,30
"134","ABC","EX","ABC137",1,"PLACEBO","COURSE1",0,"mg","TABLET","QD","EVERY DAY","ORAL","0","N","TREATMENT","2014-07-10","2014-08-06",1,28
"135","ABC","EX","ABC138",1,"STATIN","COURSE1",10,"mg","TABLET","QD","EVERY DAY","ORAL","10","N","TREATMENT","2014-09-27","2014-10-24",1,28
"136","ABC","EX","ABC139",1,"STATIN","COURSE1",10,"mg","TABLET","QD","EVERY DAY","ORAL","10","N","TREATMENT","2014-05-24","2014-06-20",1,28
"137","ABC","EX","ABC140",1,"STATIN","COURSE1",10,"mg","TABLET","QD","EVERY DAY","ORAL","10","N","TREATMENT","2014-06-03","2014-07-01",1,29
"138","ABC","EX","ABC141",1,"STATIN","COURSE1",10,"mg","TABLET","QD","EVERY DAY","ORAL","10","N","TREATMENT","2014-10-22","2014-11-19",1,29
"139","ABC","EX","ABC142",1,"STATIN","COURSE1",20,"mg","TABLET","QD","EVERY DAY","ORAL","20","N","TREATMENT","2014-03-07","2014-04-05",1,30
"140","ABC","EX","ABC143",1,"PLACEBO","COURSE1",0,"mg","TABLET","QD","EVERY DAY","ORAL","0","N","TREATMENT","2014-09-07","2014-10-06",1,30
"141","ABC","EX","ABC144",1,"STATIN","COURSE1",10,"mg","TABLET","QD","EVERY DAY","ORAL","10","N","TREATMENT","2014-06-21","2014-07-20",1,30
"142","ABC","EX","ABC145",1,"STATIN","COURSE1",10,"mg","TABLET","QD","EVERY DAY","ORAL","10","N","TREATMENT","2014-02-07","2014-03-08",1,30
"143","ABC","EX","ABC146",1,"STATIN","COURSE1",20,"mg","TABLET","QD","EVERY DAY","ORAL","20","N","TREATMENT","2014-07-24","2014-08-22",1,30
"144","ABC","EX","ABC147",1,"PLACEBO","COURSE1",0,"mg","TABLET","QD","EVERY DAY","ORAL","0","N","TREATMENT","2014-08-16","2014-09-14",1,30
"145","ABC","EX","ABC148",1,"STATIN","COURSE1",20,"mg","TABLET","QD","EVERY DAY","ORAL","20","N","TREATMENT","2014-05-19","2014-06-15",1,28
"146","ABC","EX","ABC149",1,"STATIN","COURSE1",20,"mg","TABLET","QD","EVERY DAY","ORAL","20","N","TREATMENT","2014-07-24","2014-08-21",1,29
"147","ABC","EX","ABC150",1,"STATIN","COURSE1",20,"mg","TABLET","QD","EVERY DAY","ORAL","20","N","TREATMENT","2014-09-22","2014-10-21",1,30
"148","ABC","EX","ABC151",1,"STATIN","COURSE1",10,"mg","TABLET","QD","EVERY DAY","ORAL","10","N","TREATMENT","2014-02-01","2014-03-01",1,29
"149","ABC","EX","ABC152",1,"STATIN","COURSE1",10,"mg","TABLET","QD","EVERY DAY","ORAL","10","N","TREATMENT","2014-02-08","2014-03-08",1,29
"150","ABC","EX","ABC153",1,"PLACEBO","COURSE1",0,"mg","TABLET","QD","EVERY DAY","ORAL","0","N","TREATMENT","2014-03-15","2014-04-11",1,28
"151","ABC","EX","ABC154",1,"PLACEBO","COURSE1",0,"mg","TABLET","QD","EVERY DAY","ORAL","0","N","TREATMENT","2014-08-28","2014-09-24",1,28
"152","ABC","EX","ABC155",1,"STATIN","COURSE1",20,"mg","TABLET","QD","EVERY DAY","ORAL","20","N","TREATMENT","2014-02-06","2014-03-06",1,29
"153","ABC","EX","ABC156",1,"PLACEBO","COURSE1",0,"mg","TABLET","QD","EVERY DAY","ORAL","0","N","TREATMENT","2014-06-03","2014-07-01",1,29
"154","ABC","EX","ABC157",1,"STATIN","COURSE1",10,"mg","TABLET","QD","EVERY DAY","ORAL","10","N","TREATMENT","2014-02-05","2014-03-04",1,28
"155","ABC","EX","ABC158",1,"STATIN","COURSE1",10,"mg","TABLET","QD","EVERY DAY","ORAL","10","N","TREATMENT","2014-10-18","2014-11-15",1,29
"156","ABC","EX","ABC159",1,"STATIN","COURSE1",20,"mg","TABLET","QD","EVERY DAY","ORAL","20","N","TREATMENT","2014-09-26","2014-10-12",1,17
"157","ABC","EX","ABC160",1,"STATIN","COURSE1",10,"mg","TABLET","QD","EVERY DAY","ORAL","10","N","TREATMENT","2014-05-18","2014-06-14",1,28
"158","ABC","EX","ABC161",1,"STATIN","COURSE1",10,"mg","TABLET","QD","EVERY DAY","ORAL","10","N","TREATMENT","2014-05-25","2014-06-22",1,29
"159","ABC","EX","ABC162",1,"PLACEBO","COURSE1",0,"mg","TABLET","QD","EVERY DAY","ORAL","0","N","TREATMENT","2014-02-08","2014-03-09",1,30
