"","STUDYID","DOMAIN","USUBJID","LBSEQ","LBGRPID","LBREFID","LBSPID","LBLNKID","LBTESTCD","LBTEST","LBCAT","LBSCAT","LBORRES","LBORRESU","LBORNRLO","LBORNRHI","LBSTRESC","LBSTRESN","LBSTRESU","LBSTNRLO","LBSTNRHI","LBNRIND","LBSTAT","LBREASND","LBNAM","LBSPEC","LBBLFL","VISITNUM","VISIT","EPOCH","LBDTC","LBDY"
"1","ABC","LB","ABC001",1,"","","","","TRIG","Triglycerides","CHEMISTRY","LIPID","231","mg/dL","0","200","231",231,"mg/dL",0,200,"HIGH","","","CENTRAL","SERUM","Y",1,"SCREENING","TREATMENT","2014-03-26",1
"2","ABC","LB","ABC001",2,"","","","","AST","Aspartate Aminotransferase","CHEMISTRY","LIVER FUNCTION","21","IU/L","10","40","21",21,"IU/L",10,40,"NORMAL","","","CENTRAL","SERUM","Y",1,"SCREENING","TREATMENT","2014-03-26",1
"3","ABC","LB","ABC001",3,"","","","","LDL","LDL Cholesterol","CHEMISTRY","LIPID","170","mg/dL","0","160","170",170,"mg/dL",0,160,"HIGH","","","CENTRAL","SERUM","Y",1,"SCREENING","TREATMENT","2014-03-26",1
"4","ABC","LB","ABC001",4,"","","","","ALT","Alanine Aminotransferase","CHEMISTRY","LIVER FUNCTION","36","IU/L","7","56","36",36,"IU/L",7,56,"NORMAL","","","CENTRAL","SERUM","Y",1,"SCREENING","TREATMENT","2014-03-26",1
"5","ABC","LB","ABC001",5,"","","","","ALP","Alkaline Phosphatase","CHEMISTRY","LIVER FUNCTION","72","IU/L","44","147","72",72,"IU/L",44,147,"NORMAL","","","CENTRAL","SERUM","Y",1,"SCREENING","TREATMENT","2014-03-26",1
"6","ABC","LB","ABC001",6,"","","","","BILI","Bilirubin","CHEMISTRY","LIVER FUNCTION","0.8","mg/dL","0.3","1.9","0.8",0.8,"mg/dL",0.3,1.9,"NORMAL","","","CENTRAL","SERUM","Y",1,"SCREENING","TREATMENT","2014-03-26",1
"7","ABC","LB","ABC001",7,"","","","","HDL","HDL Cholesterol","CHEMISTRY","LIPID","43","mg/dL","40","999","43",43,"mg/dL",40,999,"NORMAL","","","CENTRAL","SERUM","Y",1,"SCREENING","TREATMENT","2014-03-26",1
"8","ABC","LB","ABC001",8,"","","","","CHOL","Cholesterol","CHEMISTRY","LIPID","206","mg/dL","100","200","206",206,"mg/dL",100,200,"HIGH","","","CENTRAL","SERUM","Y",1,"SCREENING","TREATMENT","2014-03-26",1
"9","ABC","LB","ABC001",9,"","","","","CHOL","Cholesterol","CHEMISTRY","LIPID","205","mg/dL","100","200","205",205,"mg/dL",100,200,"HIGH","","","CENTRAL","SERUM","",2,"VISIT 2","TREATMENT","2014-04-03",9
"10","ABC","LB","ABC001",10,"","","","","LDL","LDL Cholesterol","CHEMISTRY","LIPID","172","mg/dL","0","160","172",172,"mg/dL",0,160,"HIGH","","","CENTRAL","SERUM","",2,"VISIT 2","TREATMENT","2014-04-03",9
"11","ABC","LB","ABC001",11,"","","","","ALP","Alkaline Phosphatase","CHEMISTRY","LIVER FUNCTION","85","IU/L","44","147","85",85,"IU/L",44,147,"NORMAL","","","CENTRAL","SERUM","",2,"VISIT 2","TREATMENT","2014-04-03",9
"12","ABC","LB","ABC001",12,"","","","","ALT","Alanine Aminotransferase","CHEMISTRY","LIVER FUNCTION","27","IU/L","7","56","27",27,"IU/L",7,56,"NORMAL","","","CENTRAL","SERUM","",2,"VISIT 2","TREATMENT","2014-04-03",9
"13","ABC","LB","ABC001",13,"","","","","AST","Aspartate Aminotransferase","CHEMISTRY","LIVER FUNCTION","26","IU/L","10","40","26",26,"IU/L",10,40,"NORMAL","","","CENTRAL","SERUM","",2,"VISIT 2","TREATMENT","2014-04-03",9
"14","ABC","LB","ABC001",14,"","","","","HDL","HDL Cholesterol","CHEMISTRY","LIPID","52","mg/dL","40","999","52",52,"mg/dL",40,999,"NORMAL","","","CENTRAL","SERUM","",2,"VISIT 2","TREATMENT","2014-04-03",9
"15","ABC","LB","ABC001",15,"","","","","TRIG","Triglycerides","CHEMISTRY","LIPID","201","mg/dL","0","200","201",201,"mg/dL",0,200,"HIGH","","","CENTRAL","SERUM","",2,"VISIT 2","TREATMENT","2014-04-03",9
"16","ABC","LB","ABC001",16,"","","","","BILI","Bilirubin","CHEMISTRY","LIVER FUNCTION","0.4","mg/dL","0.3","1.9","0.4",0.4,"mg/dL",0.3,1.9,"NORMAL","","","CENTRAL","SERUM","",2,"VISIT 2","TREATMENT","2014-04-03",9
"17","ABC","LB","ABC001",17,"","","","","ALT","Alanine Aminotransferase","CHEMISTRY","LIVER FUNCTION","26","IU/L","7","56","26",26,"IU/L",7,56,"NORMAL","","","CENTRAL","SERUM","",3,"VISIT 3","TREATMENT","2014-04-10",16
"18","ABC","LB","ABC001",18,"","","","","TRIG","Triglycerides","CHEMISTRY","LIPID","210","mg/dL","0","200","210",210,"mg/dL",0,200,"HIGH","","","CENTRAL","SERUM","",3,"VISIT 3","TREATMENT","2014-04-10",16
"19","ABC","LB","ABC001",19,"","","","","ALP","Alkaline Phosphatase","CHEMISTRY","LIVER FUNCTION","69","IU/L","44","147","69",69,"IU/L",44,147,"NORMAL","","","CENTRAL","SERUM","",3,"VISIT 3","TREATMENT","2014-04-10",16
"20","ABC","LB","ABC001",20,"","","","","BILI","Bilirubin","CHEMISTRY","LIVER FUNCTION","0.6","mg/dL","0.3","1.9","0.6",0.6,"mg/dL",0.3,1.9,"NORMAL","","","CENTRAL","SERUM","",3,"VISIT 3","TREATMENT","2014-04-10",16
"21","ABC","LB","ABC001",21,"","","","","AST","Aspartate Aminotransferase","CHEMISTRY","LIVER FUNCTION","30","IU/L","10","40","30",30,"IU/L",10,40,"NORMAL","","","CENTRAL","SERUM","",3,"VISIT 3","TREATMENT","2014-04-10",16
"22","ABC","LB","ABC001",22,"","","","","HDL","HDL Cholesterol","CHEMISTRY","LIPID","52","mg/dL","40","999","52",52,"mg/dL",40,999,"NORMAL","","","CENTRAL","SERUM","",3,"VISIT 3","TREATMENT","2014-04-10",16
"23","ABC","LB","ABC001",23,"","","","","LDL","LDL Cholesterol","CHEMISTRY","LIPID","167","mg/dL","0","160","167",167,"mg/dL",0,160,"HIGH","","","CENTRAL","SERUM","",3,"VISIT 3","TREATMENT","2014-04-10",16
"24","ABC","LB","ABC001",24,"","","","","CHOL","Cholesterol","CHEMISTRY","LIPID","229","mg/dL","100","200","229",229,"mg/dL",100,200,"HIGH","","","CENTRAL","SERUM","",3,"VISIT 3","TREATMENT","2014-04-10",16
"25","ABC","LB","ABC001",25,"","","","","CHOL","Cholesterol","CHEMISTRY","LIPID","207","mg/dL","100","200","207",207,"mg/dL",100,200,"HIGH","","","CENTRAL","SERUM","",4,"VISIT 4","TREATMENT","2014-04-16",22
"26","ABC","LB","ABC001",26,"","","","","LDL","LDL Cholesterol","CHEMISTRY","LIPID","153","mg/dL","0","160","153",153,"mg/dL",0,160,"NORMAL","","","CENTRAL","SERUM","",4,"VISIT 4","TREATMENT","2014-04-16",22
"27","ABC","LB","ABC001",27,"","","","","ALT","Alanine Aminotransferase","CHEMISTRY","LIVER FUNCTION","33","IU/L","7","56","33",33,"IU/L",7,56,"NORMAL","","","CENTRAL","SERUM","",4,"VISIT 4","TREATMENT","2014-04-16",22
"28","ABC","LB","ABC001",28,"","","","","BILI","Bilirubin","CHEMISTRY","LIVER FUNCTION","0.7","mg/dL","0.3","1.9","0.7",0.7,"mg/dL",0.3,1.9,"NORMAL","","","CENTRAL","SERUM","",4,"VISIT 4","TREATMENT","2014-04-16",22
"29","ABC","LB","ABC001",29,"","","","","AST","Aspartate Aminotransferase","CHEMISTRY","LIVER FUNCTION","28","IU/L","10","40","28",28,"IU/L",10,40,"NORMAL","","","CENTRAL","SERUM","",4,"VISIT 4","TREATMENT","2014-04-16",22
"30","ABC","LB","ABC001",30,"","","","","HDL","HDL Cholesterol","CHEMISTRY","LIPID","53","mg/dL","40","999","53",53,"mg/dL",40,999,"NORMAL","","","CENTRAL","SERUM","",4,"VISIT 4","TREATMENT","2014-04-16",22
"31","ABC","LB","ABC001",31,"","","","","ALP","Alkaline Phosphatase","CHEMISTRY","LIVER FUNCTION","80","IU/L","44","147","80",80,"IU/L",44,147,"NORMAL","","","CENTRAL","SERUM","",4,"VISIT 4","TREATMENT","2014-04-16",22
"32","ABC","LB","ABC001",32,"","","","","TRIG","Triglycerides","CHEMISTRY","LIPID","227","mg/dL","0","200","227",227,"mg/dL",0,200,"HIGH","","","CENTRAL","SERUM","",4,"VISIT 4","TREATMENT","2014-04-16",22
"33","ABC","LB","ABC001",33,"","","","","TRIG","Triglycerides","CHEMISTRY","LIPID","192","mg/dL","0","200","192",192,"mg/dL",0,200,"NORMAL","","","CENTRAL","SERUM","",5,"VISIT 5","TREATMENT","2014-04-23",29
"34","ABC","LB","ABC001",34,"","","","","LDL","LDL Cholesterol","CHEMISTRY","LIPID","162","mg/dL","0","160","162",162,"mg/dL",0,160,"HIGH","","","CENTRAL","SERUM","",5,"VISIT 5","TREATMENT","2014-04-23",29
"35","ABC","LB","ABC001",35,"","","","","AST","Aspartate Aminotransferase","CHEMISTRY","LIVER FUNCTION","17","IU/L","10","40","17",17,"IU/L",10,40,"NORMAL","","","CENTRAL","SERUM","",5,"VISIT 5","TREATMENT","2014-04-23",29
"36","ABC","LB","ABC001",36,"","","","","CHOL","Cholesterol","CHEMISTRY","LIPID","210","mg/dL","100","200","210",210,"mg/dL",100,200,"HIGH","","","CENTRAL","SERUM","",5,"VISIT 5","TREATMENT","2014-04-23",29
"37","ABC","LB","ABC001",37,"","","","","HDL","HDL Cholesterol","CHEMISTRY","LIPID","56","mg/dL","40","999","56",56,"mg/dL",40,999,"NORMAL","","","CENTRAL","SERUM","",5,"VISIT 5","TREATMENT","2014-04-23",29
"38","ABC","LB","ABC001",38,"","","","","BILI","Bilirubin","CHEMISTRY","LIVER FUNCTION","0.8","mg/dL","0.3","1.9","0.8",0.8,"mg/dL",0.3,1.9,"NORMAL","","","CENTRAL","SERUM","",5,"VISIT 5","TREATMENT","2014-04-23",29
"39","ABC","LB","ABC001",39,"","","","","ALP","Alkaline Phosphatase","CHEMISTRY","LIVER FUNCTION","70","IU/L","44","147","70",70,"IU/L",44,147,"NORMAL","","","CENTRAL","SERUM","",5,"VISIT 5","TREATMENT","2014-04-23",29
"40","ABC","LB","ABC001",40,"","","","","ALT","Alanine Aminotransferase","CHEMISTRY","LIVER FUNCTION","30","IU/L","7","56","30",30,"IU/L",7,56,"NORMAL","","","CENTRAL","SERUM","",5,"VISIT 5","TREATMENT","2014-04-23",29
"41","ABC","LB","ABC002",1,"","","","","CHOL","Cholesterol","CHEMISTRY","LIPID","226","mg/dL","100","200","226",226,"mg/dL",100,200,"HIGH","","","CENTRAL","SERUM","Y",1,"SCREENING","TREATMENT","2014-02-09",1
"42","ABC","LB","ABC002",2,"","","","","LDL","LDL Cholesterol","CHEMISTRY","LIPID","175","mg/dL","0","160","175",175,"mg/dL",0,160,"HIGH","","","CENTRAL","SERUM","Y",1,"SCREENING","TREATMENT","2014-02-09",1
"43","ABC","LB","ABC002",3,"","","","","ALP","Alkaline Phosphatase","CHEMISTRY","LIVER FUNCTION","86","IU/L","44","147","86",86,"IU/L",44,147,"NORMAL","","","CENTRAL","SERUM","Y",1,"SCREENING","TREATMENT","2014-02-09",1
"44","ABC","LB","ABC002",4,"","","","","AST","Aspartate Aminotransferase","CHEMISTRY","LIVER FUNCTION","20","IU/L","10","40","20",20,"IU/L",10,40,"NORMAL","","","CENTRAL","SERUM","Y",1,"SCREENING","TREATMENT","2014-02-09",1
"45","ABC","LB","ABC002",5,"","","","","BILI","Bilirubin","CHEMISTRY","LIVER FUNCTION","0.8","mg/dL","0.3","1.9","0.8",0.8,"mg/dL",0.3,1.9,"NORMAL","","","CENTRAL","SERUM","Y",1,"SCREENING","TREATMENT","2014-02-09",1
"46","ABC","LB","ABC002",6,"","","","","TRIG","Triglycerides","CHEMISTRY","LIPID","217","mg/dL","0","200","217",217,"mg/dL",0,200,"HIGH","","","CENTRAL","SERUM","Y",1,"SCREENING","TREATMENT","2014-02-09",1
"47","ABC","LB","ABC002",7,"","","","","HDL","HDL Cholesterol","CHEMISTRY","LIPID","43","mg/dL","40","999","43",43,"mg/dL",40,999,"NORMAL","","","CENTRAL","SERUM","Y",1,"SCREENING","TREATMENT","2014-02-09",1
"48","ABC","LB","ABC002",8,"","","","","ALT","Alanine Aminotransferase","CHEMISTRY","LIVER FUNCTION","37","IU/L","7","56","37",37,"IU/L",7,56,"NORMAL","","","CENTRAL","SERUM","Y",1,"SCREENING","TREATMENT","2014-02-09",1
"49","ABC","LB","ABC002",9,"","","","","BILI","Bilirubin","CHEMISTRY","LIVER FUNCTION","0.7","mg/dL","0.3","1.9","0.7",0.7,"mg/dL",0.3,1.9,"NORMAL","","","CENTRAL","SERUM","",2,"VISIT 2","TREATMENT","2014-02-17",9
"50","ABC","LB","ABC002",10,"","","","","CHOL","Cholesterol","CHEMISTRY","LIPID","225","mg/dL","100","200","225",225,"mg/dL",100,200,"HIGH","","","CENTRAL","SERUM","",2,"VISIT 2","TREATMENT","2014-02-17",9
"51","ABC","LB","ABC002",11,"","","","","TRIG","Triglycerides","CHEMISTRY","LIPID","218","mg/dL","0","200","218",218,"mg/dL",0,200,"HIGH","","","CENTRAL","SERUM","",2,"VISIT 2","TREATMENT","2014-02-17",9
"52","ABC","LB","ABC002",12,"","","","","ALP","Alkaline Phosphatase","CHEMISTRY","LIVER FUNCTION","78","IU/L","44","147","78",78,"IU/L",44,147,"NORMAL","","","CENTRAL","SERUM","",2,"VISIT 2","TREATMENT","2014-02-17",9
"53","ABC","LB","ABC002",13,"","","","","AST","Aspartate Aminotransferase","CHEMISTRY","LIVER FUNCTION","24","IU/L","10","40","24",24,"IU/L",10,40,"NORMAL","","","CENTRAL","SERUM","",2,"VISIT 2","TREATMENT","2014-02-17",9
"54","ABC","LB","ABC002",14,"","","","","LDL","LDL Cholesterol","CHEMISTRY","LIPID","180","mg/dL","0","160","180",180,"mg/dL",0,160,"HIGH","","","CENTRAL","SERUM","",2,"VISIT 2","TREATMENT","2014-02-17",9
"55","ABC","LB","ABC002",15,"","","","","ALT","Alanine Aminotransferase","CHEMISTRY","LIVER FUNCTION","38","IU/L","7","56","38",38,"IU/L",7,56,"NORMAL","","","CENTRAL","SERUM","",2,"VISIT 2","TREATMENT","2014-02-17",9
"56","ABC","LB","ABC002",16,"","","","","HDL","HDL Cholesterol","CHEMISTRY","LIPID","41","mg/dL","40","999","41",41,"mg/dL",40,999,"NORMAL","","","CENTRAL","SERUM","",2,"VISIT 2","TREATMENT","2014-02-17",9
"57","ABC","LB","ABC002",17,"","","","","LDL","LDL Cholesterol","CHEMISTRY","LIPID","174","mg/dL","0","160","174",174,"mg/dL",0,160,"HIGH","","","CENTRAL","SERUM","",3,"VISIT 3","TREATMENT","2014-02-24",16
"58","ABC","LB","ABC002",18,"","","","","BILI","Bilirubin","CHEMISTRY","LIVER FUNCTION","1","mg/dL","0.3","1.9","1",1,"mg/dL",0.3,1.9,"NORMAL","","","CENTRAL","SERUM","",3,"VISIT 3","TREATMENT","2014-02-24",16
"59","ABC","LB","ABC002",19,"","","","","AST","Aspartate Aminotransferase","CHEMISTRY","LIVER FUNCTION","25","IU/L","10","40","25",25,"IU/L",10,40,"NORMAL","","","CENTRAL","SERUM","",3,"VISIT 3","TREATMENT","2014-02-24",16
"60","ABC","LB","ABC002",20,"","","","","HDL","HDL Cholesterol","CHEMISTRY","LIPID","48","mg/dL","40","999","48",48,"mg/dL",40,999,"NORMAL","","","CENTRAL","SERUM","",3,"VISIT 3","TREATMENT","2014-02-24",16
"61","ABC","LB","ABC002",21,"","","","","ALT","Alanine Aminotransferase","CHEMISTRY","LIVER FUNCTION","26","IU/L","7","56","26",26,"IU/L",7,56,"NORMAL","","","CENTRAL","SERUM","",3,"VISIT 3","TREATMENT","2014-02-24",16
"62","ABC","LB","ABC002",22,"","","","","ALP","Alkaline Phosphatase","CHEMISTRY","LIVER FUNCTION","72","IU/L","44","147","72",72,"IU/L",44,147,"NORMAL","","","CENTRAL","SERUM","",3,"VISIT 3","TREATMENT","2014-02-24",16
"63","ABC","LB","ABC002",23,"","","","","CHOL","Cholesterol","CHEMISTRY","LIPID","214","mg/dL","100","200","214",214,"mg/dL",100,200,"HIGH","","","CENTRAL","SERUM","",3,"VISIT 3","TREATMENT","2014-02-24",16
"64","ABC","LB","ABC002",24,"","","","","TRIG","Triglycerides","CHEMISTRY","LIPID","224","mg/dL","0","200","224",224,"mg/dL",0,200,"HIGH","","","CENTRAL","SERUM","",3,"VISIT 3","TREATMENT","2014-02-24",16
"65","ABC","LB","ABC002",25,"","","","","AST","Aspartate Aminotransferase","CHEMISTRY","LIVER FUNCTION","20","IU/L","10","40","20",20,"IU/L",10,40,"NORMAL","","","CENTRAL","SERUM","",4,"VISIT 4","TREATMENT","2014-03-03",23
"66","ABC","LB","ABC002",26,"","","","","CHOL","Cholesterol","CHEMISTRY","LIPID","221","mg/dL","100","200","221",221,"mg/dL",100,200,"HIGH","","","CENTRAL","SERUM","",4,"VISIT 4","TREATMENT","2014-03-03",23
"67","ABC","LB","ABC002",27,"","","","","BILI","Bilirubin","CHEMISTRY","LIVER FUNCTION","1","mg/dL","0.3","1.9","1",1,"mg/dL",0.3,1.9,"NORMAL","","","CENTRAL","SERUM","",4,"VISIT 4","TREATMENT","2014-03-03",23
"68","ABC","LB","ABC002",28,"","","","","ALP","Alkaline Phosphatase","CHEMISTRY","LIVER FUNCTION","88","IU/L","44","147","88",88,"IU/L",44,147,"NORMAL","","","CENTRAL","SERUM","",4,"VISIT 4","TREATMENT","2014-03-03",23
"69","ABC","LB","ABC002",29,"","","","","LDL","LDL Cholesterol","CHEMISTRY","LIPID","170","mg/dL","0","160","170",170,"mg/dL",0,160,"HIGH","","","CENTRAL","SERUM","",4,"VISIT 4","TREATMENT","2014-03-03",23
"70","ABC","LB","ABC002",30,"","","","","ALT","Alanine Aminotransferase","CHEMISTRY","LIVER FUNCTION","34","IU/L","7","56","34",34,"IU/L",7,56,"NORMAL","","","CENTRAL","SERUM","",4,"VISIT 4","TREATMENT","2014-03-03",23
"71","ABC","LB","ABC002",31,"","","","","HDL","HDL Cholesterol","CHEMISTRY","LIPID","42","mg/dL","40","999","42",42,"mg/dL",40,999,"NORMAL","","","CENTRAL","SERUM","",4,"VISIT 4","TREATMENT","2014-03-03",23
"72","ABC","LB","ABC002",32,"","","","","TRIG","Triglycerides","CHEMISTRY","LIPID","226","mg/dL","0","200","226",226,"mg/dL",0,200,"HIGH","","","CENTRAL","SERUM","",4,"VISIT 4","TREATMENT","2014-03-03",23
"73","ABC","LB","ABC002",33,"","","","","TRIG","Triglycerides","CHEMISTRY","LIPID","216","mg/dL","0","200","216",216,"mg/dL",0,200,"HIGH","","","CENTRAL","SERUM","",5,"VISIT 5","TREATMENT","2014-03-09",29
"74","ABC","LB","ABC002",34,"","","","","LDL","LDL Cholesterol","CHEMISTRY","LIPID","169","mg/dL","0","160","169",169,"mg/dL",0,160,"HIGH","","","CENTRAL","SERUM","",5,"VISIT 5","TREATMENT","2014-03-09",29
"75","ABC","LB","ABC002",35,"","","","","HDL","HDL Cholesterol","CHEMISTRY","LIPID","43","mg/dL","40","999","43",43,"mg/dL",40,999,"NORMAL","","","CENTRAL","SERUM","",5,"VISIT 5","TREATMENT","2014-03-09",29
"76","ABC","LB","ABC002",36,"","","","","BILI","Bilirubin","CHEMISTRY","LIVER FUNCTION","0.9","mg/dL","0.3","1.9","0.9",0.9,"mg/dL",0.3,1.9,"NORMAL","","","CENTRAL","SERUM","",5,"VISIT 5","TREATMENT","2014-03-09",29
"77","ABC","LB","ABC002",37,"","","","","ALT","Alanine Aminotransferase","CHEMISTRY","LIVER FUNCTION","32","IU/L","7","56","32",32,"IU/L",7,56,"NORMAL","","","CENTRAL","SERUM","",5,"VISIT 5","TREATMENT","2014-03-09",29
"78","ABC","LB","ABC002",38,"","","","","CHOL","Cholesterol","CHEMISTRY","LIPID","235","mg/dL","100","200","235",235,"mg/dL",100,200,"HIGH","","","CENTRAL","SERUM","",5,"VISIT 5","TREATMENT","2014-03-09",29
"79","ABC","LB","ABC002",39,"","","","","ALP","Alkaline Phosphatase","CHEMISTRY","LIVER FUNCTION","78","IU/L","44","147","78",78,"IU/L",44,147,"NORMAL","","","CENTRAL","SERUM","",5,"VISIT 5","TREATMENT","2014-03-09",29
"80","ABC","LB","ABC002",40,"","","","","AST","Aspartate Aminotransferase","CHEMISTRY","LIVER FUNCTION","29","IU/L","10","40","29",29,"IU/L",10,40,"NORMAL","","","CENTRAL","SERUM","",5,"VISIT 5","TREATMENT","2014-03-09",29
"81","ABC","LB","ABC003",1,"","","","","BILI","Bilirubin","CHEMISTRY","LIVER FUNCTION","0.6","mg/dL","0.3","1.9","0.6",0.6,"mg/dL",0.3,1.9,"NORMAL","","","CENTRAL","SERUM","Y",1,"SCREENING","TREATMENT","2014-05-06",1
"82","ABC","LB","ABC003",2,"","","","","CHOL","Cholesterol","CHEMISTRY","LIPID","214","mg/dL","100","200","214",214,"mg/dL",100,200,"HIGH","","","CENTRAL","SERUM","Y",1,"SCREENING","TREATMENT","2014-05-06",1
"83","ABC","LB","ABC003",3,"","","","","LDL","LDL Cholesterol","CHEMISTRY","LIPID","172","mg/dL","0","160","172",172,"mg/dL",0,160,"HIGH","","","CENTRAL","SERUM","Y",1,"SCREENING","TREATMENT","2014-05-06",1
"84","ABC","LB","ABC003",4,"","","","","TRIG","Triglycerides","CHEMISTRY","LIPID","241","mg/dL","0","200","241",241,"mg/dL",0,200,"HIGH","","","CENTRAL","SERUM","Y",1,"SCREENING","TREATMENT","2014-05-06",1
"85","ABC","LB","ABC003",5,"","","","","ALT","Alanine Aminotransferase","CHEMISTRY","LIVER FUNCTION","31","IU/L","7","56","31",31,"IU/L",7,56,"NORMAL","","","CENTRAL","SERUM","Y",1,"SCREENING","TREATMENT","2014-05-06",1
"86","ABC","LB","ABC003",6,"","","","","AST","Aspartate Aminotransferase","CHEMISTRY","LIVER FUNCTION","24","IU/L","10","40","24",24,"IU/L",10,40,"NORMAL","","","CENTRAL","SERUM","Y",1,"SCREENING","TREATMENT","2014-05-06",1
"87","ABC","LB","ABC003",7,"","","","","HDL","HDL Cholesterol","CHEMISTRY","LIPID","43","mg/dL","40","999","43",43,"mg/dL",40,999,"NORMAL","","","CENTRAL","SERUM","Y",1,"SCREENING","TREATMENT","2014-05-06",1
"88","ABC","LB","ABC003",8,"","","","","ALP","Alkaline Phosphatase","CHEMISTRY","LIVER FUNCTION","75","IU/L","44","147","75",75,"IU/L",44,147,"NORMAL","","","CENTRAL","SERUM","Y",1,"SCREENING","TREATMENT","2014-05-06",1
"89","ABC","LB","ABC003",9,"","","","","TRIG","Triglycerides","CHEMISTRY","LIPID","217","mg/dL","0","200","217",217,"mg/dL",0,200,"HIGH","","","CENTRAL","SERUM","",2,"VISIT 2","TREATMENT","2014-05-13",8
"90","ABC","LB","ABC003",10,"","","","","LDL","LDL Cholesterol","CHEMISTRY","LIPID","168","mg/dL","0","160","168",168,"mg/dL",0,160,"HIGH","","","CENTRAL","SERUM","",2,"VISIT 2","TREATMENT","2014-05-13",8
"91","ABC","LB","ABC003",11,"","","","","BILI","Bilirubin","CHEMISTRY","LIVER FUNCTION","0.6","mg/dL","0.3","1.9","0.6",0.6,"mg/dL",0.3,1.9,"NORMAL","","","CENTRAL","SERUM","",2,"VISIT 2","TREATMENT","2014-05-13",8
"92","ABC","LB","ABC003",12,"","","","","HDL","HDL Cholesterol","CHEMISTRY","LIPID","43","mg/dL","40","999","43",43,"mg/dL",40,999,"NORMAL","","","CENTRAL","SERUM","",2,"VISIT 2","TREATMENT","2014-05-13",8
"93","ABC","LB","ABC003",13,"","","","","ALP","Alkaline Phosphatase","CHEMISTRY","LIVER FUNCTION","85","IU/L","44","147","85",85,"IU/L",44,147,"NORMAL","","","CENTRAL","SERUM","",2,"VISIT 2","TREATMENT","2014-05-13",8
"94","ABC","LB","ABC003",14,"","","","","ALT","Alanine Aminotransferase","CHEMISTRY","LIVER FUNCTION","36","IU/L","7","56","36",36,"IU/L",7,56,"NORMAL","","","CENTRAL","SERUM","",2,"VISIT 2","TREATMENT","2014-05-13",8
"95","ABC","LB","ABC003",15,"","","","","AST","Aspartate Aminotransferase","CHEMISTRY","LIVER FUNCTION","26","IU/L","10","40","26",26,"IU/L",10,40,"NORMAL","","","CENTRAL","SERUM","",2,"VISIT 2","TREATMENT","2014-05-13",8
"96","ABC","LB","ABC003",16,"","","","","CHOL","Cholesterol","CHEMISTRY","LIPID","220","mg/dL","100","200","220",220,"mg/dL",100,200,"HIGH","","","CENTRAL","SERUM","",2,"VISIT 2","TREATMENT","2014-05-13",8
"97","ABC","LB","ABC003",17,"","","","","ALP","Alkaline Phosphatase","CHEMISTRY","LIVER FUNCTION","72","IU/L","44","147","72",72,"IU/L",44,147,"NORMAL","","","CENTRAL","SERUM","",3,"VISIT 3","TREATMENT","2014-05-19",14
"98","ABC","LB","ABC003",18,"","","","","TRIG","Triglycerides","CHEMISTRY","LIPID","219","mg/dL","0","200","219",219,"mg/dL",0,200,"HIGH","","","CENTRAL","SERUM","",3,"VISIT 3","TREATMENT","2014-05-19",14
"99","ABC","LB","ABC003",19,"","","","","CHOL","Cholesterol","CHEMISTRY","LIPID","194","mg/dL","100","200","194",194,"mg/dL",100,200,"NORMAL","","","CENTRAL","SERUM","",3,"VISIT 3","TREATMENT","2014-05-19",14
"100","ABC","LB","ABC003",20,"","","","","HDL","HDL Cholesterol","CHEMISTRY","LIPID","51","mg/dL","40","999","51",51,"mg/dL",40,999,"NORMAL","","","CENTRAL","SERUM","",3,"VISIT 3","TREATMENT","2014-05-19",14
"101","ABC","LB","ABC003",21,"","","","","AST","Aspartate Aminotransferase","CHEMISTRY","LIVER FUNCTION","22","IU/L","10","40","22",22,"IU/L",10,40,"NORMAL","","","CENTRAL","SERUM","",3,"VISIT 3","TREATMENT","2014-05-19",14
"102","ABC","LB","ABC003",22,"","","","","LDL","LDL Cholesterol","CHEMISTRY","LIPID","164","mg/dL","0","160","164",164,"mg/dL",0,160,"HIGH","","","CENTRAL","SERUM","",3,"VISIT 3","TREATMENT","2014-05-19",14
"103","ABC","LB","ABC003",23,"","","","","BILI","Bilirubin","CHEMISTRY","LIVER FUNCTION","0.8","mg/dL","0.3","1.9","0.8",0.8,"mg/dL",0.3,1.9,"NORMAL","","","CENTRAL","SERUM","",3,"VISIT 3","TREATMENT","2014-05-19",14
"104","ABC","LB","ABC003",24,"","","","","ALT","Alanine Aminotransferase","CHEMISTRY","LIVER FUNCTION","29","IU/L","7","56","29",29,"IU/L",7,56,"NORMAL","","","CENTRAL","SERUM","",3,"VISIT 3","TREATMENT","2014-05-19",14
"105","ABC","LB","ABC004",1,"","","","","LDL","LDL Cholesterol","CHEMISTRY","LIPID","172","mg/dL","0","160","172",172,"mg/dL",0,160,"HIGH","","","CENTRAL","SERUM","Y",1,"SCREENING","TREATMENT","2014-02-12",1
"106","ABC","LB","ABC004",2,"","","","","HDL","HDL Cholesterol","CHEMISTRY","LIPID","38","mg/dL","40","999","38",38,"mg/dL",40,999,"LOW","","","CENTRAL","SERUM","Y",1,"SCREENING","TREATMENT","2014-02-12",1
"107","ABC","LB","ABC004",3,"","","","","ALP","Alkaline Phosphatase","CHEMISTRY","LIVER FUNCTION","82","IU/L","44","147","82",82,"IU/L",44,147,"NORMAL","","","CENTRAL","SERUM","Y",1,"SCREENING","TREATMENT","2014-02-12",1
"108","ABC","LB","ABC004",4,"","","","","AST","Aspartate Aminotransferase","CHEMISTRY","LIVER FUNCTION","30","IU/L","10","40","30",30,"IU/L",10,40,"NORMAL","","","CENTRAL","SERUM","Y",1,"SCREENING","TREATMENT","2014-02-12",1
"109","ABC","LB","ABC004",5,"","","","","ALT","Alanine Aminotransferase","CHEMISTRY","LIVER FUNCTION","27","IU/L","7","56","27",27,"IU/L",7,56,"NORMAL","","","CENTRAL","SERUM","Y",1,"SCREENING","TREATMENT","2014-02-12",1
"110","ABC","LB","ABC004",6,"","","","","BILI","Bilirubin","CHEMISTRY","LIVER FUNCTION","1","mg/dL","0.3","1.9","1",1,"mg/dL",0.3,1.9,"NORMAL","","","CENTRAL","SERUM","Y",1,"SCREENING","TREATMENT","2014-02-12",1
"111","ABC","LB","ABC004",7,"","","","","CHOL","Cholesterol","CHEMISTRY","LIPID","221","mg/dL","100","200","221",221,"mg/dL",100,200,"HIGH","","","CENTRAL","SERUM","Y",1,"SCREENING","TREATMENT","2014-02-12",1
"112","ABC","LB","ABC004",8,"","","","","TRIG","Triglycerides","CHEMISTRY","LIPID","213","mg/dL","0","200","213",213,"mg/dL",0,200,"HIGH","","","CENTRAL","SERUM","Y",1,"SCREENING","TREATMENT","2014-02-12",1
"113","ABC","LB","ABC004",9,"","","","","ALP","Alkaline Phosphatase","CHEMISTRY","LIVER FUNCTION","83","IU/L","44","147","83",83,"IU/L",44,147,"NORMAL","","","CENTRAL","SERUM","",2,"VISIT 2","TREATMENT","2014-02-19",8
"114","ABC","LB","ABC004",10,"","","","","LDL","LDL Cholesterol","CHEMISTRY","LIPID","178","mg/dL","0","160","178",178,"mg/dL",0,160,"HIGH","","","CENTRAL","SERUM","",2,"VISIT 2","TREATMENT","2014-02-19",8
"115","ABC","LB","ABC004",11,"","","","","CHOL","Cholesterol","CHEMISTRY","LIPID","223","mg/dL","100","200","223",223,"mg/dL",100,200,"HIGH","","","CENTRAL","SERUM","",2,"VISIT 2","TREATMENT","2014-02-19",8
"116","ABC","LB","ABC004",12,"","","","","HDL","HDL Cholesterol","CHEMISTRY","LIPID","36","mg/dL","40","999","36",36,"mg/dL",40,999,"LOW","","","CENTRAL","SERUM","",2,"VISIT 2","TREATMENT","2014-02-19",8
"117","ABC","LB","ABC004",13,"","","","","TRIG","Triglycerides","CHEMISTRY","LIPID","212","mg/dL","0","200","212",212,"mg/dL",0,200,"HIGH","","","CENTRAL","SERUM","",2,"VISIT 2","TREATMENT","2014-02-19",8
"118","ABC","LB","ABC004",14,"","","","","ALT","Alanine Aminotransferase","CHEMISTRY","LIVER FUNCTION","34","IU/L","7","56","34",34,"IU/L",7,56,"NORMAL","","","CENTRAL","SERUM","",2,"VISIT 2","TREATMENT","2014-02-19",8
"119","ABC","LB","ABC004",15,"","","","","BILI","Bilirubin","CHEMISTRY","LIVER FUNCTION","0.8","mg/dL","0.3","1.9","0.8",0.8,"mg/dL",0.3,1.9,"NORMAL","","","CENTRAL","SERUM","",2,"VISIT 2","TREATMENT","2014-02-19",8
"120","ABC","LB","ABC004",16,"","","","","AST","Aspartate Aminotransferase","CHEMISTRY","LIVER FUNCTION","21","IU/L","10","40","21",21,"IU/L",10,40,"NORMAL","","","CENTRAL","SERUM","",2,"VISIT 2","TREATMENT","2014-02-19",8
"121","ABC","LB","ABC004",17,"","","","","CHOL","Cholesterol","CHEMISTRY","LIPID","214","mg/dL","100","200","214",214,"mg/dL",100,200,"HIGH","","","CENTRAL","SERUM","",3,"VISIT 3","TREATMENT","2014-02-26",15
"122","ABC","LB","ABC004",18,"","","","","TRIG","Triglycerides","CHEMISTRY","LIPID","206","mg/dL","0","200","206",206,"mg/dL",0,200,"HIGH","","","CENTRAL","SERUM","",3,"VISIT 3","TREATMENT","2014-02-26",15
"123","ABC","LB","ABC004",19,"","","","","ALT","Alanine Aminotransferase","CHEMISTRY","LIVER FUNCTION","34","IU/L","7","56","34",34,"IU/L",7,56,"NORMAL","","","CENTRAL","SERUM","",3,"VISIT 3","TREATMENT","2014-02-26",15
"124","ABC","LB","ABC004",20,"","","","","BILI","Bilirubin","CHEMISTRY","LIVER FUNCTION","0.4","mg/dL","0.3","1.9","0.4",0.4,"mg/dL",0.3,1.9,"NORMAL","","","CENTRAL","SERUM","",3,"VISIT 3","TREATMENT","2014-02-26",15
"125","ABC","LB","ABC004",21,"","","","","AST","Aspartate Aminotransferase","CHEMISTRY","LIVER FUNCTION","23","IU/L","10","40","23",23,"IU/L",10,40,"NORMAL","","","CENTRAL","SERUM","",3,"VISIT 3","TREATMENT","2014-02-26",15
"126","ABC","LB","ABC004",22,"","","","","LDL","LDL Cholesterol","CHEMISTRY","LIPID","166","mg/dL","0","160","166",166,"mg/dL",0,160,"HIGH","","","CENTRAL","SERUM","",3,"VISIT 3","TREATMENT","2014-02-26",15
"127","ABC","LB","ABC004",23,"","","","","HDL","HDL Cholesterol","CHEMISTRY","LIPID","57","mg/dL","40","999","57",57,"mg/dL",40,999,"NORMAL","","","CENTRAL","SERUM","",3,"VISIT 3","TREATMENT","2014-02-26",15
"128","ABC","LB","ABC004",24,"","","","","ALP","Alkaline Phosphatase","CHEMISTRY","LIVER FUNCTION","76","IU/L","44","147","76",76,"IU/L",44,147,"NORMAL","","","CENTRAL","SERUM","",3,"VISIT 3","TREATMENT","2014-02-26",15
"129","ABC","LB","ABC004",25,"","","","","CHOL","Cholesterol","CHEMISTRY","LIPID","216","mg/dL","100","200","216",216,"mg/dL",100,200,"HIGH","","","CENTRAL","SERUM","",4,"VISIT 4","TREATMENT","2014-03-04",21
"130","ABC","LB","ABC004",26,"","","","","HDL","HDL Cholesterol","CHEMISTRY","LIPID","46","mg/dL","40","999","46",46,"mg/dL",40,999,"NORMAL","","","CENTRAL","SERUM","",4,"VISIT 4","TREATMENT","2014-03-04",21
"131","ABC","LB","ABC004",27,"","","","","TRIG","Triglycerides","CHEMISTRY","LIPID","203","mg/dL","0","200","203",203,"mg/dL",0,200,"HIGH","","","CENTRAL","SERUM","",4,"VISIT 4","TREATMENT","2014-03-04",21
"132","ABC","LB","ABC004",28,"","","","","ALT","Alanine Aminotransferase","CHEMISTRY","LIVER FUNCTION","32","IU/L","7","56","32",32,"IU/L",7,56,"NORMAL","","","CENTRAL","SERUM","",4,"VISIT 4","TREATMENT","2014-03-04",21
"133","ABC","LB","ABC004",29,"","","","","BILI","Bilirubin","CHEMISTRY","LIVER FUNCTION","0.7","mg/dL","0.3","1.9","0.7",0.7,"mg/dL",0.3,1.9,"NORMAL","","","CENTRAL","SERUM","",4,"VISIT 4","TREATMENT","2014-03-04",21
"134","ABC","LB","ABC004",30,"","","","","AST","Aspartate Aminotransferase","CHEMISTRY","LIVER FUNCTION","23","IU/L","10","40","23",23,"IU/L",10,40,"NORMAL","","","CENTRAL","SERUM","",4,"VISIT 4","TREATMENT","2014-03-04",21
"135","ABC","LB","ABC004",31,"","","","","LDL","LDL Cholesterol","CHEMISTRY","LIPID","160","mg/dL","0","160","160",160,"mg/dL",0,160,"NORMAL","","","CENTRAL","SERUM","",4,"VISIT 4","TREATMENT","2014-03-04",21
"136","ABC","LB","ABC004",32,"","","","","ALP","Alkaline Phosphatase","CHEMISTRY","LIVER FUNCTION","75","IU/L","44","147","75",75,"IU/L",44,147,"NORMAL","","","CENTRAL","SERUM","",4,"VISIT 4","TREATMENT","2014-03-04",21
"137","ABC","LB","ABC004",33,"","","","","TRIG","Triglycerides","CHEMISTRY","LIPID","198","mg/dL","0","200","198",198,"mg/dL",0,200,"NORMAL","","","CENTRAL","SERUM","",5,"VISIT 5","TREATMENT","2014-03-12",29
"138","ABC","LB","ABC004",34,"","","","","CHOL","Cholesterol","CHEMISTRY","LIPID","211","mg/dL","100","200","211",211,"mg/dL",100,200,"HIGH","","","CENTRAL","SERUM","",5,"VISIT 5","TREATMENT","2014-03-12",29
"139","ABC","LB","ABC004",35,"","","","","AST","Aspartate Aminotransferase","CHEMISTRY","LIVER FUNCTION","27","IU/L","10","40","27",27,"IU/L",10,40,"NORMAL","","","CENTRAL","SERUM","",5,"VISIT 5","TREATMENT","2014-03-12",29
"140","ABC","LB","ABC004",36,"","","","","ALT","Alanine Aminotransferase","CHEMISTRY","LIVER FUNCTION","33","IU/L","7","56","33",33,"IU/L",7,56,"NORMAL","","","CENTRAL","SERUM","",5,"VISIT 5","TREATMENT","2014-03-12",29
"141","ABC","LB","ABC004",37,"","","","","BILI","Bilirubin","CHEMISTRY","LIVER FUNCTION","0.7","mg/dL","0.3","1.9","0.7",0.7,"mg/dL",0.3,1.9,"NORMAL","","","CENTRAL","SERUM","",5,"VISIT 5","TREATMENT","2014-03-12",29
"142","ABC","LB","ABC004",38,"","","","","LDL","LDL Cholesterol","CHEMISTRY","LIPID","168","mg/dL","0","160","168",168,"mg/dL",0,160,"HIGH","","","CENTRAL","SERUM","",5,"VISIT 5","TREATMENT","2014-03-12",29
"143","ABC","LB","ABC004",39,"","","","","HDL","HDL Cholesterol","CHEMISTRY","LIPID","54","mg/dL","40","999","54",54,"mg/dL",40,999,"NORMAL","","","CENTRAL","SERUM","",5,"VISIT 5","TREATMENT","2014-03-12",29
"144","ABC","LB","ABC004",40,"","","","","ALP","Alkaline Phosphatase","CHEMISTRY","LIVER FUNCTION","87","IU/L","44","147","87",87,"IU/L",44,147,"NORMAL","","","CENTRAL","SERUM","",5,"VISIT 5","TREATMENT","2014-03-12",29
"145","ABC","LB","ABC005",1,"","","","","ALP","Alkaline Phosphatase","CHEMISTRY","LIVER FUNCTION","74","IU/L","44","147","74",74,"IU/L",44,147,"NORMAL","","","CENTRAL","SERUM","Y",1,"SCREENING","TREATMENT","2014-03-30",1
"146","ABC","LB","ABC005",2,"","","","","CHOL","Cholesterol","CHEMISTRY","LIPID","217","mg/dL","100","200","217",217,"mg/dL",100,200,"HIGH","","","CENTRAL","SERUM","Y",1,"SCREENING","TREATMENT","2014-03-30",1
"147","ABC","LB","ABC005",3,"","","","","HDL","HDL Cholesterol","CHEMISTRY","LIPID","42","mg/dL","40","999","42",42,"mg/dL",40,999,"NORMAL","","","CENTRAL","SERUM","Y",1,"SCREENING","TREATMENT","2014-03-30",1
"148","ABC","LB","ABC005",4,"","","","","TRIG","Triglycerides","CHEMISTRY","LIPID","207","mg/dL","0","200","207",207,"mg/dL",0,200,"HIGH","","","CENTRAL","SERUM","Y",1,"SCREENING","TREATMENT","2014-03-30",1
"149","ABC","LB","ABC005",5,"","","","","ALT","Alanine Aminotransferase","CHEMISTRY","LIVER FUNCTION","43","IU/L","7","56","43",43,"IU/L",7,56,"NORMAL","","","CENTRAL","SERUM","Y",1,"SCREENING","TREATMENT","2014-03-30",1
"150","ABC","LB","ABC005",6,"","","","","BILI","Bilirubin","CHEMISTRY","LIVER FUNCTION","0.8","mg/dL","0.3","1.9","0.8",0.8,"mg/dL",0.3,1.9,"NORMAL","","","CENTRAL","SERUM","Y",1,"SCREENING","TREATMENT","2014-03-30",1
"151","ABC","LB","ABC005",7,"","","","","AST","Aspartate Aminotransferase","CHEMISTRY","LIVER FUNCTION","27","IU/L","10","40","27",27,"IU/L",10,40,"NORMAL","","","CENTRAL","SERUM","Y",1,"SCREENING","TREATMENT","2014-03-30",1
"152","ABC","LB","ABC005",8,"","","","","LDL","LDL Cholesterol","CHEMISTRY","LIPID","172","mg/dL","0","160","172",172,"mg/dL",0,160,"HIGH","","","CENTRAL","SERUM","Y",1,"SCREENING","TREATMENT","2014-03-30",1
"153","ABC","LB","ABC005",9,"","","","","CHOL","Cholesterol","CHEMISTRY","LIPID","214","mg/dL","100","200","214",214,"mg/dL",100,200,"HIGH","","","CENTRAL","SERUM","",2,"VISIT 2","TREATMENT","2014-04-05",7
"154","ABC","LB","ABC005",10,"","","","","TRIG","Triglycerides","CHEMISTRY","LIPID","208","mg/dL","0","200","208",208,"mg/dL",0,200,"HIGH","","","CENTRAL","SERUM","",2,"VISIT 2","TREATMENT","2014-04-05",7
"155","ABC","LB","ABC005",11,"","","","","ALT","Alanine Aminotransferase","CHEMISTRY","LIVER FUNCTION","30","IU/L","7","56","30",30,"IU/L",7,56,"NORMAL","","","CENTRAL","SERUM","",2,"VISIT 2","TREATMENT","2014-04-05",7
"156","ABC","LB","ABC005",12,"","","","","BILI","Bilirubin","CHEMISTRY","LIVER FUNCTION","0.8","mg/dL","0.3","1.9","0.8",0.8,"mg/dL",0.3,1.9,"NORMAL","","","CENTRAL","SERUM","",2,"VISIT 2","TREATMENT","2014-04-05",7
"157","ABC","LB","ABC005",13,"","","","","AST","Aspartate Aminotransferase","CHEMISTRY","LIVER FUNCTION","29","IU/L","10","40","29",29,"IU/L",10,40,"NORMAL","","","CENTRAL","SERUM","",2,"VISIT 2","TREATMENT","2014-04-05",7
"158","ABC","LB","ABC005",14,"","","","","LDL","LDL Cholesterol","CHEMISTRY","LIPID","172","mg/dL","0","160","172",172,"mg/dL",0,160,"HIGH","","","CENTRAL","SERUM","",2,"VISIT 2","TREATMENT","2014-04-05",7
"159","ABC","LB","ABC005",15,"","","","","HDL","HDL Cholesterol","CHEMISTRY","LIPID","50","mg/dL","40","999","50",50,"mg/dL",40,999,"NORMAL","","","CENTRAL","SERUM","",2,"VISIT 2","TREATMENT","2014-04-05",7
"160","ABC","LB","ABC005",16,"","","","","ALP","Alkaline Phosphatase","CHEMISTRY","LIVER FUNCTION","81","IU/L","44","147","81",81,"IU/L",44,147,"NORMAL","","","CENTRAL","SERUM","",2,"VISIT 2","TREATMENT","2014-04-05",7
"161","ABC","LB","ABC005",17,"","","","","CHOL","Cholesterol","CHEMISTRY","LIPID","220","mg/dL","100","200","220",220,"mg/dL",100,200,"HIGH","","","CENTRAL","SERUM","",3,"VISIT 3","TREATMENT","2014-04-14",16
"162","ABC","LB","ABC005",18,"","","","","HDL","HDL Cholesterol","CHEMISTRY","LIPID","52","mg/dL","40","999","52",52,"mg/dL",40,999,"NORMAL","","","CENTRAL","SERUM","",3,"VISIT 3","TREATMENT","2014-04-14",16
"163","ABC","LB","ABC005",19,"","","","","TRIG","Triglycerides","CHEMISTRY","LIPID","204","mg/dL","0","200","204",204,"mg/dL",0,200,"HIGH","","","CENTRAL","SERUM","",3,"VISIT 3","TREATMENT","2014-04-14",16
"164","ABC","LB","ABC005",20,"","","","","ALT","Alanine Aminotransferase","CHEMISTRY","LIVER FUNCTION","29","IU/L","7","56","29",29,"IU/L",7,56,"NORMAL","","","CENTRAL","SERUM","",3,"VISIT 3","TREATMENT","2014-04-14",16
"165","ABC","LB","ABC005",21,"","","","","BILI","Bilirubin","CHEMISTRY","LIVER FUNCTION","0.6","mg/dL","0.3","1.9","0.6",0.6,"mg/dL",0.3,1.9,"NORMAL","","","CENTRAL","SERUM","",3,"VISIT 3","TREATMENT","2014-04-14",16
"166","ABC","LB","ABC005",22,"","","","","AST","Aspartate Aminotransferase","CHEMISTRY","LIVER FUNCTION","29","IU/L","10","40","29",29,"IU/L",10,40,"NORMAL","","","CENTRAL","SERUM","",3,"VISIT 3","TREATMENT","2014-04-14",16
"167","ABC","LB","ABC005",23,"","","","","LDL","LDL Cholesterol","CHEMISTRY","LIPID","163","mg/dL","0","160","163",163,"mg/dL",0,160,"HIGH","","","CENTRAL","SERUM","",3,"VISIT 3","TREATMENT","2014-04-14",16
"168","ABC","LB","ABC005",24,"","","","","ALP","Alkaline Phosphatase","CHEMISTRY","LIVER FUNCTION","88","IU/L","44","147","88",88,"IU/L",44,147,"NORMAL","","","CENTRAL","SERUM","",3,"VISIT 3","TREATMENT","2014-04-14",16
"169","ABC","LB","ABC005",25,"","","","","CHOL","Cholesterol","CHEMISTRY","LIPID","219","mg/dL","100","200","219",219,"mg/dL",100,200,"HIGH","","","CENTRAL","SERUM","",4,"VISIT 4","TREATMENT","2014-04-19",21
"170","ABC","LB","ABC005",26,"","","","","TRIG","Triglycerides","CHEMISTRY","LIPID","203","mg/dL","0","200","203",203,"mg/dL",0,200,"HIGH","","","CENTRAL","SERUM","",4,"VISIT 4","TREATMENT","2014-04-19",21
"171","ABC","LB","ABC005",27,"","","","","AST","Aspartate Aminotransferase","CHEMISTRY","LIVER FUNCTION","17","IU/L","10","40","17",17,"IU/L",10,40,"NORMAL","","","CENTRAL","SERUM","",4,"VISIT 4","TREATMENT","2014-04-19",21
"172","ABC","LB","ABC005",28,"","","","","ALT","Alanine Aminotransferase","CHEMISTRY","LIVER FUNCTION","30","IU/L","7","56","30",30,"IU/L",7,56,"NORMAL","","","CENTRAL","SERUM","",4,"VISIT 4","TREATMENT","2014-04-19",21
"173","ABC","LB","ABC005",29,"","","","","BILI","Bilirubin","CHEMISTRY","LIVER FUNCTION","0.8","mg/dL","0.3","1.9","0.8",0.8,"mg/dL",0.3,1.9,"NORMAL","","","CENTRAL","SERUM","",4,"VISIT 4","TREATMENT","2014-04-19",21
"174","ABC","LB","ABC005",30,"","","","","LDL","LDL Cholesterol","CHEMISTRY","LIPID","164","mg/dL","0","160","164",164,"mg/dL",0,160,"HIGH","","","CENTRAL","SERUM","",4,"VISIT 4","TREATMENT","2014-04-19",21
"175","ABC","LB","ABC005",31,"","","","","HDL","HDL Cholesterol","CHEMISTRY","LIPID","45","mg/dL","40","999","45",45,"mg/dL",40,999,"NORMAL","","","CENTRAL","SERUM","",4,"VISIT 4","TREATMENT","2014-04-19",21
"176","ABC","LB","ABC005",32,"","","","","ALP","Alkaline Phosphatase","CHEMISTRY","LIVER FUNCTION","79","IU/L","44","147","79",79,"IU/L",44,147,"NORMAL","","","CENTRAL","SERUM","",4,"VISIT 4","TREATMENT","2014-04-19",21
"177","ABC","LB","ABC005",33,"","","","","TRIG","Triglycerides","CHEMISTRY","LIPID","196","mg/dL","0","200","196",196,"mg/dL",0,200,"NORMAL","","","CENTRAL","SERUM","",5,"VISIT 5","TREATMENT","2014-04-27",29
"178","ABC","LB","ABC005",34,"","","","","LDL","LDL Cholesterol","CHEMISTRY","LIPID","153","mg/dL","0","160","153",153,"mg/dL",0,160,"NORMAL","","","CENTRAL","SERUM","",5,"VISIT 5","TREATMENT","2014-04-27",29
"179","ABC","LB","ABC005",35,"","","","","AST","Aspartate Aminotransferase","CHEMISTRY","LIVER FUNCTION","22","IU/L","10","40","22",22,"IU/L",10,40,"NORMAL","","","CENTRAL","SERUM","",5,"VISIT 5","TREATMENT","2014-04-27",29
"180","ABC","LB","ABC005",36,"","","","","CHOL","Cholesterol","CHEMISTRY","LIPID","210","mg/dL","100","200","210",210,"mg/dL",100,200,"HIGH","","","CENTRAL","SERUM","",5,"VISIT 5","TREATMENT","2014-04-27",29
"181","ABC","LB","ABC005",37,"","","","","ALT","Alanine Aminotransferase","CHEMISTRY","LIVER FUNCTION","37","IU/L","7","56","37",37,"IU/L",7,56,"NORMAL","","","CENTRAL","SERUM","",5,"VISIT 5","TREATMENT","2014-04-27",29
"182","ABC","LB","ABC005",38,"","","","","BILI","Bilirubin","CHEMISTRY","LIVER FUNCTION","0.9","mg/dL","0.3","1.9","0.9",0.9,"mg/dL",0.3,1.9,"NORMAL","","","CENTRAL","SERUM","",5,"VISIT 5","TREATMENT","2014-04-27",29
"183","ABC","LB","ABC005",39,"","","","","ALP","Alkaline Phosphatase","CHEMISTRY","LIVER FUNCTION","81","IU/L","44","147","81",81,"IU/L",44,147,"NORMAL","","","CENTRAL","SERUM","",5,"VISIT 5","TREATMENT","2014-04-27",29
"184","ABC","LB","ABC005",40,"","","","","HDL","HDL Cholesterol","CHEMISTRY","LIPID","49","mg/dL","40","999","49",49,"mg/dL",40,999,"NORMAL","","","CENTRAL","SERUM","",5,"VISIT 5","TREATMENT","2014-04-27",29
"185","ABC","LB","ABC006",1,"","","","","LDL","LDL Cholesterol","CHEMISTRY","LIPID","161","mg/dL","0","160","161",161,"mg/dL",0,160,"HIGH","","","CENTRAL","SERUM","Y",1,"SCREENING","TREATMENT","2014-02-09",1
"186","ABC","LB","ABC006",2,"","","","","TRIG","Triglycerides","CHEMISTRY","LIPID","228","mg/dL","0","200","228",228,"mg/dL",0,200,"HIGH","","","CENTRAL","SERUM","Y",1,"SCREENING","TREATMENT","2014-02-09",1
"187","ABC","LB","ABC006",3,"","","","","CHOL","Cholesterol","CHEMISTRY","LIPID","211","mg/dL","100","200","211",211,"mg/dL",100,200,"HIGH","","","CENTRAL","SERUM","Y",1,"SCREENING","TREATMENT","2014-02-09",1
"188","ABC","LB","ABC006",4,"","","","","ALP","Alkaline Phosphatase","CHEMISTRY","LIVER FUNCTION","77","IU/L","44","147","77",77,"IU/L",44,147,"NORMAL","","","CENTRAL","SERUM","Y",1,"SCREENING","TREATMENT","2014-02-09",1
"189","ABC","LB","ABC006",5,"","","","","HDL","HDL Cholesterol","CHEMISTRY","LIPID","41","mg/dL","40","999","41",41,"mg/dL",40,999,"NORMAL","","","CENTRAL","SERUM","Y",1,"SCREENING","TREATMENT","2014-02-09",1
"190","ABC","LB","ABC006",6,"","","","","BILI","Bilirubin","CHEMISTRY","LIVER FUNCTION","0.3","mg/dL","0.3","1.9","0.3",0.3,"mg/dL",0.3,1.9,"NORMAL","","","CENTRAL","SERUM","Y",1,"SCREENING","TREATMENT","2014-02-09",1
"191","ABC","LB","ABC006",7,"","","","","ALT","Alanine Aminotransferase","CHEMISTRY","LIVER FUNCTION","31","IU/L","7","56","31",31,"IU/L",7,56,"NORMAL","","","CENTRAL","SERUM","Y",1,"SCREENING","TREATMENT","2014-02-09",1
"192","ABC","LB","ABC006",8,"","","","","AST","Aspartate Aminotransferase","CHEMISTRY","LIVER FUNCTION","31","IU/L","10","40","31",31,"IU/L",10,40,"NORMAL","","","CENTRAL","SERUM","Y",1,"SCREENING","TREATMENT","2014-02-09",1
"193","ABC","LB","ABC006",9,"","","","","TRIG","Triglycerides","CHEMISTRY","LIPID","200","mg/dL","0","200","200",200,"mg/dL",0,200,"NORMAL","","","CENTRAL","SERUM","",2,"VISIT 2","TREATMENT","2014-02-17",9
"194","ABC","LB","ABC006",10,"","","","","LDL","LDL Cholesterol","CHEMISTRY","LIPID","169","mg/dL","0","160","169",169,"mg/dL",0,160,"HIGH","","","CENTRAL","SERUM","",2,"VISIT 2","TREATMENT","2014-02-17",9
"195","ABC","LB","ABC006",11,"","","","","BILI","Bilirubin","CHEMISTRY","LIVER FUNCTION","0.6","mg/dL","0.3","1.9","0.6",0.6,"mg/dL",0.3,1.9,"NORMAL","","","CENTRAL","SERUM","",2,"VISIT 2","TREATMENT","2014-02-17",9
"196","ABC","LB","ABC006",12,"","","","","CHOL","Cholesterol","CHEMISTRY","LIPID","199","mg/dL","100","200","199",199,"mg/dL",100,200,"NORMAL","","","CENTRAL","SERUM","",2,"VISIT 2","TREATMENT","2014-02-17",9
"197","ABC","LB","ABC006",13,"","","","","ALP","Alkaline Phosphatase","CHEMISTRY","LIVER FUNCTION","67","IU/L","44","147","67",67,"IU/L",44,147,"NORMAL","","","CENTRAL","SERUM","",2,"VISIT 2","TREATMENT","2014-02-17",9
"198","ABC","LB","ABC006",14,"","","","","HDL","HDL Cholesterol","CHEMISTRY","LIPID","42","mg/dL","40","999","42",42,"mg/dL",40,999,"NORMAL","","","CENTRAL","SERUM","",2,"VISIT 2","TREATMENT","2014-02-17",9
"199","ABC","LB","ABC006",15,"","","","","ALT","Alanine Aminotransferase","CHEMISTRY","LIVER FUNCTION","32","IU/L","7","56","32",32,"IU/L",7,56,"NORMAL","","","CENTRAL","SERUM","",2,"VISIT 2","TREATMENT","2014-02-17",9
"200","ABC","LB","ABC006",16,"","","","","AST","Aspartate Aminotransferase","CHEMISTRY","LIVER FUNCTION","25","IU/L","10","40","25",25,"IU/L",10,40,"NORMAL","","","CENTRAL","SERUM","",2,"VISIT 2","TREATMENT","2014-02-17",9
"201","ABC","LB","ABC006",17,"","","","","TRIG","Triglycerides","CHEMISTRY","LIPID","213","mg/dL","0","200","213",213,"mg/dL",0,200,"HIGH","","","CENTRAL","SERUM","",3,"VISIT 3","TREATMENT","2014-02-23",15
"202","ABC","LB","ABC006",18,"","","","","LDL","LDL Cholesterol","CHEMISTRY","LIPID","163","mg/dL","0","160","163",163,"mg/dL",0,160,"HIGH","","","CENTRAL","SERUM","",3,"VISIT 3","TREATMENT","2014-02-23",15
"203","ABC","LB","ABC006",19,"","","","","HDL","HDL Cholesterol","CHEMISTRY","LIPID","50","mg/dL","40","999","50",50,"mg/dL",40,999,"NORMAL","","","CENTRAL","SERUM","",3,"VISIT 3","TREATMENT","2014-02-23",15
"204","ABC","LB","ABC006",20,"","","","","BILI","Bilirubin","CHEMISTRY","LIVER FUNCTION","0.6","mg/dL","0.3","1.9","0.6",0.6,"mg/dL",0.3,1.9,"NORMAL","","","CENTRAL","SERUM","",3,"VISIT 3","TREATMENT","2014-02-23",15
"205","ABC","LB","ABC006",21,"","","","","CHOL","Cholesterol","CHEMISTRY","LIPID","207","mg/dL","100","200","207",207,"mg/dL",100,200,"HIGH","","","CENTRAL","SERUM","",3,"VISIT 3","TREATMENT","2014-02-23",15
"206","ABC","LB","ABC006",22,"","","","","ALP","Alkaline Phosphatase","CHEMISTRY","LIVER FUNCTION","82","IU/L","44","147","82",82,"IU/L",44,147,"NORMAL","","","CENTRAL","SERUM","",3,"VISIT 3","TREATMENT","2014-02-23",15
"207","ABC","LB","ABC006",23,"","","","","ALT","Alanine Aminotransferase","CHEMISTRY","LIVER FUNCTION","29","IU/L","7","56","29",29,"IU/L",7,56,"NORMAL","","","CENTRAL","SERUM","",3,"VISIT 3","TREATMENT","2014-02-23",15
"208","ABC","LB","ABC006",24,"","","","","AST","Aspartate Aminotransferase","CHEMISTRY","LIVER FUNCTION","39","IU/L","10","40","39",39,"IU/L",10,40,"NORMAL","","","CENTRAL","SERUM","",3,"VISIT 3","TREATMENT","2014-02-23",15
"209","ABC","LB","ABC006",25,"","","","","AST","Aspartate Aminotransferase","CHEMISTRY","LIVER FUNCTION","24","IU/L","10","40","24",24,"IU/L",10,40,"NORMAL","","","CENTRAL","SERUM","",4,"VISIT 4","TREATMENT","2014-03-01",21
"210","ABC","LB","ABC006",26,"","","","","BILI","Bilirubin","CHEMISTRY","LIVER FUNCTION","0.8","mg/dL","0.3","1.9","0.8",0.8,"mg/dL",0.3,1.9,"NORMAL","","","CENTRAL","SERUM","",4,"VISIT 4","TREATMENT","2014-03-01",21
"211","ABC","LB","ABC006",27,"","","","","TRIG","Triglycerides","CHEMISTRY","LIPID","201","mg/dL","0","200","201",201,"mg/dL",0,200,"HIGH","","","CENTRAL","SERUM","",4,"VISIT 4","TREATMENT","2014-03-01",21
"212","ABC","LB","ABC006",28,"","","","","HDL","HDL Cholesterol","CHEMISTRY","LIPID","46","mg/dL","40","999","46",46,"mg/dL",40,999,"NORMAL","","","CENTRAL","SERUM","",4,"VISIT 4","TREATMENT","2014-03-01",21
"213","ABC","LB","ABC006",29,"","","","","CHOL","Cholesterol","CHEMISTRY","LIPID","208","mg/dL","100","200","208",208,"mg/dL",100,200,"HIGH","","","CENTRAL","SERUM","",4,"VISIT 4","TREATMENT","2014-03-01",21
"214","ABC","LB","ABC006",30,"","","","","ALP","Alkaline Phosphatase","CHEMISTRY","LIVER FUNCTION","74","IU/L","44","147","74",74,"IU/L",44,147,"NORMAL","","","CENTRAL","SERUM","",4,"VISIT 4","TREATMENT","2014-03-01",21
"215","ABC","LB","ABC006",31,"","","","","LDL","LDL Cholesterol","CHEMISTRY","LIPID","164","mg/dL","0","160","164",164,"mg/dL",0,160,"HIGH","","","CENTRAL","SERUM","",4,"VISIT 4","TREATMENT","2014-03-01",21
"216","ABC","LB","ABC006",32,"","","","","ALT","Alanine Aminotransferase","CHEMISTRY","LIVER FUNCTION","33","IU/L","7","56","33",33,"IU/L",7,56,"NORMAL","","","CENTRAL","SERUM","",4,"VISIT 4","TREATMENT","2014-03-01",21
"217","ABC","LB","ABC006",33,"","","","","TRIG","Triglycerides","CHEMISTRY","LIPID","202","mg/dL","0","200","202",202,"mg/dL",0,200,"HIGH","","","CENTRAL","SERUM","",5,"VISIT 5","TREATMENT","2014-03-08",28
"218","ABC","LB","ABC006",34,"","","","","CHOL","Cholesterol","CHEMISTRY","LIPID","206","mg/dL","100","200","206",206,"mg/dL",100,200,"HIGH","","","CENTRAL","SERUM","",5,"VISIT 5","TREATMENT","2014-03-08",28
"219","ABC","LB","ABC006",35,"","","","","ALP","Alkaline Phosphatase","CHEMISTRY","LIVER FUNCTION","75","IU/L","44","147","75",75,"IU/L",44,147,"NORMAL","","","CENTRAL","SERUM","",5,"VISIT 5","TREATMENT","2014-03-08",28
"220","ABC","LB","ABC006",36,"","","","","BILI","Bilirubin","CHEMISTRY","LIVER FUNCTION","1","mg/dL","0.3","1.9","1",1,"mg/dL",0.3,1.9,"NORMAL","","","CENTRAL","SERUM","",5,"VISIT 5","TREATMENT","2014-03-08",28
"221","ABC","LB","ABC006",37,"","","","","ALT","Alanine Aminotransferase","CHEMISTRY","LIVER FUNCTION","34","IU/L","7","56","34",34,"IU/L",7,56,"NORMAL","","","CENTRAL","SERUM","",5,"VISIT 5","TREATMENT","2014-03-08",28
"222","ABC","LB","ABC006",38,"","","","","LDL","LDL Cholesterol","CHEMISTRY","LIPID","159","mg/dL","0","160","159",159,"mg/dL",0,160,"NORMAL","","","CENTRAL","SERUM","",5,"VISIT 5","TREATMENT","2014-03-08",28
"223","ABC","LB","ABC006",39,"","","","","HDL","HDL Cholesterol","CHEMISTRY","LIPID","54","mg/dL","40","999","54",54,"mg/dL",40,999,"NORMAL","","","CENTRAL","SERUM","",5,"VISIT 5","TREATMENT","2014-03-08",28
"224","ABC","LB","ABC006",40,"","","","","AST","Aspartate Aminotransferase","CHEMISTRY","LIVER FUNCTION","21","IU/L","10","40","21",21,"IU/L",10,40,"NORMAL","","","CENTRAL","SERUM","",5,"VISIT 5","TREATMENT","2014-03-08",28
"225","ABC","LB","ABC007",1,"","","","","TRIG","Triglycerides","CHEMISTRY","LIPID","207","mg/dL","0","200","207",207,"mg/dL",0,200,"HIGH","","","CENTRAL","SERUM","Y",1,"SCREENING","TREATMENT","2014-01-25",1
"226","ABC","LB","ABC007",2,"","","","","LDL","LDL Cholesterol","CHEMISTRY","LIPID","167","mg/dL","0","160","167",167,"mg/dL",0,160,"HIGH","","","CENTRAL","SERUM","Y",1,"SCREENING","TREATMENT","2014-01-25",1
"227","ABC","LB","ABC007",3,"","","","","ALT","Alanine Aminotransferase","CHEMISTRY","LIVER FUNCTION","31","IU/L","7","56","31",31,"IU/L",7,56,"NORMAL","","","CENTRAL","SERUM","Y",1,"SCREENING","TREATMENT","2014-01-25",1
"228","ABC","LB","ABC007",4,"","","","","CHOL","Cholesterol","CHEMISTRY","LIPID","225","mg/dL","100","200","225",225,"mg/dL",100,200,"HIGH","","","CENTRAL","SERUM","Y",1,"SCREENING","TREATMENT","2014-01-25",1
"229","ABC","LB","ABC007",5,"","","","","AST","Aspartate Aminotransferase","CHEMISTRY","LIVER FUNCTION","23","IU/L","10","40","23",23,"IU/L",10,40,"NORMAL","","","CENTRAL","SERUM","Y",1,"SCREENING","TREATMENT","2014-01-25",1
"230","ABC","LB","ABC007",6,"","","","","BILI","Bilirubin","CHEMISTRY","LIVER FUNCTION","0.6","mg/dL","0.3","1.9","0.6",0.6,"mg/dL",0.3,1.9,"NORMAL","","","CENTRAL","SERUM","Y",1,"SCREENING","TREATMENT","2014-01-25",1
"231","ABC","LB","ABC007",7,"","","","","ALP","Alkaline Phosphatase","CHEMISTRY","LIVER FUNCTION","63","IU/L","44","147","63",63,"IU/L",44,147,"NORMAL","","","CENTRAL","SERUM","Y",1,"SCREENING","TREATMENT","2014-01-25",1
"232","ABC","LB","ABC007",8,"","","","","HDL","HDL Cholesterol","CHEMISTRY","LIPID","48","mg/dL","40","999","48",48,"mg/dL",40,999,"NORMAL","","","CENTRAL","SERUM","Y",1,"SCREENING","TREATMENT","2014-01-25",1
"233","ABC","LB","ABC007",9,"","","","","HDL","HDL Cholesterol","CHEMISTRY","LIPID","44","mg/dL","40","999","44",44,"mg/dL",40,999,"NORMAL","","","CENTRAL","SERUM","",2,"VISIT 2","TREATMENT","2014-02-02",9
"234","ABC","LB","ABC007",10,"","","","","LDL","LDL Cholesterol","CHEMISTRY","LIPID","181","mg/dL","0","160","181",181,"mg/dL",0,160,"HIGH","","","CENTRAL","SERUM","",2,"VISIT 2","TREATMENT","2014-02-02",9
"235","ABC","LB","ABC007",11,"","","","","ALT","Alanine Aminotransferase","CHEMISTRY","LIVER FUNCTION","36","IU/L","7","56","36",36,"IU/L",7,56,"NORMAL","","","CENTRAL","SERUM","",2,"VISIT 2","TREATMENT","2014-02-02",9
"236","ABC","LB","ABC007",12,"","","","","BILI","Bilirubin","CHEMISTRY","LIVER FUNCTION","0.9","mg/dL","0.3","1.9","0.9",0.9,"mg/dL",0.3,1.9,"NORMAL","","","CENTRAL","SERUM","",2,"VISIT 2","TREATMENT","2014-02-02",9
"237","ABC","LB","ABC007",13,"","","","","ALP","Alkaline Phosphatase","CHEMISTRY","LIVER FUNCTION","78","IU/L","44","147","78",78,"IU/L",44,147,"NORMAL","","","CENTRAL","SERUM","",2,"VISIT 2","TREATMENT","2014-02-02",9
"238","ABC","LB","ABC007",14,"","","","","CHOL","Cholesterol","CHEMISTRY","LIPID","223","mg/dL","100","200","223",223,"mg/dL",100,200,"HIGH","","","CENTRAL","SERUM","",2,"VISIT 2","TREATMENT","2014-02-02",9
"239","ABC","LB","ABC007",15,"","","","","AST","Aspartate Aminotransferase","CHEMISTRY","LIVER FUNCTION","29","IU/L","10","40","29",29,"IU/L",10,40,"NORMAL","","","CENTRAL","SERUM","",2,"VISIT 2","TREATMENT","2014-02-02",9
"240","ABC","LB","ABC007",16,"","","","","TRIG","Triglycerides","CHEMISTRY","LIPID","210","mg/dL","0","200","210",210,"mg/dL",0,200,"HIGH","","","CENTRAL","SERUM","",2,"VISIT 2","TREATMENT","2014-02-02",9
"241","ABC","LB","ABC007",17,"","","","","LDL","LDL Cholesterol","CHEMISTRY","LIPID","164","mg/dL","0","160","164",164,"mg/dL",0,160,"HIGH","","","CENTRAL","SERUM","",3,"VISIT 3","TREATMENT","2014-02-09",16
"242","ABC","LB","ABC007",18,"","","","","HDL","HDL Cholesterol","CHEMISTRY","LIPID","39","mg/dL","40","999","39",39,"mg/dL",40,999,"LOW","","","CENTRAL","SERUM","",3,"VISIT 3","TREATMENT","2014-02-09",16
"243","ABC","LB","ABC007",19,"","","","","TRIG","Triglycerides","CHEMISTRY","LIPID","211","mg/dL","0","200","211",211,"mg/dL",0,200,"HIGH","","","CENTRAL","SERUM","",3,"VISIT 3","TREATMENT","2014-02-09",16
"244","ABC","LB","ABC007",20,"","","","","BILI","Bilirubin","CHEMISTRY","LIVER FUNCTION","1.1","mg/dL","0.3","1.9","1.1",1.1,"mg/dL",0.3,1.9,"NORMAL","","","CENTRAL","SERUM","",3,"VISIT 3","TREATMENT","2014-02-09",16
"245","ABC","LB","ABC007",21,"","","","","AST","Aspartate Aminotransferase","CHEMISTRY","LIVER FUNCTION","34","IU/L","10","40","34",34,"IU/L",10,40,"NORMAL","","","CENTRAL","SERUM","",3,"VISIT 3","TREATMENT","2014-02-09",16
"246","ABC","LB","ABC007",22,"","","","","ALT","Alanine Aminotransferase","CHEMISTRY","LIVER FUNCTION","41","IU/L","7","56","41",41,"IU/L",7,56,"NORMAL","","","CENTRAL","SERUM","",3,"VISIT 3","TREATMENT","2014-02-09",16
"247","ABC","LB","ABC007",23,"","","","","ALP","Alkaline Phosphatase","CHEMISTRY","LIVER FUNCTION","73","IU/L","44","147","73",73,"IU/L",44,147,"NORMAL","","","CENTRAL","SERUM","",3,"VISIT 3","TREATMENT","2014-02-09",16
"248","ABC","LB","ABC007",24,"","","","","CHOL","Cholesterol","CHEMISTRY","LIPID","200","mg/dL","100","200","200",200,"mg/dL",100,200,"NORMAL","","","CENTRAL","SERUM","",3,"VISIT 3","TREATMENT","2014-02-09",16
"249","ABC","LB","ABC007",25,"","","","","TRIG","Triglycerides","CHEMISTRY","LIPID","204","mg/dL","0","200","204",204,"mg/dL",0,200,"HIGH","","","CENTRAL","SERUM","",4,"VISIT 4","TREATMENT","2014-02-14",21
"250","ABC","LB","ABC007",26,"","","","","LDL","LDL Cholesterol","CHEMISTRY","LIPID","159","mg/dL","0","160","159",159,"mg/dL",0,160,"NORMAL","","","CENTRAL","SERUM","",4,"VISIT 4","TREATMENT","2014-02-14",21
"251","ABC","LB","ABC007",27,"","","","","HDL","HDL Cholesterol","CHEMISTRY","LIPID","48","mg/dL","40","999","48",48,"mg/dL",40,999,"NORMAL","","","CENTRAL","SERUM","",4,"VISIT 4","TREATMENT","2014-02-14",21
"252","ABC","LB","ABC007",28,"","","","","BILI","Bilirubin","CHEMISTRY","LIVER FUNCTION","0.8","mg/dL","0.3","1.9","0.8",0.8,"mg/dL",0.3,1.9,"NORMAL","","","CENTRAL","SERUM","",4,"VISIT 4","TREATMENT","2014-02-14",21
"253","ABC","LB","ABC007",29,"","","","","AST","Aspartate Aminotransferase","CHEMISTRY","LIVER FUNCTION","15","IU/L","10","40","15",15,"IU/L",10,40,"NORMAL","","","CENTRAL","SERUM","",4,"VISIT 4","TREATMENT","2014-02-14",21
"254","ABC","LB","ABC007",30,"","","","","ALT","Alanine Aminotransferase","CHEMISTRY","LIVER FUNCTION","32","IU/L","7","56","32",32,"IU/L",7,56,"NORMAL","","","CENTRAL","SERUM","",4,"VISIT 4","TREATMENT","2014-02-14",21
"255","ABC","LB","ABC007",31,"","","","","ALP","Alkaline Phosphatase","CHEMISTRY","LIVER FUNCTION","83","IU/L","44","147","83",83,"IU/L",44,147,"NORMAL","","","CENTRAL","SERUM","",4,"VISIT 4","TREATMENT","2014-02-14",21
"256","ABC","LB","ABC007",32,"","","","","CHOL","Cholesterol","CHEMISTRY","LIPID","208","mg/dL","100","200","208",208,"mg/dL",100,200,"HIGH","","","CENTRAL","SERUM","",4,"VISIT 4","TREATMENT","2014-02-14",21
"257","ABC","LB","ABC007",33,"","","","","LDL","LDL Cholesterol","CHEMISTRY","LIPID","159","mg/dL","0","160","159",159,"mg/dL",0,160,"NORMAL","","","CENTRAL","SERUM","",5,"VISIT 5","TREATMENT","2014-02-21",28
"258","ABC","LB","ABC007",34,"","","","","HDL","HDL Cholesterol","CHEMISTRY","LIPID","46","mg/dL","40","999","46",46,"mg/dL",40,999,"NORMAL","","","CENTRAL","SERUM","",5,"VISIT 5","TREATMENT","2014-02-21",28
"259","ABC","LB","ABC007",35,"","","","","TRIG","Triglycerides","CHEMISTRY","LIPID","196","mg/dL","0","200","196",196,"mg/dL",0,200,"NORMAL","","","CENTRAL","SERUM","",5,"VISIT 5","TREATMENT","2014-02-21",28
"260","ABC","LB","ABC007",36,"","","","","BILI","Bilirubin","CHEMISTRY","LIVER FUNCTION","1.1","mg/dL","0.3","1.9","1.1",1.1,"mg/dL",0.3,1.9,"NORMAL","","","CENTRAL","SERUM","",5,"VISIT 5","TREATMENT","2014-02-21",28
"261","ABC","LB","ABC007",37,"","","","","AST","Aspartate Aminotransferase","CHEMISTRY","LIVER FUNCTION","41","IU/L","10","40","41",41,"IU/L",10,40,"HIGH","","","CENTRAL","SERUM","",5,"VISIT 5","TREATMENT","2014-02-21",28
"262","ABC","LB","ABC007",38,"","","","","ALT","Alanine Aminotransferase","CHEMISTRY","LIVER FUNCTION","35","IU/L","7","56","35",35,"IU/L",7,56,"NORMAL","","","CENTRAL","SERUM","",5,"VISIT 5","TREATMENT","2014-02-21",28
"263","ABC","LB","ABC007",39,"","","","","ALP","Alkaline Phosphatase","CHEMISTRY","LIVER FUNCTION","82","IU/L","44","147","82",82,"IU/L",44,147,"NORMAL","","","CENTRAL","SERUM","",5,"VISIT 5","TREATMENT","2014-02-21",28
"264","ABC","LB","ABC007",40,"","","","","CHOL","Cholesterol","CHEMISTRY","LIPID","197","mg/dL","100","200","197",197,"mg/dL",100,200,"NORMAL","","","CENTRAL","SERUM","",5,"VISIT 5","TREATMENT","2014-02-21",28
"265","ABC","LB","ABC008",1,"","","","","LDL","LDL Cholesterol","CHEMISTRY","LIPID","177","mg/dL","0","160","177",177,"mg/dL",0,160,"HIGH","","","CENTRAL","SERUM","Y",1,"SCREENING","TREATMENT","2014-02-15",1
"266","ABC","LB","ABC008",2,"","","","","HDL","HDL Cholesterol","CHEMISTRY","LIPID","39","mg/dL","40","999","39",39,"mg/dL",40,999,"LOW","","","CENTRAL","SERUM","Y",1,"SCREENING","TREATMENT","2014-02-15",1
"267","ABC","LB","ABC008",3,"","","","","BILI","Bilirubin","CHEMISTRY","LIVER FUNCTION","0.8","mg/dL","0.3","1.9","0.8",0.8,"mg/dL",0.3,1.9,"NORMAL","","","CENTRAL","SERUM","Y",1,"SCREENING","TREATMENT","2014-02-15",1
"268","ABC","LB","ABC008",4,"","","","","TRIG","Triglycerides","CHEMISTRY","LIPID","206","mg/dL","0","200","206",206,"mg/dL",0,200,"HIGH","","","CENTRAL","SERUM","Y",1,"SCREENING","TREATMENT","2014-02-15",1
"269","ABC","LB","ABC008",5,"","","","","AST","Aspartate Aminotransferase","CHEMISTRY","LIVER FUNCTION","18","IU/L","10","40","18",18,"IU/L",10,40,"NORMAL","","","CENTRAL","SERUM","Y",1,"SCREENING","TREATMENT","2014-02-15",1
"270","ABC","LB","ABC008",6,"","","","","ALT","Alanine Aminotransferase","CHEMISTRY","LIVER FUNCTION","34","IU/L","7","56","34",34,"IU/L",7,56,"NORMAL","","","CENTRAL","SERUM","Y",1,"SCREENING","TREATMENT","2014-02-15",1
"271","ABC","LB","ABC008",7,"","","","","ALP","Alkaline Phosphatase","CHEMISTRY","LIVER FUNCTION","77","IU/L","44","147","77",77,"IU/L",44,147,"NORMAL","","","CENTRAL","SERUM","Y",1,"SCREENING","TREATMENT","2014-02-15",1
"272","ABC","LB","ABC008",8,"","","","","CHOL","Cholesterol","CHEMISTRY","LIPID","216","mg/dL","100","200","216",216,"mg/dL",100,200,"HIGH","","","CENTRAL","SERUM","Y",1,"SCREENING","TREATMENT","2014-02-15",1
"273","ABC","LB","ABC008",9,"","","","","LDL","LDL Cholesterol","CHEMISTRY","LIPID","179","mg/dL","0","160","179",179,"mg/dL",0,160,"HIGH","","","CENTRAL","SERUM","",2,"VISIT 2","TREATMENT","2014-02-21",7
"274","ABC","LB","ABC008",10,"","","","","HDL","HDL Cholesterol","CHEMISTRY","LIPID","31","mg/dL","40","999","31",31,"mg/dL",40,999,"LOW","","","CENTRAL","SERUM","",2,"VISIT 2","TREATMENT","2014-02-21",7
"275","ABC","LB","ABC008",11,"","","","","TRIG","Triglycerides","CHEMISTRY","LIPID","222","mg/dL","0","200","222",222,"mg/dL",0,200,"HIGH","","","CENTRAL","SERUM","",2,"VISIT 2","TREATMENT","2014-02-21",7
"276","ABC","LB","ABC008",12,"","","","","BILI","Bilirubin","CHEMISTRY","LIVER FUNCTION","0.6","mg/dL","0.3","1.9","0.6",0.6,"mg/dL",0.3,1.9,"NORMAL","","","CENTRAL","SERUM","",2,"VISIT 2","TREATMENT","2014-02-21",7
"277","ABC","LB","ABC008",13,"","","","","AST","Aspartate Aminotransferase","CHEMISTRY","LIVER FUNCTION","26","IU/L","10","40","26",26,"IU/L",10,40,"NORMAL","","","CENTRAL","SERUM","",2,"VISIT 2","TREATMENT","2014-02-21",7
"278","ABC","LB","ABC008",14,"","","","","ALT","Alanine Aminotransferase","CHEMISTRY","LIVER FUNCTION","23","IU/L","7","56","23",23,"IU/L",7,56,"NORMAL","","","CENTRAL","SERUM","",2,"VISIT 2","TREATMENT","2014-02-21",7
"279","ABC","LB","ABC008",15,"","","","","ALP","Alkaline Phosphatase","CHEMISTRY","LIVER FUNCTION","68","IU/L","44","147","68",68,"IU/L",44,147,"NORMAL","","","CENTRAL","SERUM","",2,"VISIT 2","TREATMENT","2014-02-21",7
"280","ABC","LB","ABC008",16,"","","","","CHOL","Cholesterol","CHEMISTRY","LIPID","223","mg/dL","100","200","223",223,"mg/dL",100,200,"HIGH","","","CENTRAL","SERUM","",2,"VISIT 2","TREATMENT","2014-02-21",7
"281","ABC","LB","ABC008",17,"","","","","TRIG","Triglycerides","CHEMISTRY","LIPID","214","mg/dL","0","200","214",214,"mg/dL",0,200,"HIGH","","","CENTRAL","SERUM","",3,"VISIT 3","TREATMENT","2014-02-28",14
"282","ABC","LB","ABC008",18,"","","","","LDL","LDL Cholesterol","CHEMISTRY","LIPID","171","mg/dL","0","160","171",171,"mg/dL",0,160,"HIGH","","","CENTRAL","SERUM","",3,"VISIT 3","TREATMENT","2014-02-28",14
"283","ABC","LB","ABC008",19,"","","","","HDL","HDL Cholesterol","CHEMISTRY","LIPID","44","mg/dL","40","999","44",44,"mg/dL",40,999,"NORMAL","","","CENTRAL","SERUM","",3,"VISIT 3","TREATMENT","2014-02-28",14
"284","ABC","LB","ABC008",20,"","","","","BILI","Bilirubin","CHEMISTRY","LIVER FUNCTION","1.1","mg/dL","0.3","1.9","1.1",1.1,"mg/dL",0.3,1.9,"NORMAL","","","CENTRAL","SERUM","",3,"VISIT 3","TREATMENT","2014-02-28",14
"285","ABC","LB","ABC008",21,"","","","","AST","Aspartate Aminotransferase","CHEMISTRY","LIVER FUNCTION","20","IU/L","10","40","20",20,"IU/L",10,40,"NORMAL","","","CENTRAL","SERUM","",3,"VISIT 3","TREATMENT","2014-02-28",14
"286","ABC","LB","ABC008",22,"","","","","ALT","Alanine Aminotransferase","CHEMISTRY","LIVER FUNCTION","30","IU/L","7","56","30",30,"IU/L",7,56,"NORMAL","","","CENTRAL","SERUM","",3,"VISIT 3","TREATMENT","2014-02-28",14
"287","ABC","LB","ABC008",23,"","","","","ALP","Alkaline Phosphatase","CHEMISTRY","LIVER FUNCTION","78","IU/L","44","147","78",78,"IU/L",44,147,"NORMAL","","","CENTRAL","SERUM","",3,"VISIT 3","TREATMENT","2014-02-28",14
"288","ABC","LB","ABC008",24,"","","","","CHOL","Cholesterol","CHEMISTRY","LIPID","216","mg/dL","100","200","216",216,"mg/dL",100,200,"HIGH","","","CENTRAL","SERUM","",3,"VISIT 3","TREATMENT","2014-02-28",14
"289","ABC","LB","ABC008",25,"","","","","LDL","LDL Cholesterol","CHEMISTRY","LIPID","175","mg/dL","0","160","175",175,"mg/dL",0,160,"HIGH","","","CENTRAL","SERUM","",4,"VISIT 4","TREATMENT","2014-03-09",23
"290","ABC","LB","ABC008",26,"","","","","HDL","HDL Cholesterol","CHEMISTRY","LIPID","39","mg/dL","40","999","39",39,"mg/dL",40,999,"LOW","","","CENTRAL","SERUM","",4,"VISIT 4","TREATMENT","2014-03-09",23
"291","ABC","LB","ABC008",27,"","","","","TRIG","Triglycerides","CHEMISTRY","LIPID","218","mg/dL","0","200","218",218,"mg/dL",0,200,"HIGH","","","CENTRAL","SERUM","",4,"VISIT 4","TREATMENT","2014-03-09",23
"292","ABC","LB","ABC008",28,"","","","","BILI","Bilirubin","CHEMISTRY","LIVER FUNCTION","1.1","mg/dL","0.3","1.9","1.1",1.1,"mg/dL",0.3,1.9,"NORMAL","","","CENTRAL","SERUM","",4,"VISIT 4","TREATMENT","2014-03-09",23
"293","ABC","LB","ABC008",29,"","","","","AST","Aspartate Aminotransferase","CHEMISTRY","LIVER FUNCTION","26","IU/L","10","40","26",26,"IU/L",10,40,"NORMAL","","","CENTRAL","SERUM","",4,"VISIT 4","TREATMENT","2014-03-09",23
"294","ABC","LB","ABC008",30,"","","","","ALT","Alanine Aminotransferase","CHEMISTRY","LIVER FUNCTION","31","IU/L","7","56","31",31,"IU/L",7,56,"NORMAL","","","CENTRAL","SERUM","",4,"VISIT 4","TREATMENT","2014-03-09",23
"295","ABC","LB","ABC008",31,"","","","","ALP","Alkaline Phosphatase","CHEMISTRY","LIVER FUNCTION","78","IU/L","44","147","78",78,"IU/L",44,147,"NORMAL","","","CENTRAL","SERUM","",4,"VISIT 4","TREATMENT","2014-03-09",23
"296","ABC","LB","ABC008",32,"","","","","CHOL","Cholesterol","CHEMISTRY","LIPID","204","mg/dL","100","200","204",204,"mg/dL",100,200,"HIGH","","","CENTRAL","SERUM","",4,"VISIT 4","TREATMENT","2014-03-09",23
"297","ABC","LB","ABC008",33,"","","","","TRIG","Triglycerides","CHEMISTRY","LIPID","189","mg/dL","0","200","189",189,"mg/dL",0,200,"NORMAL","","","CENTRAL","SERUM","",5,"VISIT 5","TREATMENT","2014-03-14",28
"298","ABC","LB","ABC008",34,"","","","","HDL","HDL Cholesterol","CHEMISTRY","LIPID","41","mg/dL","40","999","41",41,"mg/dL",40,999,"NORMAL","","","CENTRAL","SERUM","",5,"VISIT 5","TREATMENT","2014-03-14",28
"299","ABC","LB","ABC008",35,"","","","","CHOL","Cholesterol","CHEMISTRY","LIPID","202","mg/dL","100","200","202",202,"mg/dL",100,200,"HIGH","","","CENTRAL","SERUM","",5,"VISIT 5","TREATMENT","2014-03-14",28
"300","ABC","LB","ABC008",36,"","","","","BILI","Bilirubin","CHEMISTRY","LIVER FUNCTION","0.9","mg/dL","0.3","1.9","0.9",0.9,"mg/dL",0.3,1.9,"NORMAL","","","CENTRAL","SERUM","",5,"VISIT 5","TREATMENT","2014-03-14",28
"301","ABC","LB","ABC008",37,"","","","","AST","Aspartate Aminotransferase","CHEMISTRY","LIVER FUNCTION","17","IU/L","10","40","17",17,"IU/L",10,40,"NORMAL","","","CENTRAL","SERUM","",5,"VISIT 5","TREATMENT","2014-03-14",28
"302","ABC","LB","ABC008",38,"","","","","ALT","Alanine Aminotransferase","CHEMISTRY","LIVER FUNCTION","42","IU/L","7","56","42",42,"IU/L",7,56,"NORMAL","","","CENTRAL","SERUM","",5,"VISIT 5","TREATMENT","2014-03-14",28
"303","ABC","LB","ABC008",39,"","","","","ALP","Alkaline Phosphatase","CHEMISTRY","LIVER FUNCTION","85","IU/L","44","147","85",85,"IU/L",44,147,"NORMAL","","","CENTRAL","SERUM","",5,"VISIT 5","TREATMENT","2014-03-14",28
"304","ABC","LB","ABC008",40,"","","","","LDL","LDL Cholesterol","CHEMISTRY","LIPID","175","mg/dL","0","160","175",175,"mg/dL",0,160,"HIGH","","","CENTRAL","SERUM","",5,"VISIT 5","TREATMENT","2014-03-14",28
"305","ABC","LB","ABC009",1,"","","","","CHOL","Cholesterol","CHEMISTRY","LIPID","230","mg/dL","100","200","230",230,"mg/dL",100,200,"HIGH","","","CENTRAL","SERUM","Y",1,"SCREENING","TREATMENT","2014-05-24",1
"306","ABC","LB","ABC009",2,"","","","","LDL","LDL Cholesterol","CHEMISTRY","LIPID","180","mg/dL","0","160","180",180,"mg/dL",0,160,"HIGH","","","CENTRAL","SERUM","Y",1,"SCREENING","TREATMENT","2014-05-24",1
"307","ABC","LB","ABC009",3,"","","","","TRIG","Triglycerides","CHEMISTRY","LIPID","226","mg/dL","0","200","226",226,"mg/dL",0,200,"HIGH","","","CENTRAL","SERUM","Y",1,"SCREENING","TREATMENT","2014-05-24",1
"308","ABC","LB","ABC009",4,"","","","","BILI","Bilirubin","CHEMISTRY","LIVER FUNCTION","0.5","mg/dL","0.3","1.9","0.5",0.5,"mg/dL",0.3,1.9,"NORMAL","","","CENTRAL","SERUM","Y",1,"SCREENING","TREATMENT","2014-05-24",1
"309","ABC","LB","ABC009",5,"","","","","AST","Aspartate Aminotransferase","CHEMISTRY","LIVER FUNCTION","27","IU/L","10","40","27",27,"IU/L",10,40,"NORMAL","","","CENTRAL","SERUM","Y",1,"SCREENING","TREATMENT","2014-05-24",1
"310","ABC","LB","ABC009",6,"","","","","ALP","Alkaline Phosphatase","CHEMISTRY","LIVER FUNCTION","74","IU/L","44","147","74",74,"IU/L",44,147,"NORMAL","","","CENTRAL","SERUM","Y",1,"SCREENING","TREATMENT","2014-05-24",1
"311","ABC","LB","ABC009",7,"","","","","ALT","Alanine Aminotransferase","CHEMISTRY","LIVER FUNCTION","34","IU/L","7","56","34",34,"IU/L",7,56,"NORMAL","","","CENTRAL","SERUM","Y",1,"SCREENING","TREATMENT","2014-05-24",1
"312","ABC","LB","ABC009",8,"","","","","HDL","HDL Cholesterol","CHEMISTRY","LIPID","42","mg/dL","40","999","42",42,"mg/dL",40,999,"NORMAL","","","CENTRAL","SERUM","Y",1,"SCREENING","TREATMENT","2014-05-24",1
"313","ABC","LB","ABC009",9,"","","","","TRIG","Triglycerides","CHEMISTRY","LIPID","227","mg/dL","0","200","227",227,"mg/dL",0,200,"HIGH","","","CENTRAL","SERUM","",2,"VISIT 2","TREATMENT","2014-05-31",8
"314","ABC","LB","ABC009",10,"","","","","CHOL","Cholesterol","CHEMISTRY","LIPID","228","mg/dL","100","200","228",228,"mg/dL",100,200,"HIGH","","","CENTRAL","SERUM","",2,"VISIT 2","TREATMENT","2014-05-31",8
"315","ABC","LB","ABC009",11,"","","","","LDL","LDL Cholesterol","CHEMISTRY","LIPID","169","mg/dL","0","160","169",169,"mg/dL",0,160,"HIGH","","","CENTRAL","SERUM","",2,"VISIT 2","TREATMENT","2014-05-31",8
"316","ABC","LB","ABC009",12,"","","","","BILI","Bilirubin","CHEMISTRY","LIVER FUNCTION","0.5","mg/dL","0.3","1.9","0.5",0.5,"mg/dL",0.3,1.9,"NORMAL","","","CENTRAL","SERUM","",2,"VISIT 2","TREATMENT","2014-05-31",8
"317","ABC","LB","ABC009",13,"","","","","AST","Aspartate Aminotransferase","CHEMISTRY","LIVER FUNCTION","20","IU/L","10","40","20",20,"IU/L",10,40,"NORMAL","","","CENTRAL","SERUM","",2,"VISIT 2","TREATMENT","2014-05-31",8
"318","ABC","LB","ABC009",14,"","","","","ALP","Alkaline Phosphatase","CHEMISTRY","LIVER FUNCTION","77","IU/L","44","147","77",77,"IU/L",44,147,"NORMAL","","","CENTRAL","SERUM","",2,"VISIT 2","TREATMENT","2014-05-31",8
"319","ABC","LB","ABC009",15,"","","","","ALT","Alanine Aminotransferase","CHEMISTRY","LIVER FUNCTION","30","IU/L","7","56","30",30,"IU/L",7,56,"NORMAL","","","CENTRAL","SERUM","",2,"VISIT 2","TREATMENT","2014-05-31",8
"320","ABC","LB","ABC009",16,"","","","","HDL","HDL Cholesterol","CHEMISTRY","LIPID","51","mg/dL","40","999","51",51,"mg/dL",40,999,"NORMAL","","","CENTRAL","SERUM","",2,"VISIT 2","TREATMENT","2014-05-31",8
"321","ABC","LB","ABC009",17,"","","","","CHOL","Cholesterol","CHEMISTRY","LIPID","190","mg/dL","100","200","190",190,"mg/dL",100,200,"NORMAL","","","CENTRAL","SERUM","",3,"VISIT 3","TREATMENT","2014-06-08",16
"322","ABC","LB","ABC009",18,"","","","","LDL","LDL Cholesterol","CHEMISTRY","LIPID","156","mg/dL","0","160","156",156,"mg/dL",0,160,"NORMAL","","","CENTRAL","SERUM","",3,"VISIT 3","TREATMENT","2014-06-08",16
"323","ABC","LB","ABC009",19,"","","","","TRIG","Triglycerides","CHEMISTRY","LIPID","218","mg/dL","0","200","218",218,"mg/dL",0,200,"HIGH","","","CENTRAL","SERUM","",3,"VISIT 3","TREATMENT","2014-06-08",16
"324","ABC","LB","ABC009",20,"","","","","BILI","Bilirubin","CHEMISTRY","LIVER FUNCTION","0.6","mg/dL","0.3","1.9","0.6",0.6,"mg/dL",0.3,1.9,"NORMAL","","","CENTRAL","SERUM","",3,"VISIT 3","TREATMENT","2014-06-08",16
"325","ABC","LB","ABC009",21,"","","","","AST","Aspartate Aminotransferase","CHEMISTRY","LIVER FUNCTION","25","IU/L","10","40","25",25,"IU/L",10,40,"NORMAL","","","CENTRAL","SERUM","",3,"VISIT 3","TREATMENT","2014-06-08",16
"326","ABC","LB","ABC009",22,"","","","","ALP","Alkaline Phosphatase","CHEMISTRY","LIVER FUNCTION","78","IU/L","44","147","78",78,"IU/L",44,147,"NORMAL","","","CENTRAL","SERUM","",3,"VISIT 3","TREATMENT","2014-06-08",16
"327","ABC","LB","ABC009",23,"","","","","ALT","Alanine Aminotransferase","CHEMISTRY","LIVER FUNCTION","31","IU/L","7","56","31",31,"IU/L",7,56,"NORMAL","","","CENTRAL","SERUM","",3,"VISIT 3","TREATMENT","2014-06-08",16
"328","ABC","LB","ABC009",24,"","","","","HDL","HDL Cholesterol","CHEMISTRY","LIPID","51","mg/dL","40","999","51",51,"mg/dL",40,999,"NORMAL","","","CENTRAL","SERUM","",3,"VISIT 3","TREATMENT","2014-06-08",16
"329","ABC","LB","ABC009",25,"","","","","CHOL","Cholesterol","CHEMISTRY","LIPID","229","mg/dL","100","200","229",229,"mg/dL",100,200,"HIGH","","","CENTRAL","SERUM","",4,"VISIT 4","TREATMENT","2014-06-14",22
"330","ABC","LB","ABC009",26,"","","","","LDL","LDL Cholesterol","CHEMISTRY","LIPID","163","mg/dL","0","160","163",163,"mg/dL",0,160,"HIGH","","","CENTRAL","SERUM","",4,"VISIT 4","TREATMENT","2014-06-14",22
"331","ABC","LB","ABC009",27,"","","","","BILI","Bilirubin","CHEMISTRY","LIVER FUNCTION","0.9","mg/dL","0.3","1.9","0.9",0.9,"mg/dL",0.3,1.9,"NORMAL","","","CENTRAL","SERUM","",4,"VISIT 4","TREATMENT","2014-06-14",22
"332","ABC","LB","ABC009",28,"","","","","TRIG","Triglycerides","CHEMISTRY","LIPID","214","mg/dL","0","200","214",214,"mg/dL",0,200,"HIGH","","","CENTRAL","SERUM","",4,"VISIT 4","TREATMENT","2014-06-14",22
"333","ABC","LB","ABC009",29,"","","","","AST","Aspartate Aminotransferase","CHEMISTRY","LIVER FUNCTION","35","IU/L","10","40","35",35,"IU/L",10,40,"NORMAL","","","CENTRAL","SERUM","",4,"VISIT 4","TREATMENT","2014-06-14",22
"334","ABC","LB","ABC009",30,"","","","","ALP","Alkaline Phosphatase","CHEMISTRY","LIVER FUNCTION","77","IU/L","44","147","77",77,"IU/L",44,147,"NORMAL","","","CENTRAL","SERUM","",4,"VISIT 4","TREATMENT","2014-06-14",22
"335","ABC","LB","ABC009",31,"","","","","ALT","Alanine Aminotransferase","CHEMISTRY","LIVER FUNCTION","33","IU/L","7","56","33",33,"IU/L",7,56,"NORMAL","","","CENTRAL","SERUM","",4,"VISIT 4","TREATMENT","2014-06-14",22
"336","ABC","LB","ABC009",32,"","","","","HDL","HDL Cholesterol","CHEMISTRY","LIPID","50","mg/dL","40","999","50",50,"mg/dL",40,999,"NORMAL","","","CENTRAL","SERUM","",4,"VISIT 4","TREATMENT","2014-06-14",22
"337","ABC","LB","ABC009",33,"","","","","CHOL","Cholesterol","CHEMISTRY","LIPID","204","mg/dL","100","200","204",204,"mg/dL",100,200,"HIGH","","","CENTRAL","SERUM","",5,"VISIT 5","TREATMENT","2014-06-21",29
"338","ABC","LB","ABC009",34,"","","","","LDL","LDL Cholesterol","CHEMISTRY","LIPID","172","mg/dL","0","160","172",172,"mg/dL",0,160,"HIGH","","","CENTRAL","SERUM","",5,"VISIT 5","TREATMENT","2014-06-21",29
"339","ABC","LB","ABC009",35,"","","","","TRIG","Triglycerides","CHEMISTRY","LIPID","207","mg/dL","0","200","207",207,"mg/dL",0,200,"HIGH","","","CENTRAL","SERUM","",5,"VISIT 5","TREATMENT","2014-06-21",29
"340","ABC","LB","ABC009",36,"","","","","BILI","Bilirubin","CHEMISTRY","LIVER FUNCTION","0.6","mg/dL","0.3","1.9","0.6",0.6,"mg/dL",0.3,1.9,"NORMAL","","","CENTRAL","SERUM","",5,"VISIT 5","TREATMENT","2014-06-21",29
"341","ABC","LB","ABC009",37,"","","","","AST","Aspartate Aminotransferase","CHEMISTRY","LIVER FUNCTION","22","IU/L","10","40","22",22,"IU/L",10,40,"NORMAL","","","CENTRAL","SERUM","",5,"VISIT 5","TREATMENT","2014-06-21",29
"342","ABC","LB","ABC009",38,"","","","","ALP","Alkaline Phosphatase","CHEMISTRY","LIVER FUNCTION","78","IU/L","44","147","78",78,"IU/L",44,147,"NORMAL","","","CENTRAL","SERUM","",5,"VISIT 5","TREATMENT","2014-06-21",29
"343","ABC","LB","ABC009",39,"","","","","ALT","Alanine Aminotransferase","CHEMISTRY","LIVER FUNCTION","38","IU/L","7","56","38",38,"IU/L",7,56,"NORMAL","","","CENTRAL","SERUM","",5,"VISIT 5","TREATMENT","2014-06-21",29
"344","ABC","LB","ABC009",40,"","","","","HDL","HDL Cholesterol","CHEMISTRY","LIPID","48","mg/dL","40","999","48",48,"mg/dL",40,999,"NORMAL","","","CENTRAL","SERUM","",5,"VISIT 5","TREATMENT","2014-06-21",29
"345","ABC","LB","ABC010",1,"","","","","TRIG","Triglycerides","CHEMISTRY","LIPID","232","mg/dL","0","200","232",232,"mg/dL",0,200,"HIGH","","","CENTRAL","SERUM","Y",1,"SCREENING","TREATMENT","2014-02-25",1
"346","ABC","LB","ABC010",2,"","","","","LDL","LDL Cholesterol","CHEMISTRY","LIPID","169","mg/dL","0","160","169",169,"mg/dL",0,160,"HIGH","","","CENTRAL","SERUM","Y",1,"SCREENING","TREATMENT","2014-02-25",1
"347","ABC","LB","ABC010",3,"","","","","HDL","HDL Cholesterol","CHEMISTRY","LIPID","53","mg/dL","40","999","53",53,"mg/dL",40,999,"NORMAL","","","CENTRAL","SERUM","Y",1,"SCREENING","TREATMENT","2014-02-25",1
"348","ABC","LB","ABC010",4,"","","","","BILI","Bilirubin","CHEMISTRY","LIVER FUNCTION","0.8","mg/dL","0.3","1.9","0.8",0.8,"mg/dL",0.3,1.9,"NORMAL","","","CENTRAL","SERUM","Y",1,"SCREENING","TREATMENT","2014-02-25",1
"349","ABC","LB","ABC010",5,"","","","","AST","Aspartate Aminotransferase","CHEMISTRY","LIVER FUNCTION","21","IU/L","10","40","21",21,"IU/L",10,40,"NORMAL","","","CENTRAL","SERUM","Y",1,"SCREENING","TREATMENT","2014-02-25",1
"350","ABC","LB","ABC010",6,"","","","","ALT","Alanine Aminotransferase","CHEMISTRY","LIVER FUNCTION","31","IU/L","7","56","31",31,"IU/L",7,56,"NORMAL","","","CENTRAL","SERUM","Y",1,"SCREENING","TREATMENT","2014-02-25",1
"351","ABC","LB","ABC010",7,"","","","","ALP","Alkaline Phosphatase","CHEMISTRY","LIVER FUNCTION","68","IU/L","44","147","68",68,"IU/L",44,147,"NORMAL","","","CENTRAL","SERUM","Y",1,"SCREENING","TREATMENT","2014-02-25",1
"352","ABC","LB","ABC010",8,"","","","","CHOL","Cholesterol","CHEMISTRY","LIPID","203","mg/dL","100","200","203",203,"mg/dL",100,200,"HIGH","","","CENTRAL","SERUM","Y",1,"SCREENING","TREATMENT","2014-02-25",1
"353","ABC","LB","ABC010",9,"","","","","LDL","LDL Cholesterol","CHEMISTRY","LIPID","160","mg/dL","0","160","160",160,"mg/dL",0,160,"NORMAL","","","CENTRAL","SERUM","",2,"VISIT 2","TREATMENT","2014-03-05",9
"354","ABC","LB","ABC010",10,"","","","","HDL","HDL Cholesterol","CHEMISTRY","LIPID","45","mg/dL","40","999","45",45,"mg/dL",40,999,"NORMAL","","","CENTRAL","SERUM","",2,"VISIT 2","TREATMENT","2014-03-05",9
"355","ABC","LB","ABC010",11,"","","","","TRIG","Triglycerides","CHEMISTRY","LIPID","220","mg/dL","0","200","220",220,"mg/dL",0,200,"HIGH","","","CENTRAL","SERUM","",2,"VISIT 2","TREATMENT","2014-03-05",9
"356","ABC","LB","ABC010",12,"","","","","BILI","Bilirubin","CHEMISTRY","LIVER FUNCTION","0.9","mg/dL","0.3","1.9","0.9",0.9,"mg/dL",0.3,1.9,"NORMAL","","","CENTRAL","SERUM","",2,"VISIT 2","TREATMENT","2014-03-05",9
"357","ABC","LB","ABC010",13,"","","","","AST","Aspartate Aminotransferase","CHEMISTRY","LIVER FUNCTION","12","IU/L","10","40","12",12,"IU/L",10,40,"NORMAL","","","CENTRAL","SERUM","",2,"VISIT 2","TREATMENT","2014-03-05",9
"358","ABC","LB","ABC010",14,"","","","","ALT","Alanine Aminotransferase","CHEMISTRY","LIVER FUNCTION","26","IU/L","7","56","26",26,"IU/L",7,56,"NORMAL","","","CENTRAL","SERUM","",2,"VISIT 2","TREATMENT","2014-03-05",9
"359","ABC","LB","ABC010",15,"","","","","ALP","Alkaline Phosphatase","CHEMISTRY","LIVER FUNCTION","71","IU/L","44","147","71",71,"IU/L",44,147,"NORMAL","","","CENTRAL","SERUM","",2,"VISIT 2","TREATMENT","2014-03-05",9
"360","ABC","LB","ABC010",16,"","","","","CHOL","Cholesterol","CHEMISTRY","LIPID","225","mg/dL","100","200","225",225,"mg/dL",100,200,"HIGH","","","CENTRAL","SERUM","",2,"VISIT 2","TREATMENT","2014-03-05",9
"361","ABC","LB","ABC010",17,"","","","","LDL","LDL Cholesterol","CHEMISTRY","LIPID","168","mg/dL","0","160","168",168,"mg/dL",0,160,"HIGH","","","CENTRAL","SERUM","",3,"VISIT 3","TREATMENT","2014-03-10",14
"362","ABC","LB","ABC010",18,"","","","","TRIG","Triglycerides","CHEMISTRY","LIPID","211","mg/dL","0","200","211",211,"mg/dL",0,200,"HIGH","","","CENTRAL","SERUM","",3,"VISIT 3","TREATMENT","2014-03-10",14
"363","ABC","LB","ABC010",19,"","","","","HDL","HDL Cholesterol","CHEMISTRY","LIPID","53","mg/dL","40","999","53",53,"mg/dL",40,999,"NORMAL","","","CENTRAL","SERUM","",3,"VISIT 3","TREATMENT","2014-03-10",14
"364","ABC","LB","ABC010",20,"","","","","BILI","Bilirubin","CHEMISTRY","LIVER FUNCTION","0.4","mg/dL","0.3","1.9","0.4",0.4,"mg/dL",0.3,1.9,"NORMAL","","","CENTRAL","SERUM","",3,"VISIT 3","TREATMENT","2014-03-10",14
"365","ABC","LB","ABC010",21,"","","","","AST","Aspartate Aminotransferase","CHEMISTRY","LIVER FUNCTION","23","IU/L","10","40","23",23,"IU/L",10,40,"NORMAL","","","CENTRAL","SERUM","",3,"VISIT 3","TREATMENT","2014-03-10",14
"366","ABC","LB","ABC010",22,"","","","","ALT","Alanine Aminotransferase","CHEMISTRY","LIVER FUNCTION","34","IU/L","7","56","34",34,"IU/L",7,56,"NORMAL","","","CENTRAL","SERUM","",3,"VISIT 3","TREATMENT","2014-03-10",14
"367","ABC","LB","ABC010",23,"","","","","ALP","Alkaline Phosphatase","CHEMISTRY","LIVER FUNCTION","64","IU/L","44","147","64",64,"IU/L",44,147,"NORMAL","","","CENTRAL","SERUM","",3,"VISIT 3","TREATMENT","2014-03-10",14
"368","ABC","LB","ABC010",24,"","","","","CHOL","Cholesterol","CHEMISTRY","LIPID","194","mg/dL","100","200","194",194,"mg/dL",100,200,"NORMAL","","","CENTRAL","SERUM","",3,"VISIT 3","TREATMENT","2014-03-10",14
"369","ABC","LB","ABC010",25,"","","","","LDL","LDL Cholesterol","CHEMISTRY","LIPID","169","mg/dL","0","160","169",169,"mg/dL",0,160,"HIGH","","","CENTRAL","SERUM","",4,"VISIT 4","TREATMENT","2014-03-19",23
"370","ABC","LB","ABC010",26,"","","","","TRIG","Triglycerides","CHEMISTRY","LIPID","197","mg/dL","0","200","197",197,"mg/dL",0,200,"NORMAL","","","CENTRAL","SERUM","",4,"VISIT 4","TREATMENT","2014-03-19",23
"371","ABC","LB","ABC010",27,"","","","","CHOL","Cholesterol","CHEMISTRY","LIPID","213","mg/dL","100","200","213",213,"mg/dL",100,200,"HIGH","","","CENTRAL","SERUM","",4,"VISIT 4","TREATMENT","2014-03-19",23
"372","ABC","LB","ABC010",28,"","","","","BILI","Bilirubin","CHEMISTRY","LIVER FUNCTION","1","mg/dL","0.3","1.9","1",1,"mg/dL",0.3,1.9,"NORMAL","","","CENTRAL","SERUM","",4,"VISIT 4","TREATMENT","2014-03-19",23
"373","ABC","LB","ABC010",29,"","","","","AST","Aspartate Aminotransferase","CHEMISTRY","LIVER FUNCTION","28","IU/L","10","40","28",28,"IU/L",10,40,"NORMAL","","","CENTRAL","SERUM","",4,"VISIT 4","TREATMENT","2014-03-19",23
"374","ABC","LB","ABC010",30,"","","","","HDL","HDL Cholesterol","CHEMISTRY","LIPID","47","mg/dL","40","999","47",47,"mg/dL",40,999,"NORMAL","","","CENTRAL","SERUM","",4,"VISIT 4","TREATMENT","2014-03-19",23
"375","ABC","LB","ABC010",31,"","","","","ALT","Alanine Aminotransferase","CHEMISTRY","LIVER FUNCTION","33","IU/L","7","56","33",33,"IU/L",7,56,"NORMAL","","","CENTRAL","SERUM","",4,"VISIT 4","TREATMENT","2014-03-19",23
"376","ABC","LB","ABC010",32,"","","","","ALP","Alkaline Phosphatase","CHEMISTRY","LIVER FUNCTION","76","IU/L","44","147","76",76,"IU/L",44,147,"NORMAL","","","CENTRAL","SERUM","",4,"VISIT 4","TREATMENT","2014-03-19",23
"377","ABC","LB","ABC010",33,"","","","","TRIG","Triglycerides","CHEMISTRY","LIPID","207","mg/dL","0","200","207",207,"mg/dL",0,200,"HIGH","","","CENTRAL","SERUM","",5,"VISIT 5","TREATMENT","2014-03-24",28
"378","ABC","LB","ABC010",34,"","","","","BILI","Bilirubin","CHEMISTRY","LIVER FUNCTION","0.5","mg/dL","0.3","1.9","0.5",0.5,"mg/dL",0.3,1.9,"NORMAL","","","CENTRAL","SERUM","",5,"VISIT 5","TREATMENT","2014-03-24",28
"379","ABC","LB","ABC010",35,"","","","","CHOL","Cholesterol","CHEMISTRY","LIPID","216","mg/dL","100","200","216",216,"mg/dL",100,200,"HIGH","","","CENTRAL","SERUM","",5,"VISIT 5","TREATMENT","2014-03-24",28
"380","ABC","LB","ABC010",36,"","","","","HDL","HDL Cholesterol","CHEMISTRY","LIPID","53","mg/dL","40","999","53",53,"mg/dL",40,999,"NORMAL","","","CENTRAL","SERUM","",5,"VISIT 5","TREATMENT","2014-03-24",28
"381","ABC","LB","ABC010",37,"","","","","LDL","LDL Cholesterol","CHEMISTRY","LIPID","150","mg/dL","0","160","150",150,"mg/dL",0,160,"NORMAL","","","CENTRAL","SERUM","",5,"VISIT 5","TREATMENT","2014-03-24",28
"382","ABC","LB","ABC010",38,"","","","","ALT","Alanine Aminotransferase","CHEMISTRY","LIVER FUNCTION","28","IU/L","7","56","28",28,"IU/L",7,56,"NORMAL","","","CENTRAL","SERUM","",5,"VISIT 5","TREATMENT","2014-03-24",28
"383","ABC","LB","ABC010",39,"","","","","ALP","Alkaline Phosphatase","CHEMISTRY","LIVER FUNCTION","73","IU/L","44","147","73",73,"IU/L",44,147,"NORMAL","","","CENTRAL","SERUM","",5,"VISIT 5","TREATMENT","2014-03-24",28
"384","ABC","LB","ABC010",40,"","","","","AST","Aspartate Aminotransferase","CHEMISTRY","LIVER FUNCTION","21","IU/L","10","40","21",21,"IU/L",10,40,"NORMAL","","","CENTRAL","SERUM","",5,"VISIT 5","TREATMENT","2014-03-24",28
"385","ABC","LB","ABC011",1,"","","","","TRIG","Triglycerides","CHEMISTRY","LIPID","210","mg/dL","0","200","210",210,"mg/dL",0,200,"HIGH","","","CENTRAL","SERUM","Y",1,"SCREENING","TREATMENT","2014-01-26",1
"386","ABC","LB","ABC011",2,"","","","","ALT","Alanine Aminotransferase","CHEMISTRY","LIVER FUNCTION","30","IU/L","7","56","30",30,"IU/L",7,56,"NORMAL","","","CENTRAL","SERUM","Y",1,"SCREENING","TREATMENT","2014-01-26",1
"387","ABC","LB","ABC011",3,"","","","","HDL","HDL Cholesterol","CHEMISTRY","LIPID","48","mg/dL","40","999","48",48,"mg/dL",40,999,"NORMAL","","","CENTRAL","SERUM","Y",1,"SCREENING","TREATMENT","2014-01-26",1
"388","ABC","LB","ABC011",4,"","","","","LDL","LDL Cholesterol","CHEMISTRY","LIPID","177","mg/dL","0","160","177",177,"mg/dL",0,160,"HIGH","","","CENTRAL","SERUM","Y",1,"SCREENING","TREATMENT","2014-01-26",1
"389","ABC","LB","ABC011",5,"","","","","BILI","Bilirubin","CHEMISTRY","LIVER FUNCTION","0.5","mg/dL","0.3","1.9","0.5",0.5,"mg/dL",0.3,1.9,"NORMAL","","","CENTRAL","SERUM","Y",1,"SCREENING","TREATMENT","2014-01-26",1
"390","ABC","LB","ABC011",6,"","","","","CHOL","Cholesterol","CHEMISTRY","LIPID","214","mg/dL","100","200","214",214,"mg/dL",100,200,"HIGH","","","CENTRAL","SERUM","Y",1,"SCREENING","TREATMENT","2014-01-26",1
"391","ABC","LB","ABC011",7,"","","","","ALP","Alkaline Phosphatase","CHEMISTRY","LIVER FUNCTION","78","IU/L","44","147","78",78,"IU/L",44,147,"NORMAL","","","CENTRAL","SERUM","Y",1,"SCREENING","TREATMENT","2014-01-26",1
"392","ABC","LB","ABC011",8,"","","","","AST","Aspartate Aminotransferase","CHEMISTRY","LIVER FUNCTION","24","IU/L","10","40","24",24,"IU/L",10,40,"NORMAL","","","CENTRAL","SERUM","Y",1,"SCREENING","TREATMENT","2014-01-26",1
"393","ABC","LB","ABC011",9,"","","","","TRIG","Triglycerides","CHEMISTRY","LIPID","202","mg/dL","0","200","202",202,"mg/dL",0,200,"HIGH","","","CENTRAL","SERUM","",2,"VISIT 2","TREATMENT","2014-02-03",9
"394","ABC","LB","ABC011",10,"","","","","BILI","Bilirubin","CHEMISTRY","LIVER FUNCTION","0.7","mg/dL","0.3","1.9","0.7",0.7,"mg/dL",0.3,1.9,"NORMAL","","","CENTRAL","SERUM","",2,"VISIT 2","TREATMENT","2014-02-03",9
"395","ABC","LB","ABC011",11,"","","","","HDL","HDL Cholesterol","CHEMISTRY","LIPID","45","mg/dL","40","999","45",45,"mg/dL",40,999,"NORMAL","","","CENTRAL","SERUM","",2,"VISIT 2","TREATMENT","2014-02-03",9
"396","ABC","LB","ABC011",12,"","","","","LDL","LDL Cholesterol","CHEMISTRY","LIPID","173","mg/dL","0","160","173",173,"mg/dL",0,160,"HIGH","","","CENTRAL","SERUM","",2,"VISIT 2","TREATMENT","2014-02-03",9
"397","ABC","LB","ABC011",13,"","","","","CHOL","Cholesterol","CHEMISTRY","LIPID","210","mg/dL","100","200","210",210,"mg/dL",100,200,"HIGH","","","CENTRAL","SERUM","",2,"VISIT 2","TREATMENT","2014-02-03",9
"398","ABC","LB","ABC011",14,"","","","","ALP","Alkaline Phosphatase","CHEMISTRY","LIVER FUNCTION","74","IU/L","44","147","74",74,"IU/L",44,147,"NORMAL","","","CENTRAL","SERUM","",2,"VISIT 2","TREATMENT","2014-02-03",9
"399","ABC","LB","ABC011",15,"","","","","AST","Aspartate Aminotransferase","CHEMISTRY","LIVER FUNCTION","22","IU/L","10","40","22",22,"IU/L",10,40,"NORMAL","","","CENTRAL","SERUM","",2,"VISIT 2","TREATMENT","2014-02-03",9
"400","ABC","LB","ABC011",16,"","","","","ALT","Alanine Aminotransferase","CHEMISTRY","LIVER FUNCTION","23","IU/L","7","56","23",23,"IU/L",7,56,"NORMAL","","","CENTRAL","SERUM","",2,"VISIT 2","TREATMENT","2014-02-03",9
"401","ABC","LB","ABC011",17,"","","","","TRIG","Triglycerides","CHEMISTRY","LIPID","214","mg/dL","0","200","214",214,"mg/dL",0,200,"HIGH","","","CENTRAL","SERUM","",3,"VISIT 3","TREATMENT","2014-02-08",14
"402","ABC","LB","ABC011",18,"","","","","ALT","Alanine Aminotransferase","CHEMISTRY","LIVER FUNCTION","35","IU/L","7","56","35",35,"IU/L",7,56,"NORMAL","","","CENTRAL","SERUM","",3,"VISIT 3","TREATMENT","2014-02-08",14
"403","ABC","LB","ABC011",19,"","","","","HDL","HDL Cholesterol","CHEMISTRY","LIPID","47","mg/dL","40","999","47",47,"mg/dL",40,999,"NORMAL","","","CENTRAL","SERUM","",3,"VISIT 3","TREATMENT","2014-02-08",14
"404","ABC","LB","ABC011",20,"","","","","LDL","LDL Cholesterol","CHEMISTRY","LIPID","164","mg/dL","0","160","164",164,"mg/dL",0,160,"HIGH","","","CENTRAL","SERUM","",3,"VISIT 3","TREATMENT","2014-02-08",14
"405","ABC","LB","ABC011",21,"","","","","BILI","Bilirubin","CHEMISTRY","LIVER FUNCTION","0.6","mg/dL","0.3","1.9","0.6",0.6,"mg/dL",0.3,1.9,"NORMAL","","","CENTRAL","SERUM","",3,"VISIT 3","TREATMENT","2014-02-08",14
"406","ABC","LB","ABC011",22,"","","","","CHOL","Cholesterol","CHEMISTRY","LIPID","219","mg/dL","100","200","219",219,"mg/dL",100,200,"HIGH","","","CENTRAL","SERUM","",3,"VISIT 3","TREATMENT","2014-02-08",14
"407","ABC","LB","ABC011",23,"","","","","ALP","Alkaline Phosphatase","CHEMISTRY","LIVER FUNCTION","80","IU/L","44","147","80",80,"IU/L",44,147,"NORMAL","","","CENTRAL","SERUM","",3,"VISIT 3","TREATMENT","2014-02-08",14
"408","ABC","LB","ABC011",24,"","","","","AST","Aspartate Aminotransferase","CHEMISTRY","LIVER FUNCTION","27","IU/L","10","40","27",27,"IU/L",10,40,"NORMAL","","","CENTRAL","SERUM","",3,"VISIT 3","TREATMENT","2014-02-08",14
"409","ABC","LB","ABC011",25,"","","","","TRIG","Triglycerides","CHEMISTRY","LIPID","210","mg/dL","0","200","210",210,"mg/dL",0,200,"HIGH","","","CENTRAL","SERUM","",4,"VISIT 4","TREATMENT","2014-02-17",23
"410","ABC","LB","ABC011",26,"","","","","ALT","Alanine Aminotransferase","CHEMISTRY","LIVER FUNCTION","30","IU/L","7","56","30",30,"IU/L",7,56,"NORMAL","","","CENTRAL","SERUM","",4,"VISIT 4","TREATMENT","2014-02-17",23
"411","ABC","LB","ABC011",27,"","","","","BILI","Bilirubin","CHEMISTRY","LIVER FUNCTION","0.6","mg/dL","0.3","1.9","0.6",0.6,"mg/dL",0.3,1.9,"NORMAL","","","CENTRAL","SERUM","",4,"VISIT 4","TREATMENT","2014-02-17",23
"412","ABC","LB","ABC011",28,"","","","","HDL","HDL Cholesterol","CHEMISTRY","LIPID","48","mg/dL","40","999","48",48,"mg/dL",40,999,"NORMAL","","","CENTRAL","SERUM","",4,"VISIT 4","TREATMENT","2014-02-17",23
"413","ABC","LB","ABC011",29,"","","","","LDL","LDL Cholesterol","CHEMISTRY","LIPID","165","mg/dL","0","160","165",165,"mg/dL",0,160,"HIGH","","","CENTRAL","SERUM","",4,"VISIT 4","TREATMENT","2014-02-17",23
"414","ABC","LB","ABC011",30,"","","","","CHOL","Cholesterol","CHEMISTRY","LIPID","226","mg/dL","100","200","226",226,"mg/dL",100,200,"HIGH","","","CENTRAL","SERUM","",4,"VISIT 4","TREATMENT","2014-02-17",23
"415","ABC","LB","ABC011",31,"","","","","ALP","Alkaline Phosphatase","CHEMISTRY","LIVER FUNCTION","71","IU/L","44","147","71",71,"IU/L",44,147,"NORMAL","","","CENTRAL","SERUM","",4,"VISIT 4","TREATMENT","2014-02-17",23
"416","ABC","LB","ABC011",32,"","","","","AST","Aspartate Aminotransferase","CHEMISTRY","LIVER FUNCTION","25","IU/L","10","40","25",25,"IU/L",10,40,"NORMAL","","","CENTRAL","SERUM","",4,"VISIT 4","TREATMENT","2014-02-17",23
"417","ABC","LB","ABC011",33,"","","","","TRIG","Triglycerides","CHEMISTRY","LIPID","196","mg/dL","0","200","196",196,"mg/dL",0,200,"NORMAL","","","CENTRAL","SERUM","",5,"VISIT 5","TREATMENT","2014-02-24",30
"418","ABC","LB","ABC011",34,"","","","","ALT","Alanine Aminotransferase","CHEMISTRY","LIVER FUNCTION","36","IU/L","7","56","36",36,"IU/L",7,56,"NORMAL","","","CENTRAL","SERUM","",5,"VISIT 5","TREATMENT","2014-02-24",30
"419","ABC","LB","ABC011",35,"","","","","HDL","HDL Cholesterol","CHEMISTRY","LIPID","55","mg/dL","40","999","55",55,"mg/dL",40,999,"NORMAL","","","CENTRAL","SERUM","",5,"VISIT 5","TREATMENT","2014-02-24",30
"420","ABC","LB","ABC011",36,"","","","","LDL","LDL Cholesterol","CHEMISTRY","LIPID","159","mg/dL","0","160","159",159,"mg/dL",0,160,"NORMAL","","","CENTRAL","SERUM","",5,"VISIT 5","TREATMENT","2014-02-24",30
"421","ABC","LB","ABC011",37,"","","","","BILI","Bilirubin","CHEMISTRY","LIVER FUNCTION","0.5","mg/dL","0.3","1.9","0.5",0.5,"mg/dL",0.3,1.9,"NORMAL","","","CENTRAL","SERUM","",5,"VISIT 5","TREATMENT","2014-02-24",30
"422","ABC","LB","ABC011",38,"","","","","CHOL","Cholesterol","CHEMISTRY","LIPID","204","mg/dL","100","200","204",204,"mg/dL",100,200,"HIGH","","","CENTRAL","SERUM","",5,"VISIT 5","TREATMENT","2014-02-24",30
"423","ABC","LB","ABC011",39,"","","","","ALP","Alkaline Phosphatase","CHEMISTRY","LIVER FUNCTION","74","IU/L","44","147","74",74,"IU/L",44,147,"NORMAL","","","CENTRAL","SERUM","",5,"VISIT 5","TREATMENT","2014-02-24",30
"424","ABC","LB","ABC011",40,"","","","","AST","Aspartate Aminotransferase","CHEMISTRY","LIVER FUNCTION","28","IU/L","10","40","28",28,"IU/L",10,40,"NORMAL","","","CENTRAL","SERUM","",5,"VISIT 5","TREATMENT","2014-02-24",30
"425","ABC","LB","ABC012",1,"","","","","LDL","LDL Cholesterol","CHEMISTRY","LIPID","175","mg/dL","0","160","175",175,"mg/dL",0,160,"HIGH","","","CENTRAL","SERUM","Y",1,"SCREENING","TREATMENT","2014-05-27",1
"426","ABC","LB","ABC012",2,"","","","","TRIG","Triglycerides","CHEMISTRY","LIPID","216","mg/dL","0","200","216",216,"mg/dL",0,200,"HIGH","","","CENTRAL","SERUM","Y",1,"SCREENING","TREATMENT","2014-05-27",1
"427","ABC","LB","ABC012",3,"","","","","CHOL","Cholesterol","CHEMISTRY","LIPID","208","mg/dL","100","200","208",208,"mg/dL",100,200,"HIGH","","","CENTRAL","SERUM","Y",1,"SCREENING","TREATMENT","2014-05-27",1
"428","ABC","LB","ABC012",4,"","","","","HDL","HDL Cholesterol","CHEMISTRY","LIPID","42","mg/dL","40","999","42",42,"mg/dL",40,999,"NORMAL","","","CENTRAL","SERUM","Y",1,"SCREENING","TREATMENT","2014-05-27",1
"429","ABC","LB","ABC012",5,"","","","","BILI","Bilirubin","CHEMISTRY","LIVER FUNCTION","0.6","mg/dL","0.3","1.9","0.6",0.6,"mg/dL",0.3,1.9,"NORMAL","","","CENTRAL","SERUM","Y",1,"SCREENING","TREATMENT","2014-05-27",1
"430","ABC","LB","ABC012",6,"","","","","ALT","Alanine Aminotransferase","CHEMISTRY","LIVER FUNCTION","34","IU/L","7","56","34",34,"IU/L",7,56,"NORMAL","","","CENTRAL","SERUM","Y",1,"SCREENING","TREATMENT","2014-05-27",1
"431","ABC","LB","ABC012",7,"","","","","AST","Aspartate Aminotransferase","CHEMISTRY","LIVER FUNCTION","26","IU/L","10","40","26",26,"IU/L",10,40,"NORMAL","","","CENTRAL","SERUM","Y",1,"SCREENING","TREATMENT","2014-05-27",1
"432","ABC","LB","ABC012",8,"","","","","ALP","Alkaline Phosphatase","CHEMISTRY","LIVER FUNCTION","78","IU/L","44","147","78",78,"IU/L",44,147,"NORMAL","","","CENTRAL","SERUM","Y",1,"SCREENING","TREATMENT","2014-05-27",1
"433","ABC","LB","ABC012",9,"","","","","TRIG","Triglycerides","CHEMISTRY","LIPID","229","mg/dL","0","200","229",229,"mg/dL",0,200,"HIGH","","","CENTRAL","SERUM","",2,"VISIT 2","TREATMENT","2014-06-03",8
"434","ABC","LB","ABC012",10,"","","","","ALP","Alkaline Phosphatase","CHEMISTRY","LIVER FUNCTION","73","IU/L","44","147","73",73,"IU/L",44,147,"NORMAL","","","CENTRAL","SERUM","",2,"VISIT 2","TREATMENT","2014-06-03",8
"435","ABC","LB","ABC012",11,"","","","","CHOL","Cholesterol","CHEMISTRY","LIPID","227","mg/dL","100","200","227",227,"mg/dL",100,200,"HIGH","","","CENTRAL","SERUM","",2,"VISIT 2","TREATMENT","2014-06-03",8
"436","ABC","LB","ABC012",12,"","","","","HDL","HDL Cholesterol","CHEMISTRY","LIPID","50","mg/dL","40","999","50",50,"mg/dL",40,999,"NORMAL","","","CENTRAL","SERUM","",2,"VISIT 2","TREATMENT","2014-06-03",8
"437","ABC","LB","ABC012",13,"","","","","BILI","Bilirubin","CHEMISTRY","LIVER FUNCTION","0.8","mg/dL","0.3","1.9","0.8",0.8,"mg/dL",0.3,1.9,"NORMAL","","","CENTRAL","SERUM","",2,"VISIT 2","TREATMENT","2014-06-03",8
"438","ABC","LB","ABC012",14,"","","","","LDL","LDL Cholesterol","CHEMISTRY","LIPID","166","mg/dL","0","160","166",166,"mg/dL",0,160,"HIGH","","","CENTRAL","SERUM","",2,"VISIT 2","TREATMENT","2014-06-03",8
"439","ABC","LB","ABC012",15,"","","","","ALT","Alanine Aminotransferase","CHEMISTRY","LIVER FUNCTION","35","IU/L","7","56","35",35,"IU/L",7,56,"NORMAL","","","CENTRAL","SERUM","",2,"VISIT 2","TREATMENT","2014-06-03",8
"440","ABC","LB","ABC012",16,"","","","","AST","Aspartate Aminotransferase","CHEMISTRY","LIVER FUNCTION","16","IU/L","10","40","16",16,"IU/L",10,40,"NORMAL","","","CENTRAL","SERUM","",2,"VISIT 2","TREATMENT","2014-06-03",8
"441","ABC","LB","ABC012",17,"","","","","TRIG","Triglycerides","CHEMISTRY","LIPID","212","mg/dL","0","200","212",212,"mg/dL",0,200,"HIGH","","","CENTRAL","SERUM","",3,"VISIT 3","TREATMENT","2014-06-10",15
"442","ABC","LB","ABC012",18,"","","","","ALP","Alkaline Phosphatase","CHEMISTRY","LIVER FUNCTION","78","IU/L","44","147","78",78,"IU/L",44,147,"NORMAL","","","CENTRAL","SERUM","",3,"VISIT 3","TREATMENT","2014-06-10",15
"443","ABC","LB","ABC012",19,"","","","","BILI","Bilirubin","CHEMISTRY","LIVER FUNCTION","0.9","mg/dL","0.3","1.9","0.9",0.9,"mg/dL",0.3,1.9,"NORMAL","","","CENTRAL","SERUM","",3,"VISIT 3","TREATMENT","2014-06-10",15
"444","ABC","LB","ABC012",20,"","","","","CHOL","Cholesterol","CHEMISTRY","LIPID","211","mg/dL","100","200","211",211,"mg/dL",100,200,"HIGH","","","CENTRAL","SERUM","",3,"VISIT 3","TREATMENT","2014-06-10",15
"445","ABC","LB","ABC012",21,"","","","","HDL","HDL Cholesterol","CHEMISTRY","LIPID","45","mg/dL","40","999","45",45,"mg/dL",40,999,"NORMAL","","","CENTRAL","SERUM","",3,"VISIT 3","TREATMENT","2014-06-10",15
"446","ABC","LB","ABC012",22,"","","","","LDL","LDL Cholesterol","CHEMISTRY","LIPID","162","mg/dL","0","160","162",162,"mg/dL",0,160,"HIGH","","","CENTRAL","SERUM","",3,"VISIT 3","TREATMENT","2014-06-10",15
"447","ABC","LB","ABC012",23,"","","","","ALT","Alanine Aminotransferase","CHEMISTRY","LIVER FUNCTION","30","IU/L","7","56","30",30,"IU/L",7,56,"NORMAL","","","CENTRAL","SERUM","",3,"VISIT 3","TREATMENT","2014-06-10",15
"448","ABC","LB","ABC012",24,"","","","","AST","Aspartate Aminotransferase","CHEMISTRY","LIVER FUNCTION","31","IU/L","10","40","31",31,"IU/L",10,40,"NORMAL","","","CENTRAL","SERUM","",3,"VISIT 3","TREATMENT","2014-06-10",15
"449","ABC","LB","ABC012",25,"","","","","TRIG","Triglycerides","CHEMISTRY","LIPID","227","mg/dL","0","200","227",227,"mg/dL",0,200,"HIGH","","","CENTRAL","SERUM","",4,"VISIT 4","TREATMENT","2014-06-16",21
"450","ABC","LB","ABC012",26,"","","","","ALP","Alkaline Phosphatase","CHEMISTRY","LIVER FUNCTION","78","IU/L","44","147","78",78,"IU/L",44,147,"NORMAL","","","CENTRAL","SERUM","",4,"VISIT 4","TREATMENT","2014-06-16",21
"451","ABC","LB","ABC012",27,"","","","","CHOL","Cholesterol","CHEMISTRY","LIPID","213","mg/dL","100","200","213",213,"mg/dL",100,200,"HIGH","","","CENTRAL","SERUM","",4,"VISIT 4","TREATMENT","2014-06-16",21
"452","ABC","LB","ABC012",28,"","","","","HDL","HDL Cholesterol","CHEMISTRY","LIPID","45","mg/dL","40","999","45",45,"mg/dL",40,999,"NORMAL","","","CENTRAL","SERUM","",4,"VISIT 4","TREATMENT","2014-06-16",21
"453","ABC","LB","ABC012",29,"","","","","BILI","Bilirubin","CHEMISTRY","LIVER FUNCTION","0.9","mg/dL","0.3","1.9","0.9",0.9,"mg/dL",0.3,1.9,"NORMAL","","","CENTRAL","SERUM","",4,"VISIT 4","TREATMENT","2014-06-16",21
"454","ABC","LB","ABC012",30,"","","","","LDL","LDL Cholesterol","CHEMISTRY","LIPID","165","mg/dL","0","160","165",165,"mg/dL",0,160,"HIGH","","","CENTRAL","SERUM","",4,"VISIT 4","TREATMENT","2014-06-16",21
"455","ABC","LB","ABC012",31,"","","","","ALT","Alanine Aminotransferase","CHEMISTRY","LIVER FUNCTION","35","IU/L","7","56","35",35,"IU/L",7,56,"NORMAL","","","CENTRAL","SERUM","",4,"VISIT 4","TREATMENT","2014-06-16",21
"456","ABC","LB","ABC012",32,"","","","","AST","Aspartate Aminotransferase","CHEMISTRY","LIVER FUNCTION","21","IU/L","10","40","21",21,"IU/L",10,40,"NORMAL","","","CENTRAL","SERUM","",4,"VISIT 4","TREATMENT","2014-06-16",21
"457","ABC","LB","ABC012",33,"","","","","TRIG","Triglycerides","CHEMISTRY","LIPID","192","mg/dL","0","200","192",192,"mg/dL",0,200,"NORMAL","","","CENTRAL","SERUM","",5,"VISIT 5","TREATMENT","2014-06-23",28
"458","ABC","LB","ABC012",34,"","","","","CHOL","Cholesterol","CHEMISTRY","LIPID","205","mg/dL","100","200","205",205,"mg/dL",100,200,"HIGH","","","CENTRAL","SERUM","",5,"VISIT 5","TREATMENT","2014-06-23",28
"459","ABC","LB","ABC012",35,"","","","","HDL","HDL Cholesterol","CHEMISTRY","LIPID","53","mg/dL","40","999","53",53,"mg/dL",40,999,"NORMAL","","","CENTRAL","SERUM","",5,"VISIT 5","TREATMENT","2014-06-23",28
"460","ABC","LB","ABC012",36,"","","","","BILI","Bilirubin","CHEMISTRY","LIVER FUNCTION","0.8","mg/dL","0.3","1.9","0.8",0.8,"mg/dL",0.3,1.9,"NORMAL","","","CENTRAL","SERUM","",5,"VISIT 5","TREATMENT","2014-06-23",28
"461","ABC","LB","ABC012",37,"","","","","LDL","LDL Cholesterol","CHEMISTRY","LIPID","158","mg/dL","0","160","158",158,"mg/dL",0,160,"NORMAL","","","CENTRAL","SERUM","",5,"VISIT 5","TREATMENT","2014-06-23",28
"462","ABC","LB","ABC012",38,"","","","","ALT","Alanine Aminotransferase","CHEMISTRY","LIVER FUNCTION","30","IU/L","7","56","30",30,"IU/L",7,56,"NORMAL","","","CENTRAL","SERUM","",5,"VISIT 5","TREATMENT","2014-06-23",28
"463","ABC","LB","ABC012",39,"","","","","AST","Aspartate Aminotransferase","CHEMISTRY","LIVER FUNCTION","24","IU/L","10","40","24",24,"IU/L",10,40,"NORMAL","","","CENTRAL","SERUM","",5,"VISIT 5","TREATMENT","2014-06-23",28
"464","ABC","LB","ABC012",40,"","","","","ALP","Alkaline Phosphatase","CHEMISTRY","LIVER FUNCTION","76","IU/L","44","147","76",76,"IU/L",44,147,"NORMAL","","","CENTRAL","SERUM","",5,"VISIT 5","TREATMENT","2014-06-23",28
"465","ABC","LB","ABC013",1,"","","","","TRIG","Triglycerides","CHEMISTRY","LIPID","213","mg/dL","0","200","213",213,"mg/dL",0,200,"HIGH","","","CENTRAL","SERUM","Y",1,"SCREENING","TREATMENT","2014-02-09",1
"466","ABC","LB","ABC013",2,"","","","","ALP","Alkaline Phosphatase","CHEMISTRY","LIVER FUNCTION","81","IU/L","44","147","81",81,"IU/L",44,147,"NORMAL","","","CENTRAL","SERUM","Y",1,"SCREENING","TREATMENT","2014-02-09",1
"467","ABC","LB","ABC013",3,"","","","","CHOL","Cholesterol","CHEMISTRY","LIPID","229","mg/dL","100","200","229",229,"mg/dL",100,200,"HIGH","","","CENTRAL","SERUM","Y",1,"SCREENING","TREATMENT","2014-02-09",1
"468","ABC","LB","ABC013",4,"","","","","HDL","HDL Cholesterol","CHEMISTRY","LIPID","48","mg/dL","40","999","48",48,"mg/dL",40,999,"NORMAL","","","CENTRAL","SERUM","Y",1,"SCREENING","TREATMENT","2014-02-09",1
"469","ABC","LB","ABC013",5,"","","","","BILI","Bilirubin","CHEMISTRY","LIVER FUNCTION","0.8","mg/dL","0.3","1.9","0.8",0.8,"mg/dL",0.3,1.9,"NORMAL","","","CENTRAL","SERUM","Y",1,"SCREENING","TREATMENT","2014-02-09",1
"470","ABC","LB","ABC013",6,"","","","","LDL","LDL Cholesterol","CHEMISTRY","LIPID","167","mg/dL","0","160","167",167,"mg/dL",0,160,"HIGH","","","CENTRAL","SERUM","Y",1,"SCREENING","TREATMENT","2014-02-09",1
"471","ABC","LB","ABC013",7,"","","","","ALT","Alanine Aminotransferase","CHEMISTRY","LIVER FUNCTION","27","IU/L","7","56","27",27,"IU/L",7,56,"NORMAL","","","CENTRAL","SERUM","Y",1,"SCREENING","TREATMENT","2014-02-09",1
"472","ABC","LB","ABC013",8,"","","","","AST","Aspartate Aminotransferase","CHEMISTRY","LIVER FUNCTION","22","IU/L","10","40","22",22,"IU/L",10,40,"NORMAL","","","CENTRAL","SERUM","Y",1,"SCREENING","TREATMENT","2014-02-09",1
"473","ABC","LB","ABC013",9,"","","","","TRIG","Triglycerides","CHEMISTRY","LIPID","212","mg/dL","0","200","212",212,"mg/dL",0,200,"HIGH","","","CENTRAL","SERUM","",2,"VISIT 2","TREATMENT","2014-02-17",9
"474","ABC","LB","ABC013",10,"","","","","ALP","Alkaline Phosphatase","CHEMISTRY","LIVER FUNCTION","77","IU/L","44","147","77",77,"IU/L",44,147,"NORMAL","","","CENTRAL","SERUM","",2,"VISIT 2","TREATMENT","2014-02-17",9
"475","ABC","LB","ABC013",11,"","","","","BILI","Bilirubin","CHEMISTRY","LIVER FUNCTION","0.6","mg/dL","0.3","1.9","0.6",0.6,"mg/dL",0.3,1.9,"NORMAL","","","CENTRAL","SERUM","",2,"VISIT 2","TREATMENT","2014-02-17",9
"476","ABC","LB","ABC013",12,"","","","","CHOL","Cholesterol","CHEMISTRY","LIPID","194","mg/dL","100","200","194",194,"mg/dL",100,200,"NORMAL","","","CENTRAL","SERUM","",2,"VISIT 2","TREATMENT","2014-02-17",9
"477","ABC","LB","ABC013",13,"","","","","HDL","HDL Cholesterol","CHEMISTRY","LIPID","38","mg/dL","40","999","38",38,"mg/dL",40,999,"LOW","","","CENTRAL","SERUM","",2,"VISIT 2","TREATMENT","2014-02-17",9
"478","ABC","LB","ABC013",14,"","","","","LDL","LDL Cholesterol","CHEMISTRY","LIPID","163","mg/dL","0","160","163",163,"mg/dL",0,160,"HIGH","","","CENTRAL","SERUM","",2,"VISIT 2","TREATMENT","2014-02-17",9
"479","ABC","LB","ABC013",15,"","","","","ALT","Alanine Aminotransferase","CHEMISTRY","LIVER FUNCTION","33","IU/L","7","56","33",33,"IU/L",7,56,"NORMAL","","","CENTRAL","SERUM","",2,"VISIT 2","TREATMENT","2014-02-17",9
"480","ABC","LB","ABC013",16,"","","","","AST","Aspartate Aminotransferase","CHEMISTRY","LIVER FUNCTION","29","IU/L","10","40","29",29,"IU/L",10,40,"NORMAL","","","CENTRAL","SERUM","",2,"VISIT 2","TREATMENT","2014-02-17",9
"481","ABC","LB","ABC013",17,"","","","","TRIG","Triglycerides","CHEMISTRY","LIPID","218","mg/dL","0","200","218",218,"mg/dL",0,200,"HIGH","","","CENTRAL","SERUM","",3,"VISIT 3","TREATMENT","2014-02-24",16
"482","ABC","LB","ABC013",18,"","","","","ALP","Alkaline Phosphatase","CHEMISTRY","LIVER FUNCTION","78","IU/L","44","147","78",78,"IU/L",44,147,"NORMAL","","","CENTRAL","SERUM","",3,"VISIT 3","TREATMENT","2014-02-24",16
"483","ABC","LB","ABC013",19,"","","","","CHOL","Cholesterol","CHEMISTRY","LIPID","217","mg/dL","100","200","217",217,"mg/dL",100,200,"HIGH","","","CENTRAL","SERUM","",3,"VISIT 3","TREATMENT","2014-02-24",16
"484","ABC","LB","ABC013",20,"","","","","HDL","HDL Cholesterol","CHEMISTRY","LIPID","42","mg/dL","40","999","42",42,"mg/dL",40,999,"NORMAL","","","CENTRAL","SERUM","",3,"VISIT 3","TREATMENT","2014-02-24",16
"485","ABC","LB","ABC013",21,"","","","","BILI","Bilirubin","CHEMISTRY","LIVER FUNCTION","1","mg/dL","0.3","1.9","1",1,"mg/dL",0.3,1.9,"NORMAL","","","CENTRAL","SERUM","",3,"VISIT 3","TREATMENT","2014-02-24",16
"486","ABC","LB","ABC013",22,"","","","","LDL","LDL Cholesterol","CHEMISTRY","LIPID","169","mg/dL","0","160","169",169,"mg/dL",0,160,"HIGH","","","CENTRAL","SERUM","",3,"VISIT 3","TREATMENT","2014-02-24",16
"487","ABC","LB","ABC013",23,"","","","","ALT","Alanine Aminotransferase","CHEMISTRY","LIVER FUNCTION","39","IU/L","7","56","39",39,"IU/L",7,56,"NORMAL","","","CENTRAL","SERUM","",3,"VISIT 3","TREATMENT","2014-02-24",16
"488","ABC","LB","ABC013",24,"","","","","AST","Aspartate Aminotransferase","CHEMISTRY","LIVER FUNCTION","25","IU/L","10","40","25",25,"IU/L",10,40,"NORMAL","","","CENTRAL","SERUM","",3,"VISIT 3","TREATMENT","2014-02-24",16
"489","ABC","LB","ABC013",25,"","","","","CHOL","Cholesterol","CHEMISTRY","LIPID","209","mg/dL","100","200","209",209,"mg/dL",100,200,"HIGH","","","CENTRAL","SERUM","",4,"VISIT 4","TREATMENT","2014-03-01",21
"490","ABC","LB","ABC013",26,"","","","","HDL","HDL Cholesterol","CHEMISTRY","LIPID","40","mg/dL","40","999","40",40,"mg/dL",40,999,"NORMAL","","","CENTRAL","SERUM","",4,"VISIT 4","TREATMENT","2014-03-01",21
"491","ABC","LB","ABC013",27,"","","","","BILI","Bilirubin","CHEMISTRY","LIVER FUNCTION","0.7","mg/dL","0.3","1.9","0.7",0.7,"mg/dL",0.3,1.9,"NORMAL","","","CENTRAL","SERUM","",4,"VISIT 4","TREATMENT","2014-03-01",21
"492","ABC","LB","ABC013",28,"","","","","LDL","LDL Cholesterol","CHEMISTRY","LIPID","163","mg/dL","0","160","163",163,"mg/dL",0,160,"HIGH","","","CENTRAL","SERUM","",4,"VISIT 4","TREATMENT","2014-03-01",21
"493","ABC","LB","ABC013",29,"","","","","ALT","Alanine Aminotransferase","CHEMISTRY","LIVER FUNCTION","38","IU/L","7","56","38",38,"IU/L",7,56,"NORMAL","","","CENTRAL","SERUM","",4,"VISIT 4","TREATMENT","2014-03-01",21
"494","ABC","LB","ABC013",30,"","","","","AST","Aspartate Aminotransferase","CHEMISTRY","LIVER FUNCTION","34","IU/L","10","40","34",34,"IU/L",10,40,"NORMAL","","","CENTRAL","SERUM","",4,"VISIT 4","TREATMENT","2014-03-01",21
"495","ABC","LB","ABC013",31,"","","","","ALP","Alkaline Phosphatase","CHEMISTRY","LIVER FUNCTION","78","IU/L","44","147","78",78,"IU/L",44,147,"NORMAL","","","CENTRAL","SERUM","",4,"VISIT 4","TREATMENT","2014-03-01",21
"496","ABC","LB","ABC013",32,"","","","","TRIG","Triglycerides","CHEMISTRY","LIPID","206","mg/dL","0","200","206",206,"mg/dL",0,200,"HIGH","","","CENTRAL","SERUM","",4,"VISIT 4","TREATMENT","2014-03-01",21
"497","ABC","LB","ABC013",33,"","","","","CHOL","Cholesterol","CHEMISTRY","LIPID","216","mg/dL","100","200","216",216,"mg/dL",100,200,"HIGH","","","CENTRAL","SERUM","",5,"VISIT 5","TREATMENT","2014-03-08",28
"498","ABC","LB","ABC013",34,"","","","","HDL","HDL Cholesterol","CHEMISTRY","LIPID","51","mg/dL","40","999","51",51,"mg/dL",40,999,"NORMAL","","","CENTRAL","SERUM","",5,"VISIT 5","TREATMENT","2014-03-08",28
"499","ABC","LB","ABC013",35,"","","","","AST","Aspartate Aminotransferase","CHEMISTRY","LIVER FUNCTION","23","IU/L","10","40","23",23,"IU/L",10,40,"NORMAL","","","CENTRAL","SERUM","",5,"VISIT 5","TREATMENT","2014-03-08",28
"500","ABC","LB","ABC013",36,"","","","","BILI","Bilirubin","CHEMISTRY","LIVER FUNCTION","0.7","mg/dL","0.3","1.9","0.7",0.7,"mg/dL",0.3,1.9,"NORMAL","","","CENTRAL","SERUM","",5,"VISIT 5","TREATMENT","2014-03-08",28
"501","ABC","LB","ABC013",37,"","","","","TRIG","Triglycerides","CHEMISTRY","LIPID","226","mg/dL","0","200","226",226,"mg/dL",0,200,"HIGH","","","CENTRAL","SERUM","",5,"VISIT 5","TREATMENT","2014-03-08",28
"502","ABC","LB","ABC013",38,"","","","","ALT","Alanine Aminotransferase","CHEMISTRY","LIVER FUNCTION","41","IU/L","7","56","41",41,"IU/L",7,56,"NORMAL","","","CENTRAL","SERUM","",5,"VISIT 5","TREATMENT","2014-03-08",28
"503","ABC","LB","ABC013",39,"","","","","LDL","LDL Cholesterol","CHEMISTRY","LIPID","154","mg/dL","0","160","154",154,"mg/dL",0,160,"NORMAL","","","CENTRAL","SERUM","",5,"VISIT 5","TREATMENT","2014-03-08",28
"504","ABC","LB","ABC013",40,"","","","","ALP","Alkaline Phosphatase","CHEMISTRY","LIVER FUNCTION","79","IU/L","44","147","79",79,"IU/L",44,147,"NORMAL","","","CENTRAL","SERUM","",5,"VISIT 5","TREATMENT","2014-03-08",28
"505","ABC","LB","ABC014",1,"","","","","LDL","LDL Cholesterol","CHEMISTRY","LIPID","169","mg/dL","0","160","169",169,"mg/dL",0,160,"HIGH","","","CENTRAL","SERUM","Y",1,"SCREENING","TREATMENT","2014-10-04",1
"506","ABC","LB","ABC014",2,"","","","","AST","Aspartate Aminotransferase","CHEMISTRY","LIVER FUNCTION","24","IU/L","10","40","24",24,"IU/L",10,40,"NORMAL","","","CENTRAL","SERUM","Y",1,"SCREENING","TREATMENT","2014-10-04",1
"507","ABC","LB","ABC014",3,"","","","","BILI","Bilirubin","CHEMISTRY","LIVER FUNCTION","0.8","mg/dL","0.3","1.9","0.8",0.8,"mg/dL",0.3,1.9,"NORMAL","","","CENTRAL","SERUM","Y",1,"SCREENING","TREATMENT","2014-10-04",1
"508","ABC","LB","ABC014",4,"","","","","TRIG","Triglycerides","CHEMISTRY","LIPID","221","mg/dL","0","200","221",221,"mg/dL",0,200,"HIGH","","","CENTRAL","SERUM","Y",1,"SCREENING","TREATMENT","2014-10-04",1
"509","ABC","LB","ABC014",5,"","","","","ALP","Alkaline Phosphatase","CHEMISTRY","LIVER FUNCTION","83","IU/L","44","147","83",83,"IU/L",44,147,"NORMAL","","","CENTRAL","SERUM","Y",1,"SCREENING","TREATMENT","2014-10-04",1
"510","ABC","LB","ABC014",6,"","","","","CHOL","Cholesterol","CHEMISTRY","LIPID","217","mg/dL","100","200","217",217,"mg/dL",100,200,"HIGH","","","CENTRAL","SERUM","Y",1,"SCREENING","TREATMENT","2014-10-04",1
"511","ABC","LB","ABC014",7,"","","","","ALT","Alanine Aminotransferase","CHEMISTRY","LIVER FUNCTION","30","IU/L","7","56","30",30,"IU/L",7,56,"NORMAL","","","CENTRAL","SERUM","Y",1,"SCREENING","TREATMENT","2014-10-04",1
"512","ABC","LB","ABC014",8,"","","","","HDL","HDL Cholesterol","CHEMISTRY","LIPID","54","mg/dL","40","999","54",54,"mg/dL",40,999,"NORMAL","","","CENTRAL","SERUM","Y",1,"SCREENING","TREATMENT","2014-10-04",1
"513","ABC","LB","ABC014",9,"","","","","LDL","LDL Cholesterol","CHEMISTRY","LIPID","166","mg/dL","0","160","166",166,"mg/dL",0,160,"HIGH","","","CENTRAL","SERUM","",2,"VISIT 2","TREATMENT","2014-10-10",7
"514","ABC","LB","ABC014",10,"","","","","AST","Aspartate Aminotransferase","CHEMISTRY","LIVER FUNCTION","24","IU/L","10","40","24",24,"IU/L",10,40,"NORMAL","","","CENTRAL","SERUM","",2,"VISIT 2","TREATMENT","2014-10-10",7
"515","ABC","LB","ABC014",11,"","","","","BILI","Bilirubin","CHEMISTRY","LIVER FUNCTION","0.9","mg/dL","0.3","1.9","0.9",0.9,"mg/dL",0.3,1.9,"NORMAL","","","CENTRAL","SERUM","",2,"VISIT 2","TREATMENT","2014-10-10",7
"516","ABC","LB","ABC014",12,"","","","","TRIG","Triglycerides","CHEMISTRY","LIPID","216","mg/dL","0","200","216",216,"mg/dL",0,200,"HIGH","","","CENTRAL","SERUM","",2,"VISIT 2","TREATMENT","2014-10-10",7
"517","ABC","LB","ABC014",13,"","","","","ALP","Alkaline Phosphatase","CHEMISTRY","LIVER FUNCTION","88","IU/L","44","147","88",88,"IU/L",44,147,"NORMAL","","","CENTRAL","SERUM","",2,"VISIT 2","TREATMENT","2014-10-10",7
"518","ABC","LB","ABC014",14,"","","","","CHOL","Cholesterol","CHEMISTRY","LIPID","232","mg/dL","100","200","232",232,"mg/dL",100,200,"HIGH","","","CENTRAL","SERUM","",2,"VISIT 2","TREATMENT","2014-10-10",7
"519","ABC","LB","ABC014",15,"","","","","ALT","Alanine Aminotransferase","CHEMISTRY","LIVER FUNCTION","31","IU/L","7","56","31",31,"IU/L",7,56,"NORMAL","","","CENTRAL","SERUM","",2,"VISIT 2","TREATMENT","2014-10-10",7
"520","ABC","LB","ABC014",16,"","","","","HDL","HDL Cholesterol","CHEMISTRY","LIPID","38","mg/dL","40","999","38",38,"mg/dL",40,999,"LOW","","","CENTRAL","SERUM","",2,"VISIT 2","TREATMENT","2014-10-10",7
"521","ABC","LB","ABC014",17,"","","","","LDL","LDL Cholesterol","CHEMISTRY","LIPID","170","mg/dL","0","160","170",170,"mg/dL",0,160,"HIGH","","","CENTRAL","SERUM","",3,"VISIT 3","TREATMENT","2014-10-19",16
"522","ABC","LB","ABC014",18,"","","","","AST","Aspartate Aminotransferase","CHEMISTRY","LIVER FUNCTION","28","IU/L","10","40","28",28,"IU/L",10,40,"NORMAL","","","CENTRAL","SERUM","",3,"VISIT 3","TREATMENT","2014-10-19",16
"523","ABC","LB","ABC014",19,"","","","","BILI","Bilirubin","CHEMISTRY","LIVER FUNCTION","0.8","mg/dL","0.3","1.9","0.8",0.8,"mg/dL",0.3,1.9,"NORMAL","","","CENTRAL","SERUM","",3,"VISIT 3","TREATMENT","2014-10-19",16
"524","ABC","LB","ABC014",20,"","","","","TRIG","Triglycerides","CHEMISTRY","LIPID","227","mg/dL","0","200","227",227,"mg/dL",0,200,"HIGH","","","CENTRAL","SERUM","",3,"VISIT 3","TREATMENT","2014-10-19",16
"525","ABC","LB","ABC014",21,"","","","","ALP","Alkaline Phosphatase","CHEMISTRY","LIVER FUNCTION","81","IU/L","44","147","81",81,"IU/L",44,147,"NORMAL","","","CENTRAL","SERUM","",3,"VISIT 3","TREATMENT","2014-10-19",16
"526","ABC","LB","ABC014",22,"","","","","CHOL","Cholesterol","CHEMISTRY","LIPID","205","mg/dL","100","200","205",205,"mg/dL",100,200,"HIGH","","","CENTRAL","SERUM","",3,"VISIT 3","TREATMENT","2014-10-19",16
"527","ABC","LB","ABC014",23,"","","","","ALT","Alanine Aminotransferase","CHEMISTRY","LIVER FUNCTION","37","IU/L","7","56","37",37,"IU/L",7,56,"NORMAL","","","CENTRAL","SERUM","",3,"VISIT 3","TREATMENT","2014-10-19",16
"528","ABC","LB","ABC014",24,"","","","","HDL","HDL Cholesterol","CHEMISTRY","LIPID","28","mg/dL","40","999","28",28,"mg/dL",40,999,"LOW","","","CENTRAL","SERUM","",3,"VISIT 3","TREATMENT","2014-10-19",16
"529","ABC","LB","ABC014",25,"","","","","LDL","LDL Cholesterol","CHEMISTRY","LIPID","166","mg/dL","0","160","166",166,"mg/dL",0,160,"HIGH","","","CENTRAL","SERUM","",4,"VISIT 4","TREATMENT","2014-10-26",23
"530","ABC","LB","ABC014",26,"","","","","AST","Aspartate Aminotransferase","CHEMISTRY","LIVER FUNCTION","15","IU/L","10","40","15",15,"IU/L",10,40,"NORMAL","","","CENTRAL","SERUM","",4,"VISIT 4","TREATMENT","2014-10-26",23
"531","ABC","LB","ABC014",27,"","","","","BILI","Bilirubin","CHEMISTRY","LIVER FUNCTION","0.9","mg/dL","0.3","1.9","0.9",0.9,"mg/dL",0.3,1.9,"NORMAL","","","CENTRAL","SERUM","",4,"VISIT 4","TREATMENT","2014-10-26",23
"532","ABC","LB","ABC014",28,"","","","","TRIG","Triglycerides","CHEMISTRY","LIPID","208","mg/dL","0","200","208",208,"mg/dL",0,200,"HIGH","","","CENTRAL","SERUM","",4,"VISIT 4","TREATMENT","2014-10-26",23
"533","ABC","LB","ABC014",29,"","","","","ALP","Alkaline Phosphatase","CHEMISTRY","LIVER FUNCTION","88","IU/L","44","147","88",88,"IU/L",44,147,"NORMAL","","","CENTRAL","SERUM","",4,"VISIT 4","TREATMENT","2014-10-26",23
"534","ABC","LB","ABC014",30,"","","","","CHOL","Cholesterol","CHEMISTRY","LIPID","229","mg/dL","100","200","229",229,"mg/dL",100,200,"HIGH","","","CENTRAL","SERUM","",4,"VISIT 4","TREATMENT","2014-10-26",23
"535","ABC","LB","ABC014",31,"","","","","ALT","Alanine Aminotransferase","CHEMISTRY","LIVER FUNCTION","34","IU/L","7","56","34",34,"IU/L",7,56,"NORMAL","","","CENTRAL","SERUM","",4,"VISIT 4","TREATMENT","2014-10-26",23
"536","ABC","LB","ABC014",32,"","","","","HDL","HDL Cholesterol","CHEMISTRY","LIPID","57","mg/dL","40","999","57",57,"mg/dL",40,999,"NORMAL","","","CENTRAL","SERUM","",4,"VISIT 4","TREATMENT","2014-10-26",23
"537","ABC","LB","ABC014",33,"","","","","LDL","LDL Cholesterol","CHEMISTRY","LIPID","150","mg/dL","0","160","150",150,"mg/dL",0,160,"NORMAL","","","CENTRAL","SERUM","",5,"VISIT 5","TREATMENT","2014-11-01",29
"538","ABC","LB","ABC014",34,"","","","","AST","Aspartate Aminotransferase","CHEMISTRY","LIVER FUNCTION","23","IU/L","10","40","23",23,"IU/L",10,40,"NORMAL","","","CENTRAL","SERUM","",5,"VISIT 5","TREATMENT","2014-11-01",29
"539","ABC","LB","ABC014",35,"","","","","BILI","Bilirubin","CHEMISTRY","LIVER FUNCTION","0.9","mg/dL","0.3","1.9","0.9",0.9,"mg/dL",0.3,1.9,"NORMAL","","","CENTRAL","SERUM","",5,"VISIT 5","TREATMENT","2014-11-01",29
"540","ABC","LB","ABC014",36,"","","","","TRIG","Triglycerides","CHEMISTRY","LIPID","201","mg/dL","0","200","201",201,"mg/dL",0,200,"HIGH","","","CENTRAL","SERUM","",5,"VISIT 5","TREATMENT","2014-11-01",29
"541","ABC","LB","ABC014",37,"","","","","ALP","Alkaline Phosphatase","CHEMISTRY","LIVER FUNCTION","78","IU/L","44","147","78",78,"IU/L",44,147,"NORMAL","","","CENTRAL","SERUM","",5,"VISIT 5","TREATMENT","2014-11-01",29
"542","ABC","LB","ABC014",38,"","","","","CHOL","Cholesterol","CHEMISTRY","LIPID","226","mg/dL","100","200","226",226,"mg/dL",100,200,"HIGH","","","CENTRAL","SERUM","",5,"VISIT 5","TREATMENT","2014-11-01",29
"543","ABC","LB","ABC014",39,"","","","","ALT","Alanine Aminotransferase","CHEMISTRY","LIVER FUNCTION","37","IU/L","7","56","37",37,"IU/L",7,56,"NORMAL","","","CENTRAL","SERUM","",5,"VISIT 5","TREATMENT","2014-11-01",29
"544","ABC","LB","ABC014",40,"","","","","HDL","HDL Cholesterol","CHEMISTRY","LIPID","54","mg/dL","40","999","54",54,"mg/dL",40,999,"NORMAL","","","CENTRAL","SERUM","",5,"VISIT 5","TREATMENT","2014-11-01",29
"545","ABC","LB","ABC015",1,"","","","","HDL","HDL Cholesterol","CHEMISTRY","LIPID","40","mg/dL","40","999","40",40,"mg/dL",40,999,"NORMAL","","","CENTRAL","SERUM","Y",1,"SCREENING","TREATMENT","2014-10-22",1
"546","ABC","LB","ABC015",2,"","","","","AST","Aspartate Aminotransferase","CHEMISTRY","LIVER FUNCTION","25","IU/L","10","40","25",25,"IU/L",10,40,"NORMAL","","","CENTRAL","SERUM","Y",1,"SCREENING","TREATMENT","2014-10-22",1
"547","ABC","LB","ABC015",3,"","","","","BILI","Bilirubin","CHEMISTRY","LIVER FUNCTION","1.2","mg/dL","0.3","1.9","1.2",1.2,"mg/dL",0.3,1.9,"NORMAL","","","CENTRAL","SERUM","Y",1,"SCREENING","TREATMENT","2014-10-22",1
"548","ABC","LB","ABC015",4,"","","","","TRIG","Triglycerides","CHEMISTRY","LIPID","217","mg/dL","0","200","217",217,"mg/dL",0,200,"HIGH","","","CENTRAL","SERUM","Y",1,"SCREENING","TREATMENT","2014-10-22",1
"549","ABC","LB","ABC015",5,"","","","","ALT","Alanine Aminotransferase","CHEMISTRY","LIVER FUNCTION","36","IU/L","7","56","36",36,"IU/L",7,56,"NORMAL","","","CENTRAL","SERUM","Y",1,"SCREENING","TREATMENT","2014-10-22",1
"550","ABC","LB","ABC015",6,"","","","","LDL","LDL Cholesterol","CHEMISTRY","LIPID","178","mg/dL","0","160","178",178,"mg/dL",0,160,"HIGH","","","CENTRAL","SERUM","Y",1,"SCREENING","TREATMENT","2014-10-22",1
"551","ABC","LB","ABC015",7,"","","","","ALP","Alkaline Phosphatase","CHEMISTRY","LIVER FUNCTION","70","IU/L","44","147","70",70,"IU/L",44,147,"NORMAL","","","CENTRAL","SERUM","Y",1,"SCREENING","TREATMENT","2014-10-22",1
"552","ABC","LB","ABC015",8,"","","","","CHOL","Cholesterol","CHEMISTRY","LIPID","227","mg/dL","100","200","227",227,"mg/dL",100,200,"HIGH","","","CENTRAL","SERUM","Y",1,"SCREENING","TREATMENT","2014-10-22",1
"553","ABC","LB","ABC015",9,"","","","","HDL","HDL Cholesterol","CHEMISTRY","LIPID","34","mg/dL","40","999","34",34,"mg/dL",40,999,"LOW","","","CENTRAL","SERUM","",2,"VISIT 2","TREATMENT","2014-10-30",9
"554","ABC","LB","ABC015",10,"","","","","AST","Aspartate Aminotransferase","CHEMISTRY","LIVER FUNCTION","27","IU/L","10","40","27",27,"IU/L",10,40,"NORMAL","","","CENTRAL","SERUM","",2,"VISIT 2","TREATMENT","2014-10-30",9
"555","ABC","LB","ABC015",11,"","","","","BILI","Bilirubin","CHEMISTRY","LIVER FUNCTION","0.6","mg/dL","0.3","1.9","0.6",0.6,"mg/dL",0.3,1.9,"NORMAL","","","CENTRAL","SERUM","",2,"VISIT 2","TREATMENT","2014-10-30",9
"556","ABC","LB","ABC015",12,"","","","","TRIG","Triglycerides","CHEMISTRY","LIPID","206","mg/dL","0","200","206",206,"mg/dL",0,200,"HIGH","","","CENTRAL","SERUM","",2,"VISIT 2","TREATMENT","2014-10-30",9
"557","ABC","LB","ABC015",13,"","","","","ALT","Alanine Aminotransferase","CHEMISTRY","LIVER FUNCTION","38","IU/L","7","56","38",38,"IU/L",7,56,"NORMAL","","","CENTRAL","SERUM","",2,"VISIT 2","TREATMENT","2014-10-30",9
"558","ABC","LB","ABC015",14,"","","","","LDL","LDL Cholesterol","CHEMISTRY","LIPID","177","mg/dL","0","160","177",177,"mg/dL",0,160,"HIGH","","","CENTRAL","SERUM","",2,"VISIT 2","TREATMENT","2014-10-30",9
"559","ABC","LB","ABC015",15,"","","","","ALP","Alkaline Phosphatase","CHEMISTRY","LIVER FUNCTION","78","IU/L","44","147","78",78,"IU/L",44,147,"NORMAL","","","CENTRAL","SERUM","",2,"VISIT 2","TREATMENT","2014-10-30",9
"560","ABC","LB","ABC015",16,"","","","","CHOL","Cholesterol","CHEMISTRY","LIPID","206","mg/dL","100","200","206",206,"mg/dL",100,200,"HIGH","","","CENTRAL","SERUM","",2,"VISIT 2","TREATMENT","2014-10-30",9
"561","ABC","LB","ABC015",17,"","","","","HDL","HDL Cholesterol","CHEMISTRY","LIPID","44","mg/dL","40","999","44",44,"mg/dL",40,999,"NORMAL","","","CENTRAL","SERUM","",3,"VISIT 3","TREATMENT","2014-11-04",14
"562","ABC","LB","ABC015",18,"","","","","AST","Aspartate Aminotransferase","CHEMISTRY","LIVER FUNCTION","38","IU/L","10","40","38",38,"IU/L",10,40,"NORMAL","","","CENTRAL","SERUM","",3,"VISIT 3","TREATMENT","2014-11-04",14
"563","ABC","LB","ABC015",19,"","","","","BILI","Bilirubin","CHEMISTRY","LIVER FUNCTION","1","mg/dL","0.3","1.9","1",1,"mg/dL",0.3,1.9,"NORMAL","","","CENTRAL","SERUM","",3,"VISIT 3","TREATMENT","2014-11-04",14
"564","ABC","LB","ABC015",20,"","","","","TRIG","Triglycerides","CHEMISTRY","LIPID","233","mg/dL","0","200","233",233,"mg/dL",0,200,"HIGH","","","CENTRAL","SERUM","",3,"VISIT 3","TREATMENT","2014-11-04",14
"565","ABC","LB","ABC015",21,"","","","","ALT","Alanine Aminotransferase","CHEMISTRY","LIVER FUNCTION","30","IU/L","7","56","30",30,"IU/L",7,56,"NORMAL","","","CENTRAL","SERUM","",3,"VISIT 3","TREATMENT","2014-11-04",14
"566","ABC","LB","ABC015",22,"","","","","LDL","LDL Cholesterol","CHEMISTRY","LIPID","173","mg/dL","0","160","173",173,"mg/dL",0,160,"HIGH","","","CENTRAL","SERUM","",3,"VISIT 3","TREATMENT","2014-11-04",14
"567","ABC","LB","ABC015",23,"","","","","ALP","Alkaline Phosphatase","CHEMISTRY","LIVER FUNCTION","77","IU/L","44","147","77",77,"IU/L",44,147,"NORMAL","","","CENTRAL","SERUM","",3,"VISIT 3","TREATMENT","2014-11-04",14
"568","ABC","LB","ABC015",24,"","","","","CHOL","Cholesterol","CHEMISTRY","LIPID","221","mg/dL","100","200","221",221,"mg/dL",100,200,"HIGH","","","CENTRAL","SERUM","",3,"VISIT 3","TREATMENT","2014-11-04",14
"569","ABC","LB","ABC015",25,"","","","","HDL","HDL Cholesterol","CHEMISTRY","LIPID","42","mg/dL","40","999","42",42,"mg/dL",40,999,"NORMAL","","","CENTRAL","SERUM","",4,"VISIT 4","TREATMENT","2014-11-11",21
"570","ABC","LB","ABC015",26,"","","","","AST","Aspartate Aminotransferase","CHEMISTRY","LIVER FUNCTION","19","IU/L","10","40","19",19,"IU/L",10,40,"NORMAL","","","CENTRAL","SERUM","",4,"VISIT 4","TREATMENT","2014-11-11",21
"571","ABC","LB","ABC015",27,"","","","","BILI","Bilirubin","CHEMISTRY","LIVER FUNCTION","0.7","mg/dL","0.3","1.9","0.7",0.7,"mg/dL",0.3,1.9,"NORMAL","","","CENTRAL","SERUM","",4,"VISIT 4","TREATMENT","2014-11-11",21
"572","ABC","LB","ABC015",28,"","","","","TRIG","Triglycerides","CHEMISTRY","LIPID","221","mg/dL","0","200","221",221,"mg/dL",0,200,"HIGH","","","CENTRAL","SERUM","",4,"VISIT 4","TREATMENT","2014-11-11",21
"573","ABC","LB","ABC015",29,"","","","","ALT","Alanine Aminotransferase","CHEMISTRY","LIVER FUNCTION","28","IU/L","7","56","28",28,"IU/L",7,56,"NORMAL","","","CENTRAL","SERUM","",4,"VISIT 4","TREATMENT","2014-11-11",21
"574","ABC","LB","ABC015",30,"","","","","LDL","LDL Cholesterol","CHEMISTRY","LIPID","179","mg/dL","0","160","179",179,"mg/dL",0,160,"HIGH","","","CENTRAL","SERUM","",4,"VISIT 4","TREATMENT","2014-11-11",21
"575","ABC","LB","ABC015",31,"","","","","ALP","Alkaline Phosphatase","CHEMISTRY","LIVER FUNCTION","66","IU/L","44","147","66",66,"IU/L",44,147,"NORMAL","","","CENTRAL","SERUM","",4,"VISIT 4","TREATMENT","2014-11-11",21
"576","ABC","LB","ABC015",32,"","","","","CHOL","Cholesterol","CHEMISTRY","LIPID","227","mg/dL","100","200","227",227,"mg/dL",100,200,"HIGH","","","CENTRAL","SERUM","",4,"VISIT 4","TREATMENT","2014-11-11",21
"577","ABC","LB","ABC015",33,"","","","","HDL","HDL Cholesterol","CHEMISTRY","LIPID","43","mg/dL","40","999","43",43,"mg/dL",40,999,"NORMAL","","","CENTRAL","SERUM","",5,"VISIT 5","TREATMENT","2014-11-18",28
"578","ABC","LB","ABC015",34,"","","","","AST","Aspartate Aminotransferase","CHEMISTRY","LIVER FUNCTION","33","IU/L","10","40","33",33,"IU/L",10,40,"NORMAL","","","CENTRAL","SERUM","",5,"VISIT 5","TREATMENT","2014-11-18",28
"579","ABC","LB","ABC015",35,"","","","","BILI","Bilirubin","CHEMISTRY","LIVER FUNCTION","0.7","mg/dL","0.3","1.9","0.7",0.7,"mg/dL",0.3,1.9,"NORMAL","","","CENTRAL","SERUM","",5,"VISIT 5","TREATMENT","2014-11-18",28
"580","ABC","LB","ABC015",36,"","","","","TRIG","Triglycerides","CHEMISTRY","LIPID","229","mg/dL","0","200","229",229,"mg/dL",0,200,"HIGH","","","CENTRAL","SERUM","",5,"VISIT 5","TREATMENT","2014-11-18",28
"581","ABC","LB","ABC015",37,"","","","","ALT","Alanine Aminotransferase","CHEMISTRY","LIVER FUNCTION","32","IU/L","7","56","32",32,"IU/L",7,56,"NORMAL","","","CENTRAL","SERUM","",5,"VISIT 5","TREATMENT","2014-11-18",28
"582","ABC","LB","ABC015",38,"","","","","LDL","LDL Cholesterol","CHEMISTRY","LIPID","186","mg/dL","0","160","186",186,"mg/dL",0,160,"HIGH","","","CENTRAL","SERUM","",5,"VISIT 5","TREATMENT","2014-11-18",28
"583","ABC","LB","ABC015",39,"","","","","ALP","Alkaline Phosphatase","CHEMISTRY","LIVER FUNCTION","71","IU/L","44","147","71",71,"IU/L",44,147,"NORMAL","","","CENTRAL","SERUM","",5,"VISIT 5","TREATMENT","2014-11-18",28
"584","ABC","LB","ABC015",40,"","","","","CHOL","Cholesterol","CHEMISTRY","LIPID","238","mg/dL","100","200","238",238,"mg/dL",100,200,"HIGH","","","CENTRAL","SERUM","",5,"VISIT 5","TREATMENT","2014-11-18",28
"585","ABC","LB","ABC016",1,"","","","","HDL","HDL Cholesterol","CHEMISTRY","LIPID","44","mg/dL","40","999","44",44,"mg/dL",40,999,"NORMAL","","","CENTRAL","SERUM","Y",1,"SCREENING","TREATMENT","2014-08-16",1
"586","ABC","LB","ABC016",2,"","","","","AST","Aspartate Aminotransferase","CHEMISTRY","LIVER FUNCTION","22","IU/L","10","40","22",22,"IU/L",10,40,"NORMAL","","","CENTRAL","SERUM","Y",1,"SCREENING","TREATMENT","2014-08-16",1
"587","ABC","LB","ABC016",3,"","","","","BILI","Bilirubin","CHEMISTRY","LIVER FUNCTION","0.5","mg/dL","0.3","1.9","0.5",0.5,"mg/dL",0.3,1.9,"NORMAL","","","CENTRAL","SERUM","Y",1,"SCREENING","TREATMENT","2014-08-16",1
"588","ABC","LB","ABC016",4,"","","","","TRIG","Triglycerides","CHEMISTRY","LIPID","206","mg/dL","0","200","206",206,"mg/dL",0,200,"HIGH","","","CENTRAL","SERUM","Y",1,"SCREENING","TREATMENT","2014-08-16",1
"589","ABC","LB","ABC016",5,"","","","","ALT","Alanine Aminotransferase","CHEMISTRY","LIVER FUNCTION","36","IU/L","7","56","36",36,"IU/L",7,56,"NORMAL","","","CENTRAL","SERUM","Y",1,"SCREENING","TREATMENT","2014-08-16",1
"590","ABC","LB","ABC016",6,"","","","","LDL","LDL Cholesterol","CHEMISTRY","LIPID","173","mg/dL","0","160","173",173,"mg/dL",0,160,"HIGH","","","CENTRAL","SERUM","Y",1,"SCREENING","TREATMENT","2014-08-16",1
"591","ABC","LB","ABC016",7,"","","","","ALP","Alkaline Phosphatase","CHEMISTRY","LIVER FUNCTION","77","IU/L","44","147","77",77,"IU/L",44,147,"NORMAL","","","CENTRAL","SERUM","Y",1,"SCREENING","TREATMENT","2014-08-16",1
"592","ABC","LB","ABC016",8,"","","","","CHOL","Cholesterol","CHEMISTRY","LIPID","231","mg/dL","100","200","231",231,"mg/dL",100,200,"HIGH","","","CENTRAL","SERUM","Y",1,"SCREENING","TREATMENT","2014-08-16",1
"593","ABC","LB","ABC016",9,"","","","","HDL","HDL Cholesterol","CHEMISTRY","LIPID","55","mg/dL","40","999","55",55,"mg/dL",40,999,"NORMAL","","","CENTRAL","SERUM","",2,"VISIT 2","TREATMENT","2014-08-24",9
"594","ABC","LB","ABC016",10,"","","","","AST","Aspartate Aminotransferase","CHEMISTRY","LIVER FUNCTION","23","IU/L","10","40","23",23,"IU/L",10,40,"NORMAL","","","CENTRAL","SERUM","",2,"VISIT 2","TREATMENT","2014-08-24",9
"595","ABC","LB","ABC016",11,"","","","","BILI","Bilirubin","CHEMISTRY","LIVER FUNCTION","0.5","mg/dL","0.3","1.9","0.5",0.5,"mg/dL",0.3,1.9,"NORMAL","","","CENTRAL","SERUM","",2,"VISIT 2","TREATMENT","2014-08-24",9
"596","ABC","LB","ABC016",12,"","","","","TRIG","Triglycerides","CHEMISTRY","LIPID","224","mg/dL","0","200","224",224,"mg/dL",0,200,"HIGH","","","CENTRAL","SERUM","",2,"VISIT 2","TREATMENT","2014-08-24",9
"597","ABC","LB","ABC016",13,"","","","","ALT","Alanine Aminotransferase","CHEMISTRY","LIVER FUNCTION","27","IU/L","7","56","27",27,"IU/L",7,56,"NORMAL","","","CENTRAL","SERUM","",2,"VISIT 2","TREATMENT","2014-08-24",9
"598","ABC","LB","ABC016",14,"","","","","LDL","LDL Cholesterol","CHEMISTRY","LIPID","166","mg/dL","0","160","166",166,"mg/dL",0,160,"HIGH","","","CENTRAL","SERUM","",2,"VISIT 2","TREATMENT","2014-08-24",9
"599","ABC","LB","ABC016",15,"","","","","ALP","Alkaline Phosphatase","CHEMISTRY","LIVER FUNCTION","77","IU/L","44","147","77",77,"IU/L",44,147,"NORMAL","","","CENTRAL","SERUM","",2,"VISIT 2","TREATMENT","2014-08-24",9
"600","ABC","LB","ABC016",16,"","","","","CHOL","Cholesterol","CHEMISTRY","LIPID","209","mg/dL","100","200","209",209,"mg/dL",100,200,"HIGH","","","CENTRAL","SERUM","",2,"VISIT 2","TREATMENT","2014-08-24",9
"601","ABC","LB","ABC016",17,"","","","","HDL","HDL Cholesterol","CHEMISTRY","LIPID","52","mg/dL","40","999","52",52,"mg/dL",40,999,"NORMAL","","","CENTRAL","SERUM","",3,"VISIT 3","TREATMENT","2014-08-29",14
"602","ABC","LB","ABC016",18,"","","","","AST","Aspartate Aminotransferase","CHEMISTRY","LIVER FUNCTION","31","IU/L","10","40","31",31,"IU/L",10,40,"NORMAL","","","CENTRAL","SERUM","",3,"VISIT 3","TREATMENT","2014-08-29",14
"603","ABC","LB","ABC016",19,"","","","","BILI","Bilirubin","CHEMISTRY","LIVER FUNCTION","1.1","mg/dL","0.3","1.9","1.1",1.1,"mg/dL",0.3,1.9,"NORMAL","","","CENTRAL","SERUM","",3,"VISIT 3","TREATMENT","2014-08-29",14
"604","ABC","LB","ABC016",20,"","","","","TRIG","Triglycerides","CHEMISTRY","LIPID","224","mg/dL","0","200","224",224,"mg/dL",0,200,"HIGH","","","CENTRAL","SERUM","",3,"VISIT 3","TREATMENT","2014-08-29",14
"605","ABC","LB","ABC016",21,"","","","","ALT","Alanine Aminotransferase","CHEMISTRY","LIVER FUNCTION","34","IU/L","7","56","34",34,"IU/L",7,56,"NORMAL","","","CENTRAL","SERUM","",3,"VISIT 3","TREATMENT","2014-08-29",14
"606","ABC","LB","ABC016",22,"","","","","LDL","LDL Cholesterol","CHEMISTRY","LIPID","168","mg/dL","0","160","168",168,"mg/dL",0,160,"HIGH","","","CENTRAL","SERUM","",3,"VISIT 3","TREATMENT","2014-08-29",14
"607","ABC","LB","ABC016",23,"","","","","ALP","Alkaline Phosphatase","CHEMISTRY","LIVER FUNCTION","78","IU/L","44","147","78",78,"IU/L",44,147,"NORMAL","","","CENTRAL","SERUM","",3,"VISIT 3","TREATMENT","2014-08-29",14
"608","ABC","LB","ABC016",24,"","","","","CHOL","Cholesterol","CHEMISTRY","LIPID","215","mg/dL","100","200","215",215,"mg/dL",100,200,"HIGH","","","CENTRAL","SERUM","",3,"VISIT 3","TREATMENT","2014-08-29",14
"609","ABC","LB","ABC016",25,"","","","","HDL","HDL Cholesterol","CHEMISTRY","LIPID","51","mg/dL","40","999","51",51,"mg/dL",40,999,"NORMAL","","","CENTRAL","SERUM","",4,"VISIT 4","TREATMENT","2014-09-05",21
"610","ABC","LB","ABC016",26,"","","","","AST","Aspartate Aminotransferase","CHEMISTRY","LIVER FUNCTION","28","IU/L","10","40","28",28,"IU/L",10,40,"NORMAL","","","CENTRAL","SERUM","",4,"VISIT 4","TREATMENT","2014-09-05",21
"611","ABC","LB","ABC016",27,"","","","","BILI","Bilirubin","CHEMISTRY","LIVER FUNCTION","0.6","mg/dL","0.3","1.9","0.6",0.6,"mg/dL",0.3,1.9,"NORMAL","","","CENTRAL","SERUM","",4,"VISIT 4","TREATMENT","2014-09-05",21
"612","ABC","LB","ABC016",28,"","","","","TRIG","Triglycerides","CHEMISTRY","LIPID","203","mg/dL","0","200","203",203,"mg/dL",0,200,"HIGH","","","CENTRAL","SERUM","",4,"VISIT 4","TREATMENT","2014-09-05",21
"613","ABC","LB","ABC016",29,"","","","","ALT","Alanine Aminotransferase","CHEMISTRY","LIVER FUNCTION","49","IU/L","7","56","49",49,"IU/L",7,56,"NORMAL","","","CENTRAL","SERUM","",4,"VISIT 4","TREATMENT","2014-09-05",21
"614","ABC","LB","ABC016",30,"","","","","LDL","LDL Cholesterol","CHEMISTRY","LIPID","162","mg/dL","0","160","162",162,"mg/dL",0,160,"HIGH","","","CENTRAL","SERUM","",4,"VISIT 4","TREATMENT","2014-09-05",21
"615","ABC","LB","ABC016",31,"","","","","ALP","Alkaline Phosphatase","CHEMISTRY","LIVER FUNCTION","76","IU/L","44","147","76",76,"IU/L",44,147,"NORMAL","","","CENTRAL","SERUM","",4,"VISIT 4","TREATMENT","2014-09-05",21
"616","ABC","LB","ABC016",32,"","","","","CHOL","Cholesterol","CHEMISTRY","LIPID","202","mg/dL","100","200","202",202,"mg/dL",100,200,"HIGH","","","CENTRAL","SERUM","",4,"VISIT 4","TREATMENT","2014-09-05",21
"617","ABC","LB","ABC016",33,"","","","","LDL","LDL Cholesterol","CHEMISTRY","LIPID","165","mg/dL","0","160","165",165,"mg/dL",0,160,"HIGH","","","CENTRAL","SERUM","",5,"VISIT 5","TREATMENT","2014-09-12",28
"618","ABC","LB","ABC016",34,"","","","","TRIG","Triglycerides","CHEMISTRY","LIPID","199","mg/dL","0","200","199",199,"mg/dL",0,200,"NORMAL","","","CENTRAL","SERUM","",5,"VISIT 5","TREATMENT","2014-09-12",28
"619","ABC","LB","ABC016",35,"","","","","HDL","HDL Cholesterol","CHEMISTRY","LIPID","54","mg/dL","40","999","54",54,"mg/dL",40,999,"NORMAL","","","CENTRAL","SERUM","",5,"VISIT 5","TREATMENT","2014-09-12",28
"620","ABC","LB","ABC016",36,"","","","","BILI","Bilirubin","CHEMISTRY","LIVER FUNCTION","0.9","mg/dL","0.3","1.9","0.9",0.9,"mg/dL",0.3,1.9,"NORMAL","","","CENTRAL","SERUM","",5,"VISIT 5","TREATMENT","2014-09-12",28
"621","ABC","LB","ABC016",37,"","","","","ALT","Alanine Aminotransferase","CHEMISTRY","LIVER FUNCTION","26","IU/L","7","56","26",26,"IU/L",7,56,"NORMAL","","","CENTRAL","SERUM","",5,"VISIT 5","TREATMENT","2014-09-12",28
"622","ABC","LB","ABC016",38,"","","","","AST","Aspartate Aminotransferase","CHEMISTRY","LIVER FUNCTION","33","IU/L","10","40","33",33,"IU/L",10,40,"NORMAL","","","CENTRAL","SERUM","",5,"VISIT 5","TREATMENT","2014-09-12",28
"623","ABC","LB","ABC016",39,"","","","","ALP","Alkaline Phosphatase","CHEMISTRY","LIVER FUNCTION","69","IU/L","44","147","69",69,"IU/L",44,147,"NORMAL","","","CENTRAL","SERUM","",5,"VISIT 5","TREATMENT","2014-09-12",28
"624","ABC","LB","ABC016",40,"","","","","CHOL","Cholesterol","CHEMISTRY","LIPID","180","mg/dL","100","200","180",180,"mg/dL",100,200,"NORMAL","","","CENTRAL","SERUM","",5,"VISIT 5","TREATMENT","2014-09-12",28
"625","ABC","LB","ABC017",1,"","","","","HDL","HDL Cholesterol","CHEMISTRY","LIPID","42","mg/dL","40","999","42",42,"mg/dL",40,999,"NORMAL","","","CENTRAL","SERUM","Y",1,"SCREENING","TREATMENT","2014-05-11",1
"626","ABC","LB","ABC017",2,"","","","","AST","Aspartate Aminotransferase","CHEMISTRY","LIVER FUNCTION","36","IU/L","10","40","36",36,"IU/L",10,40,"NORMAL","","","CENTRAL","SERUM","Y",1,"SCREENING","TREATMENT","2014-05-11",1
"627","ABC","LB","ABC017",3,"","","","","BILI","Bilirubin","CHEMISTRY","LIVER FUNCTION","0.7","mg/dL","0.3","1.9","0.7",0.7,"mg/dL",0.3,1.9,"NORMAL","","","CENTRAL","SERUM","Y",1,"SCREENING","TREATMENT","2014-05-11",1
"628","ABC","LB","ABC017",4,"","","","","TRIG","Triglycerides","CHEMISTRY","LIPID","220","mg/dL","0","200","220",220,"mg/dL",0,200,"HIGH","","","CENTRAL","SERUM","Y",1,"SCREENING","TREATMENT","2014-05-11",1
"629","ABC","LB","ABC017",5,"","","","","ALT","Alanine Aminotransferase","CHEMISTRY","LIVER FUNCTION","31","IU/L","7","56","31",31,"IU/L",7,56,"NORMAL","","","CENTRAL","SERUM","Y",1,"SCREENING","TREATMENT","2014-05-11",1
"630","ABC","LB","ABC017",6,"","","","","LDL","LDL Cholesterol","CHEMISTRY","LIPID","168","mg/dL","0","160","168",168,"mg/dL",0,160,"HIGH","","","CENTRAL","SERUM","Y",1,"SCREENING","TREATMENT","2014-05-11",1
"631","ABC","LB","ABC017",7,"","","","","ALP","Alkaline Phosphatase","CHEMISTRY","LIVER FUNCTION","87","IU/L","44","147","87",87,"IU/L",44,147,"NORMAL","","","CENTRAL","SERUM","Y",1,"SCREENING","TREATMENT","2014-05-11",1
"632","ABC","LB","ABC017",8,"","","","","CHOL","Cholesterol","CHEMISTRY","LIPID","201","mg/dL","100","200","201",201,"mg/dL",100,200,"HIGH","","","CENTRAL","SERUM","Y",1,"SCREENING","TREATMENT","2014-05-11",1
"633","ABC","LB","ABC017",9,"","","","","HDL","HDL Cholesterol","CHEMISTRY","LIPID","44","mg/dL","40","999","44",44,"mg/dL",40,999,"NORMAL","","","CENTRAL","SERUM","",2,"VISIT 2","TREATMENT","2014-05-18",8
"634","ABC","LB","ABC017",10,"","","","","AST","Aspartate Aminotransferase","CHEMISTRY","LIVER FUNCTION","26","IU/L","10","40","26",26,"IU/L",10,40,"NORMAL","","","CENTRAL","SERUM","",2,"VISIT 2","TREATMENT","2014-05-18",8
"635","ABC","LB","ABC017",11,"","","","","BILI","Bilirubin","CHEMISTRY","LIVER FUNCTION","0.8","mg/dL","0.3","1.9","0.8",0.8,"mg/dL",0.3,1.9,"NORMAL","","","CENTRAL","SERUM","",2,"VISIT 2","TREATMENT","2014-05-18",8
"636","ABC","LB","ABC017",12,"","","","","TRIG","Triglycerides","CHEMISTRY","LIPID","230","mg/dL","0","200","230",230,"mg/dL",0,200,"HIGH","","","CENTRAL","SERUM","",2,"VISIT 2","TREATMENT","2014-05-18",8
"637","ABC","LB","ABC017",13,"","","","","ALT","Alanine Aminotransferase","CHEMISTRY","LIVER FUNCTION","25","IU/L","7","56","25",25,"IU/L",7,56,"NORMAL","","","CENTRAL","SERUM","",2,"VISIT 2","TREATMENT","2014-05-18",8
"638","ABC","LB","ABC017",14,"","","","","LDL","LDL Cholesterol","CHEMISTRY","LIPID","170","mg/dL","0","160","170",170,"mg/dL",0,160,"HIGH","","","CENTRAL","SERUM","",2,"VISIT 2","TREATMENT","2014-05-18",8
"639","ABC","LB","ABC017",15,"","","","","ALP","Alkaline Phosphatase","CHEMISTRY","LIVER FUNCTION","81","IU/L","44","147","81",81,"IU/L",44,147,"NORMAL","","","CENTRAL","SERUM","",2,"VISIT 2","TREATMENT","2014-05-18",8
"640","ABC","LB","ABC017",16,"","","","","CHOL","Cholesterol","CHEMISTRY","LIPID","221","mg/dL","100","200","221",221,"mg/dL",100,200,"HIGH","","","CENTRAL","SERUM","",2,"VISIT 2","TREATMENT","2014-05-18",8
"641","ABC","LB","ABC017",17,"","","","","HDL","HDL Cholesterol","CHEMISTRY","LIPID","43","mg/dL","40","999","43",43,"mg/dL",40,999,"NORMAL","","","CENTRAL","SERUM","",3,"VISIT 3","TREATMENT","2014-05-25",15
"642","ABC","LB","ABC017",18,"","","","","AST","Aspartate Aminotransferase","CHEMISTRY","LIVER FUNCTION","27","IU/L","10","40","27",27,"IU/L",10,40,"NORMAL","","","CENTRAL","SERUM","",3,"VISIT 3","TREATMENT","2014-05-25",15
"643","ABC","LB","ABC017",19,"","","","","BILI","Bilirubin","CHEMISTRY","LIVER FUNCTION","0.5","mg/dL","0.3","1.9","0.5",0.5,"mg/dL",0.3,1.9,"NORMAL","","","CENTRAL","SERUM","",3,"VISIT 3","TREATMENT","2014-05-25",15
"644","ABC","LB","ABC017",20,"","","","","TRIG","Triglycerides","CHEMISTRY","LIPID","219","mg/dL","0","200","219",219,"mg/dL",0,200,"HIGH","","","CENTRAL","SERUM","",3,"VISIT 3","TREATMENT","2014-05-25",15
"645","ABC","LB","ABC017",21,"","","","","ALT","Alanine Aminotransferase","CHEMISTRY","LIVER FUNCTION","33","IU/L","7","56","33",33,"IU/L",7,56,"NORMAL","","","CENTRAL","SERUM","",3,"VISIT 3","TREATMENT","2014-05-25",15
"646","ABC","LB","ABC017",22,"","","","","LDL","LDL Cholesterol","CHEMISTRY","LIPID","162","mg/dL","0","160","162",162,"mg/dL",0,160,"HIGH","","","CENTRAL","SERUM","",3,"VISIT 3","TREATMENT","2014-05-25",15
"647","ABC","LB","ABC017",23,"","","","","ALP","Alkaline Phosphatase","CHEMISTRY","LIVER FUNCTION","82","IU/L","44","147","82",82,"IU/L",44,147,"NORMAL","","","CENTRAL","SERUM","",3,"VISIT 3","TREATMENT","2014-05-25",15
"648","ABC","LB","ABC017",24,"","","","","CHOL","Cholesterol","CHEMISTRY","LIPID","231","mg/dL","100","200","231",231,"mg/dL",100,200,"HIGH","","","CENTRAL","SERUM","",3,"VISIT 3","TREATMENT","2014-05-25",15
"649","ABC","LB","ABC017",25,"","","","","HDL","HDL Cholesterol","CHEMISTRY","LIPID","46","mg/dL","40","999","46",46,"mg/dL",40,999,"NORMAL","","","CENTRAL","SERUM","",4,"VISIT 4","TREATMENT","2014-06-02",23
"650","ABC","LB","ABC017",26,"","","","","AST","Aspartate Aminotransferase","CHEMISTRY","LIVER FUNCTION","21","IU/L","10","40","21",21,"IU/L",10,40,"NORMAL","","","CENTRAL","SERUM","",4,"VISIT 4","TREATMENT","2014-06-02",23
"651","ABC","LB","ABC017",27,"","","","","BILI","Bilirubin","CHEMISTRY","LIVER FUNCTION","0.9","mg/dL","0.3","1.9","0.9",0.9,"mg/dL",0.3,1.9,"NORMAL","","","CENTRAL","SERUM","",4,"VISIT 4","TREATMENT","2014-06-02",23
"652","ABC","LB","ABC017",28,"","","","","TRIG","Triglycerides","CHEMISTRY","LIPID","218","mg/dL","0","200","218",218,"mg/dL",0,200,"HIGH","","","CENTRAL","SERUM","",4,"VISIT 4","TREATMENT","2014-06-02",23
"653","ABC","LB","ABC017",29,"","","","","ALT","Alanine Aminotransferase","CHEMISTRY","LIVER FUNCTION","34","IU/L","7","56","34",34,"IU/L",7,56,"NORMAL","","","CENTRAL","SERUM","",4,"VISIT 4","TREATMENT","2014-06-02",23
"654","ABC","LB","ABC017",30,"","","","","LDL","LDL Cholesterol","CHEMISTRY","LIPID","174","mg/dL","0","160","174",174,"mg/dL",0,160,"HIGH","","","CENTRAL","SERUM","",4,"VISIT 4","TREATMENT","2014-06-02",23
"655","ABC","LB","ABC017",31,"","","","","ALP","Alkaline Phosphatase","CHEMISTRY","LIVER FUNCTION","77","IU/L","44","147","77",77,"IU/L",44,147,"NORMAL","","","CENTRAL","SERUM","",4,"VISIT 4","TREATMENT","2014-06-02",23
"656","ABC","LB","ABC017",32,"","","","","CHOL","Cholesterol","CHEMISTRY","LIPID","204","mg/dL","100","200","204",204,"mg/dL",100,200,"HIGH","","","CENTRAL","SERUM","",4,"VISIT 4","TREATMENT","2014-06-02",23
"657","ABC","LB","ABC017",33,"","","","","HDL","HDL Cholesterol","CHEMISTRY","LIPID","42","mg/dL","40","999","42",42,"mg/dL",40,999,"NORMAL","","","CENTRAL","SERUM","",5,"VISIT 5","TREATMENT","2014-06-09",30
"658","ABC","LB","ABC017",34,"","","","","AST","Aspartate Aminotransferase","CHEMISTRY","LIVER FUNCTION","16","IU/L","10","40","16",16,"IU/L",10,40,"NORMAL","","","CENTRAL","SERUM","",5,"VISIT 5","TREATMENT","2014-06-09",30
"659","ABC","LB","ABC017",35,"","","","","BILI","Bilirubin","CHEMISTRY","LIVER FUNCTION","0.8","mg/dL","0.3","1.9","0.8",0.8,"mg/dL",0.3,1.9,"NORMAL","","","CENTRAL","SERUM","",5,"VISIT 5","TREATMENT","2014-06-09",30
"660","ABC","LB","ABC017",36,"","","","","TRIG","Triglycerides","CHEMISTRY","LIPID","217","mg/dL","0","200","217",217,"mg/dL",0,200,"HIGH","","","CENTRAL","SERUM","",5,"VISIT 5","TREATMENT","2014-06-09",30
"661","ABC","LB","ABC017",37,"","","","","ALT","Alanine Aminotransferase","CHEMISTRY","LIVER FUNCTION","34","IU/L","7","56","34",34,"IU/L",7,56,"NORMAL","","","CENTRAL","SERUM","",5,"VISIT 5","TREATMENT","2014-06-09",30
"662","ABC","LB","ABC017",38,"","","","","LDL","LDL Cholesterol","CHEMISTRY","LIPID","170","mg/dL","0","160","170",170,"mg/dL",0,160,"HIGH","","","CENTRAL","SERUM","",5,"VISIT 5","TREATMENT","2014-06-09",30
"663","ABC","LB","ABC017",39,"","","","","ALP","Alkaline Phosphatase","CHEMISTRY","LIVER FUNCTION","78","IU/L","44","147","78",78,"IU/L",44,147,"NORMAL","","","CENTRAL","SERUM","",5,"VISIT 5","TREATMENT","2014-06-09",30
"664","ABC","LB","ABC017",40,"","","","","CHOL","Cholesterol","CHEMISTRY","LIPID","206","mg/dL","100","200","206",206,"mg/dL",100,200,"HIGH","","","CENTRAL","SERUM","",5,"VISIT 5","TREATMENT","2014-06-09",30
"665","ABC","LB","ABC018",1,"","","","","LDL","LDL Cholesterol","CHEMISTRY","LIPID","178","mg/dL","0","160","178",178,"mg/dL",0,160,"HIGH","","","CENTRAL","SERUM","Y",1,"SCREENING","TREATMENT","2014-05-03",1
"666","ABC","LB","ABC018",2,"","","","","AST","Aspartate Aminotransferase","CHEMISTRY","LIVER FUNCTION","33","IU/L","10","40","33",33,"IU/L",10,40,"NORMAL","","","CENTRAL","SERUM","Y",1,"SCREENING","TREATMENT","2014-05-03",1
"667","ABC","LB","ABC018",3,"","","","","BILI","Bilirubin","CHEMISTRY","LIVER FUNCTION","0.6","mg/dL","0.3","1.9","0.6",0.6,"mg/dL",0.3,1.9,"NORMAL","","","CENTRAL","SERUM","Y",1,"SCREENING","TREATMENT","2014-05-03",1
"668","ABC","LB","ABC018",4,"","","","","TRIG","Triglycerides","CHEMISTRY","LIPID","216","mg/dL","0","200","216",216,"mg/dL",0,200,"HIGH","","","CENTRAL","SERUM","Y",1,"SCREENING","TREATMENT","2014-05-03",1
"669","ABC","LB","ABC018",5,"","","","","ALP","Alkaline Phosphatase","CHEMISTRY","LIVER FUNCTION","87","IU/L","44","147","87",87,"IU/L",44,147,"NORMAL","","","CENTRAL","SERUM","Y",1,"SCREENING","TREATMENT","2014-05-03",1
"670","ABC","LB","ABC018",6,"","","","","CHOL","Cholesterol","CHEMISTRY","LIPID","224","mg/dL","100","200","224",224,"mg/dL",100,200,"HIGH","","","CENTRAL","SERUM","Y",1,"SCREENING","TREATMENT","2014-05-03",1
"671","ABC","LB","ABC018",7,"","","","","ALT","Alanine Aminotransferase","CHEMISTRY","LIVER FUNCTION","24","IU/L","7","56","24",24,"IU/L",7,56,"NORMAL","","","CENTRAL","SERUM","Y",1,"SCREENING","TREATMENT","2014-05-03",1
"672","ABC","LB","ABC018",8,"","","","","HDL","HDL Cholesterol","CHEMISTRY","LIPID","40","mg/dL","40","999","40",40,"mg/dL",40,999,"NORMAL","","","CENTRAL","SERUM","Y",1,"SCREENING","TREATMENT","2014-05-03",1
"673","ABC","LB","ABC018",9,"","","","","LDL","LDL Cholesterol","CHEMISTRY","LIPID","170","mg/dL","0","160","170",170,"mg/dL",0,160,"HIGH","","","CENTRAL","SERUM","",2,"VISIT 2","TREATMENT","2014-05-09",7
"674","ABC","LB","ABC018",10,"","","","","AST","Aspartate Aminotransferase","CHEMISTRY","LIVER FUNCTION","33","IU/L","10","40","33",33,"IU/L",10,40,"NORMAL","","","CENTRAL","SERUM","",2,"VISIT 2","TREATMENT","2014-05-09",7
"675","ABC","LB","ABC018",11,"","","","","BILI","Bilirubin","CHEMISTRY","LIVER FUNCTION","0.7","mg/dL","0.3","1.9","0.7",0.7,"mg/dL",0.3,1.9,"NORMAL","","","CENTRAL","SERUM","",2,"VISIT 2","TREATMENT","2014-05-09",7
"676","ABC","LB","ABC018",12,"","","","","TRIG","Triglycerides","CHEMISTRY","LIPID","226","mg/dL","0","200","226",226,"mg/dL",0,200,"HIGH","","","CENTRAL","SERUM","",2,"VISIT 2","TREATMENT","2014-05-09",7
"677","ABC","LB","ABC018",13,"","","","","ALP","Alkaline Phosphatase","CHEMISTRY","LIVER FUNCTION","81","IU/L","44","147","81",81,"IU/L",44,147,"NORMAL","","","CENTRAL","SERUM","",2,"VISIT 2","TREATMENT","2014-05-09",7
"678","ABC","LB","ABC018",14,"","","","","CHOL","Cholesterol","CHEMISTRY","LIPID","208","mg/dL","100","200","208",208,"mg/dL",100,200,"HIGH","","","CENTRAL","SERUM","",2,"VISIT 2","TREATMENT","2014-05-09",7
"679","ABC","LB","ABC018",15,"","","","","ALT","Alanine Aminotransferase","CHEMISTRY","LIVER FUNCTION","27","IU/L","7","56","27",27,"IU/L",7,56,"NORMAL","","","CENTRAL","SERUM","",2,"VISIT 2","TREATMENT","2014-05-09",7
"680","ABC","LB","ABC018",16,"","","","","HDL","HDL Cholesterol","CHEMISTRY","LIPID","44","mg/dL","40","999","44",44,"mg/dL",40,999,"NORMAL","","","CENTRAL","SERUM","",2,"VISIT 2","TREATMENT","2014-05-09",7
"681","ABC","LB","ABC018",17,"","","","","LDL","LDL Cholesterol","CHEMISTRY","LIPID","161","mg/dL","0","160","161",161,"mg/dL",0,160,"HIGH","","","CENTRAL","SERUM","",3,"VISIT 3","TREATMENT","2014-05-18",16
"682","ABC","LB","ABC018",18,"","","","","AST","Aspartate Aminotransferase","CHEMISTRY","LIVER FUNCTION","22","IU/L","10","40","22",22,"IU/L",10,40,"NORMAL","","","CENTRAL","SERUM","",3,"VISIT 3","TREATMENT","2014-05-18",16
"683","ABC","LB","ABC018",19,"","","","","BILI","Bilirubin","CHEMISTRY","LIVER FUNCTION","0.9","mg/dL","0.3","1.9","0.9",0.9,"mg/dL",0.3,1.9,"NORMAL","","","CENTRAL","SERUM","",3,"VISIT 3","TREATMENT","2014-05-18",16
"684","ABC","LB","ABC018",20,"","","","","TRIG","Triglycerides","CHEMISTRY","LIPID","220","mg/dL","0","200","220",220,"mg/dL",0,200,"HIGH","","","CENTRAL","SERUM","",3,"VISIT 3","TREATMENT","2014-05-18",16
"685","ABC","LB","ABC018",21,"","","","","ALP","Alkaline Phosphatase","CHEMISTRY","LIVER FUNCTION","73","IU/L","44","147","73",73,"IU/L",44,147,"NORMAL","","","CENTRAL","SERUM","",3,"VISIT 3","TREATMENT","2014-05-18",16
"686","ABC","LB","ABC018",22,"","","","","CHOL","Cholesterol","CHEMISTRY","LIPID","226","mg/dL","100","200","226",226,"mg/dL",100,200,"HIGH","","","CENTRAL","SERUM","",3,"VISIT 3","TREATMENT","2014-05-18",16
"687","ABC","LB","ABC018",23,"","","","","ALT","Alanine Aminotransferase","CHEMISTRY","LIVER FUNCTION","29","IU/L","7","56","29",29,"IU/L",7,56,"NORMAL","","","CENTRAL","SERUM","",3,"VISIT 3","TREATMENT","2014-05-18",16
"688","ABC","LB","ABC018",24,"","","","","HDL","HDL Cholesterol","CHEMISTRY","LIPID","47","mg/dL","40","999","47",47,"mg/dL",40,999,"NORMAL","","","CENTRAL","SERUM","",3,"VISIT 3","TREATMENT","2014-05-18",16
"689","ABC","LB","ABC018",25,"","","","","LDL","LDL Cholesterol","CHEMISTRY","LIPID","164","mg/dL","0","160","164",164,"mg/dL",0,160,"HIGH","","","CENTRAL","SERUM","",4,"VISIT 4","TREATMENT","2014-05-24",22
"690","ABC","LB","ABC018",26,"","","","","AST","Aspartate Aminotransferase","CHEMISTRY","LIVER FUNCTION","22","IU/L","10","40","22",22,"IU/L",10,40,"NORMAL","","","CENTRAL","SERUM","",4,"VISIT 4","TREATMENT","2014-05-24",22
"691","ABC","LB","ABC018",27,"","","","","BILI","Bilirubin","CHEMISTRY","LIVER FUNCTION","0.7","mg/dL","0.3","1.9","0.7",0.7,"mg/dL",0.3,1.9,"NORMAL","","","CENTRAL","SERUM","",4,"VISIT 4","TREATMENT","2014-05-24",22
"692","ABC","LB","ABC018",28,"","","","","TRIG","Triglycerides","CHEMISTRY","LIPID","214","mg/dL","0","200","214",214,"mg/dL",0,200,"HIGH","","","CENTRAL","SERUM","",4,"VISIT 4","TREATMENT","2014-05-24",22
"693","ABC","LB","ABC018",29,"","","","","ALP","Alkaline Phosphatase","CHEMISTRY","LIVER FUNCTION","74","IU/L","44","147","74",74,"IU/L",44,147,"NORMAL","","","CENTRAL","SERUM","",4,"VISIT 4","TREATMENT","2014-05-24",22
"694","ABC","LB","ABC018",30,"","","","","CHOL","Cholesterol","CHEMISTRY","LIPID","224","mg/dL","100","200","224",224,"mg/dL",100,200,"HIGH","","","CENTRAL","SERUM","",4,"VISIT 4","TREATMENT","2014-05-24",22
"695","ABC","LB","ABC018",31,"","","","","ALT","Alanine Aminotransferase","CHEMISTRY","LIVER FUNCTION","39","IU/L","7","56","39",39,"IU/L",7,56,"NORMAL","","","CENTRAL","SERUM","",4,"VISIT 4","TREATMENT","2014-05-24",22
"696","ABC","LB","ABC018",32,"","","","","HDL","HDL Cholesterol","CHEMISTRY","LIPID","58","mg/dL","40","999","58",58,"mg/dL",40,999,"NORMAL","","","CENTRAL","SERUM","",4,"VISIT 4","TREATMENT","2014-05-24",22
"697","ABC","LB","ABC018",33,"","","","","LDL","LDL Cholesterol","CHEMISTRY","LIPID","153","mg/dL","0","160","153",153,"mg/dL",0,160,"NORMAL","","","CENTRAL","SERUM","",5,"VISIT 5","TREATMENT","2014-06-01",30
"698","ABC","LB","ABC018",34,"","","","","AST","Aspartate Aminotransferase","CHEMISTRY","LIVER FUNCTION","31","IU/L","10","40","31",31,"IU/L",10,40,"NORMAL","","","CENTRAL","SERUM","",5,"VISIT 5","TREATMENT","2014-06-01",30
"699","ABC","LB","ABC018",35,"","","","","BILI","Bilirubin","CHEMISTRY","LIVER FUNCTION","0.4","mg/dL","0.3","1.9","0.4",0.4,"mg/dL",0.3,1.9,"NORMAL","","","CENTRAL","SERUM","",5,"VISIT 5","TREATMENT","2014-06-01",30
"700","ABC","LB","ABC018",36,"","","","","TRIG","Triglycerides","CHEMISTRY","LIPID","200","mg/dL","0","200","200",200,"mg/dL",0,200,"NORMAL","","","CENTRAL","SERUM","",5,"VISIT 5","TREATMENT","2014-06-01",30
"701","ABC","LB","ABC018",37,"","","","","ALP","Alkaline Phosphatase","CHEMISTRY","LIVER FUNCTION","75","IU/L","44","147","75",75,"IU/L",44,147,"NORMAL","","","CENTRAL","SERUM","",5,"VISIT 5","TREATMENT","2014-06-01",30
"702","ABC","LB","ABC018",38,"","","","","CHOL","Cholesterol","CHEMISTRY","LIPID","205","mg/dL","100","200","205",205,"mg/dL",100,200,"HIGH","","","CENTRAL","SERUM","",5,"VISIT 5","TREATMENT","2014-06-01",30
"703","ABC","LB","ABC018",39,"","","","","ALT","Alanine Aminotransferase","CHEMISTRY","LIVER FUNCTION","26","IU/L","7","56","26",26,"IU/L",7,56,"NORMAL","","","CENTRAL","SERUM","",5,"VISIT 5","TREATMENT","2014-06-01",30
"704","ABC","LB","ABC018",40,"","","","","HDL","HDL Cholesterol","CHEMISTRY","LIPID","54","mg/dL","40","999","54",54,"mg/dL",40,999,"NORMAL","","","CENTRAL","SERUM","",5,"VISIT 5","TREATMENT","2014-06-01",30
"705","ABC","LB","ABC019",1,"","","","","HDL","HDL Cholesterol","CHEMISTRY","LIPID","30","mg/dL","40","999","30",30,"mg/dL",40,999,"LOW","","","CENTRAL","SERUM","Y",1,"SCREENING","TREATMENT","2014-04-20",1
"706","ABC","LB","ABC019",2,"","","","","AST","Aspartate Aminotransferase","CHEMISTRY","LIVER FUNCTION","26","IU/L","10","40","26",26,"IU/L",10,40,"NORMAL","","","CENTRAL","SERUM","Y",1,"SCREENING","TREATMENT","2014-04-20",1
"707","ABC","LB","ABC019",3,"","","","","BILI","Bilirubin","CHEMISTRY","LIVER FUNCTION","0.8","mg/dL","0.3","1.9","0.8",0.8,"mg/dL",0.3,1.9,"NORMAL","","","CENTRAL","SERUM","Y",1,"SCREENING","TREATMENT","2014-04-20",1
"708","ABC","LB","ABC019",4,"","","","","TRIG","Triglycerides","CHEMISTRY","LIPID","218","mg/dL","0","200","218",218,"mg/dL",0,200,"HIGH","","","CENTRAL","SERUM","Y",1,"SCREENING","TREATMENT","2014-04-20",1
"709","ABC","LB","ABC019",5,"","","","","ALT","Alanine Aminotransferase","CHEMISTRY","LIVER FUNCTION","31","IU/L","7","56","31",31,"IU/L",7,56,"NORMAL","","","CENTRAL","SERUM","Y",1,"SCREENING","TREATMENT","2014-04-20",1
"710","ABC","LB","ABC019",6,"","","","","LDL","LDL Cholesterol","CHEMISTRY","LIPID","175","mg/dL","0","160","175",175,"mg/dL",0,160,"HIGH","","","CENTRAL","SERUM","Y",1,"SCREENING","TREATMENT","2014-04-20",1
"711","ABC","LB","ABC019",7,"","","","","ALP","Alkaline Phosphatase","CHEMISTRY","LIVER FUNCTION","89","IU/L","44","147","89",89,"IU/L",44,147,"NORMAL","","","CENTRAL","SERUM","Y",1,"SCREENING","TREATMENT","2014-04-20",1
"712","ABC","LB","ABC019",8,"","","","","CHOL","Cholesterol","CHEMISTRY","LIPID","221","mg/dL","100","200","221",221,"mg/dL",100,200,"HIGH","","","CENTRAL","SERUM","Y",1,"SCREENING","TREATMENT","2014-04-20",1
"713","ABC","LB","ABC019",9,"","","","","HDL","HDL Cholesterol","CHEMISTRY","LIPID","39","mg/dL","40","999","39",39,"mg/dL",40,999,"LOW","","","CENTRAL","SERUM","",2,"VISIT 2","TREATMENT","2014-04-27",8
"714","ABC","LB","ABC019",10,"","","","","AST","Aspartate Aminotransferase","CHEMISTRY","LIVER FUNCTION","33","IU/L","10","40","33",33,"IU/L",10,40,"NORMAL","","","CENTRAL","SERUM","",2,"VISIT 2","TREATMENT","2014-04-27",8
"715","ABC","LB","ABC019",11,"","","","","BILI","Bilirubin","CHEMISTRY","LIVER FUNCTION","0.6","mg/dL","0.3","1.9","0.6",0.6,"mg/dL",0.3,1.9,"NORMAL","","","CENTRAL","SERUM","",2,"VISIT 2","TREATMENT","2014-04-27",8
"716","ABC","LB","ABC019",12,"","","","","TRIG","Triglycerides","CHEMISTRY","LIPID","232","mg/dL","0","200","232",232,"mg/dL",0,200,"HIGH","","","CENTRAL","SERUM","",2,"VISIT 2","TREATMENT","2014-04-27",8
"717","ABC","LB","ABC019",13,"","","","","ALT","Alanine Aminotransferase","CHEMISTRY","LIVER FUNCTION","33","IU/L","7","56","33",33,"IU/L",7,56,"NORMAL","","","CENTRAL","SERUM","",2,"VISIT 2","TREATMENT","2014-04-27",8
"718","ABC","LB","ABC019",14,"","","","","LDL","LDL Cholesterol","CHEMISTRY","LIPID","177","mg/dL","0","160","177",177,"mg/dL",0,160,"HIGH","","","CENTRAL","SERUM","",2,"VISIT 2","TREATMENT","2014-04-27",8
"719","ABC","LB","ABC019",15,"","","","","ALP","Alkaline Phosphatase","CHEMISTRY","LIVER FUNCTION","73","IU/L","44","147","73",73,"IU/L",44,147,"NORMAL","","","CENTRAL","SERUM","",2,"VISIT 2","TREATMENT","2014-04-27",8
"720","ABC","LB","ABC019",16,"","","","","CHOL","Cholesterol","CHEMISTRY","LIPID","221","mg/dL","100","200","221",221,"mg/dL",100,200,"HIGH","","","CENTRAL","SERUM","",2,"VISIT 2","TREATMENT","2014-04-27",8
"721","ABC","LB","ABC019",17,"","","","","HDL","HDL Cholesterol","CHEMISTRY","LIPID","43","mg/dL","40","999","43",43,"mg/dL",40,999,"NORMAL","","","CENTRAL","SERUM","",3,"VISIT 3","TREATMENT","2014-05-04",15
"722","ABC","LB","ABC019",18,"","","","","AST","Aspartate Aminotransferase","CHEMISTRY","LIVER FUNCTION","11","IU/L","10","40","11",11,"IU/L",10,40,"NORMAL","","","CENTRAL","SERUM","",3,"VISIT 3","TREATMENT","2014-05-04",15
"723","ABC","LB","ABC019",19,"","","","","BILI","Bilirubin","CHEMISTRY","LIVER FUNCTION","0.9","mg/dL","0.3","1.9","0.9",0.9,"mg/dL",0.3,1.9,"NORMAL","","","CENTRAL","SERUM","",3,"VISIT 3","TREATMENT","2014-05-04",15
"724","ABC","LB","ABC019",20,"","","","","TRIG","Triglycerides","CHEMISTRY","LIPID","217","mg/dL","0","200","217",217,"mg/dL",0,200,"HIGH","","","CENTRAL","SERUM","",3,"VISIT 3","TREATMENT","2014-05-04",15
"725","ABC","LB","ABC019",21,"","","","","ALT","Alanine Aminotransferase","CHEMISTRY","LIVER FUNCTION","34","IU/L","7","56","34",34,"IU/L",7,56,"NORMAL","","","CENTRAL","SERUM","",3,"VISIT 3","TREATMENT","2014-05-04",15
"726","ABC","LB","ABC019",22,"","","","","LDL","LDL Cholesterol","CHEMISTRY","LIPID","175","mg/dL","0","160","175",175,"mg/dL",0,160,"HIGH","","","CENTRAL","SERUM","",3,"VISIT 3","TREATMENT","2014-05-04",15
"727","ABC","LB","ABC019",23,"","","","","ALP","Alkaline Phosphatase","CHEMISTRY","LIVER FUNCTION","78","IU/L","44","147","78",78,"IU/L",44,147,"NORMAL","","","CENTRAL","SERUM","",3,"VISIT 3","TREATMENT","2014-05-04",15
"728","ABC","LB","ABC019",24,"","","","","CHOL","Cholesterol","CHEMISTRY","LIPID","209","mg/dL","100","200","209",209,"mg/dL",100,200,"HIGH","","","CENTRAL","SERUM","",3,"VISIT 3","TREATMENT","2014-05-04",15
"729","ABC","LB","ABC019",25,"","","","","HDL","HDL Cholesterol","CHEMISTRY","LIPID","37","mg/dL","40","999","37",37,"mg/dL",40,999,"LOW","","","CENTRAL","SERUM","",4,"VISIT 4","TREATMENT","2014-05-11",22
"730","ABC","LB","ABC019",26,"","","","","AST","Aspartate Aminotransferase","CHEMISTRY","LIVER FUNCTION","17","IU/L","10","40","17",17,"IU/L",10,40,"NORMAL","","","CENTRAL","SERUM","",4,"VISIT 4","TREATMENT","2014-05-11",22
"731","ABC","LB","ABC019",27,"","","","","BILI","Bilirubin","CHEMISTRY","LIVER FUNCTION","0.8","mg/dL","0.3","1.9","0.8",0.8,"mg/dL",0.3,1.9,"NORMAL","","","CENTRAL","SERUM","",4,"VISIT 4","TREATMENT","2014-05-11",22
"732","ABC","LB","ABC019",28,"","","","","TRIG","Triglycerides","CHEMISTRY","LIPID","229","mg/dL","0","200","229",229,"mg/dL",0,200,"HIGH","","","CENTRAL","SERUM","",4,"VISIT 4","TREATMENT","2014-05-11",22
"733","ABC","LB","ABC019",29,"","","","","ALT","Alanine Aminotransferase","CHEMISTRY","LIVER FUNCTION","23","IU/L","7","56","23",23,"IU/L",7,56,"NORMAL","","","CENTRAL","SERUM","",4,"VISIT 4","TREATMENT","2014-05-11",22
"734","ABC","LB","ABC019",30,"","","","","LDL","LDL Cholesterol","CHEMISTRY","LIPID","178","mg/dL","0","160","178",178,"mg/dL",0,160,"HIGH","","","CENTRAL","SERUM","",4,"VISIT 4","TREATMENT","2014-05-11",22
"735","ABC","LB","ABC019",31,"","","","","ALP","Alkaline Phosphatase","CHEMISTRY","LIVER FUNCTION","76","IU/L","44","147","76",76,"IU/L",44,147,"NORMAL","","","CENTRAL","SERUM","",4,"VISIT 4","TREATMENT","2014-05-11",22
"736","ABC","LB","ABC019",32,"","","","","CHOL","Cholesterol","CHEMISTRY","LIPID","220","mg/dL","100","200","220",220,"mg/dL",100,200,"HIGH","","","CENTRAL","SERUM","",4,"VISIT 4","TREATMENT","2014-05-11",22
"737","ABC","LB","ABC019",33,"","","","","HDL","HDL Cholesterol","CHEMISTRY","LIPID","44","mg/dL","40","999","44",44,"mg/dL",40,999,"NORMAL","","","CENTRAL","SERUM","",5,"VISIT 5","TREATMENT","2014-05-19",30
"738","ABC","LB","ABC019",34,"","","","","AST","Aspartate Aminotransferase","CHEMISTRY","LIVER FUNCTION","33","IU/L","10","40","33",33,"IU/L",10,40,"NORMAL","","","CENTRAL","SERUM","",5,"VISIT 5","TREATMENT","2014-05-19",30
"739","ABC","LB","ABC019",35,"","","","","BILI","Bilirubin","CHEMISTRY","LIVER FUNCTION","0.6","mg/dL","0.3","1.9","0.6",0.6,"mg/dL",0.3,1.9,"NORMAL","","","CENTRAL","SERUM","",5,"VISIT 5","TREATMENT","2014-05-19",30
"740","ABC","LB","ABC019",36,"","","","","TRIG","Triglycerides","CHEMISTRY","LIPID","213","mg/dL","0","200","213",213,"mg/dL",0,200,"HIGH","","","CENTRAL","SERUM","",5,"VISIT 5","TREATMENT","2014-05-19",30
"741","ABC","LB","ABC019",37,"","","","","ALT","Alanine Aminotransferase","CHEMISTRY","LIVER FUNCTION","36","IU/L","7","56","36",36,"IU/L",7,56,"NORMAL","","","CENTRAL","SERUM","",5,"VISIT 5","TREATMENT","2014-05-19",30
"742","ABC","LB","ABC019",38,"","","","","LDL","LDL Cholesterol","CHEMISTRY","LIPID","171","mg/dL","0","160","171",171,"mg/dL",0,160,"HIGH","","","CENTRAL","SERUM","",5,"VISIT 5","TREATMENT","2014-05-19",30
"743","ABC","LB","ABC019",39,"","","","","ALP","Alkaline Phosphatase","CHEMISTRY","LIVER FUNCTION","81","IU/L","44","147","81",81,"IU/L",44,147,"NORMAL","","","CENTRAL","SERUM","",5,"VISIT 5","TREATMENT","2014-05-19",30
"744","ABC","LB","ABC019",40,"","","","","CHOL","Cholesterol","CHEMISTRY","LIPID","218","mg/dL","100","200","218",218,"mg/dL",100,200,"HIGH","","","CENTRAL","SERUM","",5,"VISIT 5","TREATMENT","2014-05-19",30
"745","ABC","LB","ABC020",1,"","","","","TRIG","Triglycerides","CHEMISTRY","LIPID","222","mg/dL","0","200","222",222,"mg/dL",0,200,"HIGH","","","CENTRAL","SERUM","Y",1,"SCREENING","TREATMENT","2014-06-11",1
"746","ABC","LB","ABC020",2,"","","","","LDL","LDL Cholesterol","CHEMISTRY","LIPID","172","mg/dL","0","160","172",172,"mg/dL",0,160,"HIGH","","","CENTRAL","SERUM","Y",1,"SCREENING","TREATMENT","2014-06-11",1
"747","ABC","LB","ABC020",3,"","","","","HDL","HDL Cholesterol","CHEMISTRY","LIPID","43","mg/dL","40","999","43",43,"mg/dL",40,999,"NORMAL","","","CENTRAL","SERUM","Y",1,"SCREENING","TREATMENT","2014-06-11",1
"748","ABC","LB","ABC020",4,"","","","","BILI","Bilirubin","CHEMISTRY","LIVER FUNCTION","1.1","mg/dL","0.3","1.9","1.1",1.1,"mg/dL",0.3,1.9,"NORMAL","","","CENTRAL","SERUM","Y",1,"SCREENING","TREATMENT","2014-06-11",1
"749","ABC","LB","ABC020",5,"","","","","ALT","Alanine Aminotransferase","CHEMISTRY","LIVER FUNCTION","22","IU/L","7","56","22",22,"IU/L",7,56,"NORMAL","","","CENTRAL","SERUM","Y",1,"SCREENING","TREATMENT","2014-06-11",1
"750","ABC","LB","ABC020",6,"","","","","AST","Aspartate Aminotransferase","CHEMISTRY","LIVER FUNCTION","34","IU/L","10","40","34",34,"IU/L",10,40,"NORMAL","","","CENTRAL","SERUM","Y",1,"SCREENING","TREATMENT","2014-06-11",1
"751","ABC","LB","ABC020",7,"","","","","ALP","Alkaline Phosphatase","CHEMISTRY","LIVER FUNCTION","73","IU/L","44","147","73",73,"IU/L",44,147,"NORMAL","","","CENTRAL","SERUM","Y",1,"SCREENING","TREATMENT","2014-06-11",1
"752","ABC","LB","ABC020",8,"","","","","CHOL","Cholesterol","CHEMISTRY","LIPID","223","mg/dL","100","200","223",223,"mg/dL",100,200,"HIGH","","","CENTRAL","SERUM","Y",1,"SCREENING","TREATMENT","2014-06-11",1
"753","ABC","LB","ABC020",9,"","","","","HDL","HDL Cholesterol","CHEMISTRY","LIPID","53","mg/dL","40","999","53",53,"mg/dL",40,999,"NORMAL","","","CENTRAL","SERUM","",2,"VISIT 2","TREATMENT","2014-06-18",8
"754","ABC","LB","ABC020",10,"","","","","AST","Aspartate Aminotransferase","CHEMISTRY","LIVER FUNCTION","26","IU/L","10","40","26",26,"IU/L",10,40,"NORMAL","","","CENTRAL","SERUM","",2,"VISIT 2","TREATMENT","2014-06-18",8
"755","ABC","LB","ABC020",11,"","","","","BILI","Bilirubin","CHEMISTRY","LIVER FUNCTION","1.1","mg/dL","0.3","1.9","1.1",1.1,"mg/dL",0.3,1.9,"NORMAL","","","CENTRAL","SERUM","",2,"VISIT 2","TREATMENT","2014-06-18",8
"756","ABC","LB","ABC020",12,"","","","","TRIG","Triglycerides","CHEMISTRY","LIPID","223","mg/dL","0","200","223",223,"mg/dL",0,200,"HIGH","","","CENTRAL","SERUM","",2,"VISIT 2","TREATMENT","2014-06-18",8
"757","ABC","LB","ABC020",13,"","","","","ALT","Alanine Aminotransferase","CHEMISTRY","LIVER FUNCTION","29","IU/L","7","56","29",29,"IU/L",7,56,"NORMAL","","","CENTRAL","SERUM","",2,"VISIT 2","TREATMENT","2014-06-18",8
"758","ABC","LB","ABC020",14,"","","","","LDL","LDL Cholesterol","CHEMISTRY","LIPID","167","mg/dL","0","160","167",167,"mg/dL",0,160,"HIGH","","","CENTRAL","SERUM","",2,"VISIT 2","TREATMENT","2014-06-18",8
"759","ABC","LB","ABC020",15,"","","","","ALP","Alkaline Phosphatase","CHEMISTRY","LIVER FUNCTION","78","IU/L","44","147","78",78,"IU/L",44,147,"NORMAL","","","CENTRAL","SERUM","",2,"VISIT 2","TREATMENT","2014-06-18",8
"760","ABC","LB","ABC020",16,"","","","","CHOL","Cholesterol","CHEMISTRY","LIPID","209","mg/dL","100","200","209",209,"mg/dL",100,200,"HIGH","","","CENTRAL","SERUM","",2,"VISIT 2","TREATMENT","2014-06-18",8
"761","ABC","LB","ABC020",17,"","","","","TRIG","Triglycerides","CHEMISTRY","LIPID","209","mg/dL","0","200","209",209,"mg/dL",0,200,"HIGH","","","CENTRAL","SERUM","",3,"VISIT 3","TREATMENT","2014-06-26",16
"762","ABC","LB","ABC020",18,"","","","","HDL","HDL Cholesterol","CHEMISTRY","LIPID","44","mg/dL","40","999","44",44,"mg/dL",40,999,"NORMAL","","","CENTRAL","SERUM","",3,"VISIT 3","TREATMENT","2014-06-26",16
"763","ABC","LB","ABC020",19,"","","","","LDL","LDL Cholesterol","CHEMISTRY","LIPID","164","mg/dL","0","160","164",164,"mg/dL",0,160,"HIGH","","","CENTRAL","SERUM","",3,"VISIT 3","TREATMENT","2014-06-26",16
"764","ABC","LB","ABC020",20,"","","","","BILI","Bilirubin","CHEMISTRY","LIVER FUNCTION","0.8","mg/dL","0.3","1.9","0.8",0.8,"mg/dL",0.3,1.9,"NORMAL","","","CENTRAL","SERUM","",3,"VISIT 3","TREATMENT","2014-06-26",16
"765","ABC","LB","ABC020",21,"","","","","ALT","Alanine Aminotransferase","CHEMISTRY","LIVER FUNCTION","31","IU/L","7","56","31",31,"IU/L",7,56,"NORMAL","","","CENTRAL","SERUM","",3,"VISIT 3","TREATMENT","2014-06-26",16
"766","ABC","LB","ABC020",22,"","","","","AST","Aspartate Aminotransferase","CHEMISTRY","LIVER FUNCTION","11","IU/L","10","40","11",11,"IU/L",10,40,"NORMAL","","","CENTRAL","SERUM","",3,"VISIT 3","TREATMENT","2014-06-26",16
"767","ABC","LB","ABC020",23,"","","","","ALP","Alkaline Phosphatase","CHEMISTRY","LIVER FUNCTION","76","IU/L","44","147","76",76,"IU/L",44,147,"NORMAL","","","CENTRAL","SERUM","",3,"VISIT 3","TREATMENT","2014-06-26",16
"768","ABC","LB","ABC020",24,"","","","","CHOL","Cholesterol","CHEMISTRY","LIPID","201","mg/dL","100","200","201",201,"mg/dL",100,200,"HIGH","","","CENTRAL","SERUM","",3,"VISIT 3","TREATMENT","2014-06-26",16
"769","ABC","LB","ABC020",25,"","","","","TRIG","Triglycerides","CHEMISTRY","LIPID","211","mg/dL","0","200","211",211,"mg/dL",0,200,"HIGH","","","CENTRAL","SERUM","",4,"VISIT 4","TREATMENT","2014-07-03",23
"770","ABC","LB","ABC020",26,"","","","","LDL","LDL Cholesterol","CHEMISTRY","LIPID","166","mg/dL","0","160","166",166,"mg/dL",0,160,"HIGH","","","CENTRAL","SERUM","",4,"VISIT 4","TREATMENT","2014-07-03",23
"771","ABC","LB","ABC020",27,"","","","","HDL","HDL Cholesterol","CHEMISTRY","LIPID","58","mg/dL","40","999","58",58,"mg/dL",40,999,"NORMAL","","","CENTRAL","SERUM","",4,"VISIT 4","TREATMENT","2014-07-03",23
"772","ABC","LB","ABC020",28,"","","","","CHOL","Cholesterol","CHEMISTRY","LIPID","205","mg/dL","100","200","205",205,"mg/dL",100,200,"HIGH","","","CENTRAL","SERUM","",4,"VISIT 4","TREATMENT","2014-07-03",23
"773","ABC","LB","ABC020",29,"","","","","BILI","Bilirubin","CHEMISTRY","LIVER FUNCTION","1","mg/dL","0.3","1.9","1",1,"mg/dL",0.3,1.9,"NORMAL","","","CENTRAL","SERUM","",4,"VISIT 4","TREATMENT","2014-07-03",23
"774","ABC","LB","ABC020",30,"","","","","AST","Aspartate Aminotransferase","CHEMISTRY","LIVER FUNCTION","19","IU/L","10","40","19",19,"IU/L",10,40,"NORMAL","","","CENTRAL","SERUM","",4,"VISIT 4","TREATMENT","2014-07-03",23
"775","ABC","LB","ABC020",31,"","","","","ALT","Alanine Aminotransferase","CHEMISTRY","LIVER FUNCTION","35","IU/L","7","56","35",35,"IU/L",7,56,"NORMAL","","","CENTRAL","SERUM","",4,"VISIT 4","TREATMENT","2014-07-03",23
"776","ABC","LB","ABC020",32,"","","","","ALP","Alkaline Phosphatase","CHEMISTRY","LIVER FUNCTION","75","IU/L","44","147","75",75,"IU/L",44,147,"NORMAL","","","CENTRAL","SERUM","",4,"VISIT 4","TREATMENT","2014-07-03",23
"777","ABC","LB","ABC020",33,"","","","","TRIG","Triglycerides","CHEMISTRY","LIPID","181","mg/dL","0","200","181",181,"mg/dL",0,200,"NORMAL","","","CENTRAL","SERUM","",5,"VISIT 5","TREATMENT","2014-07-08",28
"778","ABC","LB","ABC020",34,"","","","","LDL","LDL Cholesterol","CHEMISTRY","LIPID","156","mg/dL","0","160","156",156,"mg/dL",0,160,"NORMAL","","","CENTRAL","SERUM","",5,"VISIT 5","TREATMENT","2014-07-08",28
"779","ABC","LB","ABC020",35,"","","","","HDL","HDL Cholesterol","CHEMISTRY","LIPID","55","mg/dL","40","999","55",55,"mg/dL",40,999,"NORMAL","","","CENTRAL","SERUM","",5,"VISIT 5","TREATMENT","2014-07-08",28
"780","ABC","LB","ABC020",36,"","","","","CHOL","Cholesterol","CHEMISTRY","LIPID","218","mg/dL","100","200","218",218,"mg/dL",100,200,"HIGH","","","CENTRAL","SERUM","",5,"VISIT 5","TREATMENT","2014-07-08",28
"781","ABC","LB","ABC020",37,"","","","","BILI","Bilirubin","CHEMISTRY","LIVER FUNCTION","0.6","mg/dL","0.3","1.9","0.6",0.6,"mg/dL",0.3,1.9,"NORMAL","","","CENTRAL","SERUM","",5,"VISIT 5","TREATMENT","2014-07-08",28
"782","ABC","LB","ABC020",38,"","","","","AST","Aspartate Aminotransferase","CHEMISTRY","LIVER FUNCTION","25","IU/L","10","40","25",25,"IU/L",10,40,"NORMAL","","","CENTRAL","SERUM","",5,"VISIT 5","TREATMENT","2014-07-08",28
"783","ABC","LB","ABC020",39,"","","","","ALT","Alanine Aminotransferase","CHEMISTRY","LIVER FUNCTION","28","IU/L","7","56","28",28,"IU/L",7,56,"NORMAL","","","CENTRAL","SERUM","",5,"VISIT 5","TREATMENT","2014-07-08",28
"784","ABC","LB","ABC020",40,"","","","","ALP","Alkaline Phosphatase","CHEMISTRY","LIVER FUNCTION","74","IU/L","44","147","74",74,"IU/L",44,147,"NORMAL","","","CENTRAL","SERUM","",5,"VISIT 5","TREATMENT","2014-07-08",28
"785","ABC","LB","ABC021",1,"","","","","TRIG","Triglycerides","CHEMISTRY","LIPID","222","mg/dL","0","200","222",222,"mg/dL",0,200,"HIGH","","","CENTRAL","SERUM","Y",1,"SCREENING","TREATMENT","2014-04-07",1
"786","ABC","LB","ABC021",2,"","","","","LDL","LDL Cholesterol","CHEMISTRY","LIPID","178","mg/dL","0","160","178",178,"mg/dL",0,160,"HIGH","","","CENTRAL","SERUM","Y",1,"SCREENING","TREATMENT","2014-04-07",1
"787","ABC","LB","ABC021",3,"","","","","HDL","HDL Cholesterol","CHEMISTRY","LIPID","49","mg/dL","40","999","49",49,"mg/dL",40,999,"NORMAL","","","CENTRAL","SERUM","Y",1,"SCREENING","TREATMENT","2014-04-07",1
"788","ABC","LB","ABC021",4,"","","","","CHOL","Cholesterol","CHEMISTRY","LIPID","221","mg/dL","100","200","221",221,"mg/dL",100,200,"HIGH","","","CENTRAL","SERUM","Y",1,"SCREENING","TREATMENT","2014-04-07",1
"789","ABC","LB","ABC021",5,"","","","","BILI","Bilirubin","CHEMISTRY","LIVER FUNCTION","1.2","mg/dL","0.3","1.9","1.2",1.2,"mg/dL",0.3,1.9,"NORMAL","","","CENTRAL","SERUM","Y",1,"SCREENING","TREATMENT","2014-04-07",1
"790","ABC","LB","ABC021",6,"","","","","AST","Aspartate Aminotransferase","CHEMISTRY","LIVER FUNCTION","28","IU/L","10","40","28",28,"IU/L",10,40,"NORMAL","","","CENTRAL","SERUM","Y",1,"SCREENING","TREATMENT","2014-04-07",1
"791","ABC","LB","ABC021",7,"","","","","ALT","Alanine Aminotransferase","CHEMISTRY","LIVER FUNCTION","27","IU/L","7","56","27",27,"IU/L",7,56,"NORMAL","","","CENTRAL","SERUM","Y",1,"SCREENING","TREATMENT","2014-04-07",1
"792","ABC","LB","ABC021",8,"","","","","ALP","Alkaline Phosphatase","CHEMISTRY","LIVER FUNCTION","75","IU/L","44","147","75",75,"IU/L",44,147,"NORMAL","","","CENTRAL","SERUM","Y",1,"SCREENING","TREATMENT","2014-04-07",1
"793","ABC","LB","ABC021",9,"","","","","TRIG","Triglycerides","CHEMISTRY","LIPID","211","mg/dL","0","200","211",211,"mg/dL",0,200,"HIGH","","","CENTRAL","SERUM","",2,"VISIT 2","TREATMENT","2014-04-13",7
"794","ABC","LB","ABC021",10,"","","","","LDL","LDL Cholesterol","CHEMISTRY","LIPID","172","mg/dL","0","160","172",172,"mg/dL",0,160,"HIGH","","","CENTRAL","SERUM","",2,"VISIT 2","TREATMENT","2014-04-13",7
"795","ABC","LB","ABC021",11,"","","","","HDL","HDL Cholesterol","CHEMISTRY","LIPID","44","mg/dL","40","999","44",44,"mg/dL",40,999,"NORMAL","","","CENTRAL","SERUM","",2,"VISIT 2","TREATMENT","2014-04-13",7
"796","ABC","LB","ABC021",12,"","","","","CHOL","Cholesterol","CHEMISTRY","LIPID","218","mg/dL","100","200","218",218,"mg/dL",100,200,"HIGH","","","CENTRAL","SERUM","",2,"VISIT 2","TREATMENT","2014-04-13",7
"797","ABC","LB","ABC021",13,"","","","","BILI","Bilirubin","CHEMISTRY","LIVER FUNCTION","0.9","mg/dL","0.3","1.9","0.9",0.9,"mg/dL",0.3,1.9,"NORMAL","","","CENTRAL","SERUM","",2,"VISIT 2","TREATMENT","2014-04-13",7
"798","ABC","LB","ABC021",14,"","","","","AST","Aspartate Aminotransferase","CHEMISTRY","LIVER FUNCTION","24","IU/L","10","40","24",24,"IU/L",10,40,"NORMAL","","","CENTRAL","SERUM","",2,"VISIT 2","TREATMENT","2014-04-13",7
"799","ABC","LB","ABC021",15,"","","","","ALT","Alanine Aminotransferase","CHEMISTRY","LIVER FUNCTION","34","IU/L","7","56","34",34,"IU/L",7,56,"NORMAL","","","CENTRAL","SERUM","",2,"VISIT 2","TREATMENT","2014-04-13",7
"800","ABC","LB","ABC021",16,"","","","","ALP","Alkaline Phosphatase","CHEMISTRY","LIVER FUNCTION","85","IU/L","44","147","85",85,"IU/L",44,147,"NORMAL","","","CENTRAL","SERUM","",2,"VISIT 2","TREATMENT","2014-04-13",7
"801","ABC","LB","ABC021",17,"","","","","TRIG","Triglycerides","CHEMISTRY","LIPID","202","mg/dL","0","200","202",202,"mg/dL",0,200,"HIGH","","","CENTRAL","SERUM","",3,"VISIT 3","TREATMENT","2014-04-22",16
"802","ABC","LB","ABC021",18,"","","","","LDL","LDL Cholesterol","CHEMISTRY","LIPID","157","mg/dL","0","160","157",157,"mg/dL",0,160,"NORMAL","","","CENTRAL","SERUM","",3,"VISIT 3","TREATMENT","2014-04-22",16
"803","ABC","LB","ABC021",19,"","","","","HDL","HDL Cholesterol","CHEMISTRY","LIPID","41","mg/dL","40","999","41",41,"mg/dL",40,999,"NORMAL","","","CENTRAL","SERUM","",3,"VISIT 3","TREATMENT","2014-04-22",16
"804","ABC","LB","ABC021",20,"","","","","CHOL","Cholesterol","CHEMISTRY","LIPID","204","mg/dL","100","200","204",204,"mg/dL",100,200,"HIGH","","","CENTRAL","SERUM","",3,"VISIT 3","TREATMENT","2014-04-22",16
"805","ABC","LB","ABC021",21,"","","","","BILI","Bilirubin","CHEMISTRY","LIVER FUNCTION","0.8","mg/dL","0.3","1.9","0.8",0.8,"mg/dL",0.3,1.9,"NORMAL","","","CENTRAL","SERUM","",3,"VISIT 3","TREATMENT","2014-04-22",16
"806","ABC","LB","ABC021",22,"","","","","AST","Aspartate Aminotransferase","CHEMISTRY","LIVER FUNCTION","23","IU/L","10","40","23",23,"IU/L",10,40,"NORMAL","","","CENTRAL","SERUM","",3,"VISIT 3","TREATMENT","2014-04-22",16
"807","ABC","LB","ABC021",23,"","","","","ALT","Alanine Aminotransferase","CHEMISTRY","LIVER FUNCTION","34","IU/L","7","56","34",34,"IU/L",7,56,"NORMAL","","","CENTRAL","SERUM","",3,"VISIT 3","TREATMENT","2014-04-22",16
"808","ABC","LB","ABC021",24,"","","","","ALP","Alkaline Phosphatase","CHEMISTRY","LIVER FUNCTION","74","IU/L","44","147","74",74,"IU/L",44,147,"NORMAL","","","CENTRAL","SERUM","",3,"VISIT 3","TREATMENT","2014-04-22",16
"809","ABC","LB","ABC021",25,"","","","","TRIG","Triglycerides","CHEMISTRY","LIPID","220","mg/dL","0","200","220",220,"mg/dL",0,200,"HIGH","","","CENTRAL","SERUM","",4,"VISIT 4","TREATMENT","2014-04-28",22
"810","ABC","LB","ABC021",26,"","","","","LDL","LDL Cholesterol","CHEMISTRY","LIPID","168","mg/dL","0","160","168",168,"mg/dL",0,160,"HIGH","","","CENTRAL","SERUM","",4,"VISIT 4","TREATMENT","2014-04-28",22
"811","ABC","LB","ABC021",27,"","","","","HDL","HDL Cholesterol","CHEMISTRY","LIPID","56","mg/dL","40","999","56",56,"mg/dL",40,999,"NORMAL","","","CENTRAL","SERUM","",4,"VISIT 4","TREATMENT","2014-04-28",22
"812","ABC","LB","ABC021",28,"","","","","CHOL","Cholesterol","CHEMISTRY","LIPID","224","mg/dL","100","200","224",224,"mg/dL",100,200,"HIGH","","","CENTRAL","SERUM","",4,"VISIT 4","TREATMENT","2014-04-28",22
"813","ABC","LB","ABC021",29,"","","","","BILI","Bilirubin","CHEMISTRY","LIVER FUNCTION","0.7","mg/dL","0.3","1.9","0.7",0.7,"mg/dL",0.3,1.9,"NORMAL","","","CENTRAL","SERUM","",4,"VISIT 4","TREATMENT","2014-04-28",22
"814","ABC","LB","ABC021",30,"","","","","AST","Aspartate Aminotransferase","CHEMISTRY","LIVER FUNCTION","32","IU/L","10","40","32",32,"IU/L",10,40,"NORMAL","","","CENTRAL","SERUM","",4,"VISIT 4","TREATMENT","2014-04-28",22
"815","ABC","LB","ABC021",31,"","","","","ALT","Alanine Aminotransferase","CHEMISTRY","LIVER FUNCTION","38","IU/L","7","56","38",38,"IU/L",7,56,"NORMAL","","","CENTRAL","SERUM","",4,"VISIT 4","TREATMENT","2014-04-28",22
"816","ABC","LB","ABC021",32,"","","","","ALP","Alkaline Phosphatase","CHEMISTRY","LIVER FUNCTION","75","IU/L","44","147","75",75,"IU/L",44,147,"NORMAL","","","CENTRAL","SERUM","",4,"VISIT 4","TREATMENT","2014-04-28",22
"817","ABC","LB","ABC021",33,"","","","","TRIG","Triglycerides","CHEMISTRY","LIPID","198","mg/dL","0","200","198",198,"mg/dL",0,200,"NORMAL","","","CENTRAL","SERUM","",5,"VISIT 5","TREATMENT","2014-05-04",28
"818","ABC","LB","ABC021",34,"","","","","LDL","LDL Cholesterol","CHEMISTRY","LIPID","153","mg/dL","0","160","153",153,"mg/dL",0,160,"NORMAL","","","CENTRAL","SERUM","",5,"VISIT 5","TREATMENT","2014-05-04",28
"819","ABC","LB","ABC021",35,"","","","","HDL","HDL Cholesterol","CHEMISTRY","LIPID","45","mg/dL","40","999","45",45,"mg/dL",40,999,"NORMAL","","","CENTRAL","SERUM","",5,"VISIT 5","TREATMENT","2014-05-04",28
"820","ABC","LB","ABC021",36,"","","","","CHOL","Cholesterol","CHEMISTRY","LIPID","216","mg/dL","100","200","216",216,"mg/dL",100,200,"HIGH","","","CENTRAL","SERUM","",5,"VISIT 5","TREATMENT","2014-05-04",28
"821","ABC","LB","ABC021",37,"","","","","BILI","Bilirubin","CHEMISTRY","LIVER FUNCTION","1","mg/dL","0.3","1.9","1",1,"mg/dL",0.3,1.9,"NORMAL","","","CENTRAL","SERUM","",5,"VISIT 5","TREATMENT","2014-05-04",28
"822","ABC","LB","ABC021",38,"","","","","AST","Aspartate Aminotransferase","CHEMISTRY","LIVER FUNCTION","33","IU/L","10","40","33",33,"IU/L",10,40,"NORMAL","","","CENTRAL","SERUM","",5,"VISIT 5","TREATMENT","2014-05-04",28
"823","ABC","LB","ABC021",39,"","","","","ALT","Alanine Aminotransferase","CHEMISTRY","LIVER FUNCTION","28","IU/L","7","56","28",28,"IU/L",7,56,"NORMAL","","","CENTRAL","SERUM","",5,"VISIT 5","TREATMENT","2014-05-04",28
"824","ABC","LB","ABC021",40,"","","","","ALP","Alkaline Phosphatase","CHEMISTRY","LIVER FUNCTION","75","IU/L","44","147","75",75,"IU/L",44,147,"NORMAL","","","CENTRAL","SERUM","",5,"VISIT 5","TREATMENT","2014-05-04",28
"825","ABC","LB","ABC022",1,"","","","","TRIG","Triglycerides","CHEMISTRY","LIPID","230","mg/dL","0","200","230",230,"mg/dL",0,200,"HIGH","","","CENTRAL","SERUM","Y",1,"SCREENING","TREATMENT","2014-04-26",1
"826","ABC","LB","ABC022",2,"","","","","LDL","LDL Cholesterol","CHEMISTRY","LIPID","180","mg/dL","0","160","180",180,"mg/dL",0,160,"HIGH","","","CENTRAL","SERUM","Y",1,"SCREENING","TREATMENT","2014-04-26",1
"827","ABC","LB","ABC022",3,"","","","","HDL","HDL Cholesterol","CHEMISTRY","LIPID","39","mg/dL","40","999","39",39,"mg/dL",40,999,"LOW","","","CENTRAL","SERUM","Y",1,"SCREENING","TREATMENT","2014-04-26",1
"828","ABC","LB","ABC022",4,"","","","","CHOL","Cholesterol","CHEMISTRY","LIPID","231","mg/dL","100","200","231",231,"mg/dL",100,200,"HIGH","","","CENTRAL","SERUM","Y",1,"SCREENING","TREATMENT","2014-04-26",1
"829","ABC","LB","ABC022",5,"","","","","BILI","Bilirubin","CHEMISTRY","LIVER FUNCTION","0.5","mg/dL","0.3","1.9","0.5",0.5,"mg/dL",0.3,1.9,"NORMAL","","","CENTRAL","SERUM","Y",1,"SCREENING","TREATMENT","2014-04-26",1
"830","ABC","LB","ABC022",6,"","","","","AST","Aspartate Aminotransferase","CHEMISTRY","LIVER FUNCTION","22","IU/L","10","40","22",22,"IU/L",10,40,"NORMAL","","","CENTRAL","SERUM","Y",1,"SCREENING","TREATMENT","2014-04-26",1
"831","ABC","LB","ABC022",7,"","","","","ALT","Alanine Aminotransferase","CHEMISTRY","LIVER FUNCTION","37","IU/L","7","56","37",37,"IU/L",7,56,"NORMAL","","","CENTRAL","SERUM","Y",1,"SCREENING","TREATMENT","2014-04-26",1
"832","ABC","LB","ABC022",8,"","","","","ALP","Alkaline Phosphatase","CHEMISTRY","LIVER FUNCTION","66","IU/L","44","147","66",66,"IU/L",44,147,"NORMAL","","","CENTRAL","SERUM","Y",1,"SCREENING","TREATMENT","2014-04-26",1
"833","ABC","LB","ABC022",9,"","","","","TRIG","Triglycerides","CHEMISTRY","LIPID","214","mg/dL","0","200","214",214,"mg/dL",0,200,"HIGH","","","CENTRAL","SERUM","",2,"VISIT 2","TREATMENT","2014-05-02",7
"834","ABC","LB","ABC022",10,"","","","","LDL","LDL Cholesterol","CHEMISTRY","LIPID","170","mg/dL","0","160","170",170,"mg/dL",0,160,"HIGH","","","CENTRAL","SERUM","",2,"VISIT 2","TREATMENT","2014-05-02",7
"835","ABC","LB","ABC022",11,"","","","","HDL","HDL Cholesterol","CHEMISTRY","LIPID","47","mg/dL","40","999","47",47,"mg/dL",40,999,"NORMAL","","","CENTRAL","SERUM","",2,"VISIT 2","TREATMENT","2014-05-02",7
"836","ABC","LB","ABC022",12,"","","","","CHOL","Cholesterol","CHEMISTRY","LIPID","233","mg/dL","100","200","233",233,"mg/dL",100,200,"HIGH","","","CENTRAL","SERUM","",2,"VISIT 2","TREATMENT","2014-05-02",7
"837","ABC","LB","ABC022",13,"","","","","BILI","Bilirubin","CHEMISTRY","LIVER FUNCTION","0.8","mg/dL","0.3","1.9","0.8",0.8,"mg/dL",0.3,1.9,"NORMAL","","","CENTRAL","SERUM","",2,"VISIT 2","TREATMENT","2014-05-02",7
"838","ABC","LB","ABC022",14,"","","","","AST","Aspartate Aminotransferase","CHEMISTRY","LIVER FUNCTION","19","IU/L","10","40","19",19,"IU/L",10,40,"NORMAL","","","CENTRAL","SERUM","",2,"VISIT 2","TREATMENT","2014-05-02",7
"839","ABC","LB","ABC022",15,"","","","","ALT","Alanine Aminotransferase","CHEMISTRY","LIVER FUNCTION","33","IU/L","7","56","33",33,"IU/L",7,56,"NORMAL","","","CENTRAL","SERUM","",2,"VISIT 2","TREATMENT","2014-05-02",7
"840","ABC","LB","ABC022",16,"","","","","ALP","Alkaline Phosphatase","CHEMISTRY","LIVER FUNCTION","73","IU/L","44","147","73",73,"IU/L",44,147,"NORMAL","","","CENTRAL","SERUM","",2,"VISIT 2","TREATMENT","2014-05-02",7
"841","ABC","LB","ABC022",17,"","","","","TRIG","Triglycerides","CHEMISTRY","LIPID","213","mg/dL","0","200","213",213,"mg/dL",0,200,"HIGH","","","CENTRAL","SERUM","",3,"VISIT 3","TREATMENT","2014-05-11",16
"842","ABC","LB","ABC022",18,"","","","","LDL","LDL Cholesterol","CHEMISTRY","LIPID","175","mg/dL","0","160","175",175,"mg/dL",0,160,"HIGH","","","CENTRAL","SERUM","",3,"VISIT 3","TREATMENT","2014-05-11",16
"843","ABC","LB","ABC022",19,"","","","","HDL","HDL Cholesterol","CHEMISTRY","LIPID","44","mg/dL","40","999","44",44,"mg/dL",40,999,"NORMAL","","","CENTRAL","SERUM","",3,"VISIT 3","TREATMENT","2014-05-11",16
"844","ABC","LB","ABC022",20,"","","","","CHOL","Cholesterol","CHEMISTRY","LIPID","217","mg/dL","100","200","217",217,"mg/dL",100,200,"HIGH","","","CENTRAL","SERUM","",3,"VISIT 3","TREATMENT","2014-05-11",16
"845","ABC","LB","ABC022",21,"","","","","BILI","Bilirubin","CHEMISTRY","LIVER FUNCTION","0.5","mg/dL","0.3","1.9","0.5",0.5,"mg/dL",0.3,1.9,"NORMAL","","","CENTRAL","SERUM","",3,"VISIT 3","TREATMENT","2014-05-11",16
"846","ABC","LB","ABC022",22,"","","","","AST","Aspartate Aminotransferase","CHEMISTRY","LIVER FUNCTION","22","IU/L","10","40","22",22,"IU/L",10,40,"NORMAL","","","CENTRAL","SERUM","",3,"VISIT 3","TREATMENT","2014-05-11",16
"847","ABC","LB","ABC022",23,"","","","","ALT","Alanine Aminotransferase","CHEMISTRY","LIVER FUNCTION","31","IU/L","7","56","31",31,"IU/L",7,56,"NORMAL","","","CENTRAL","SERUM","",3,"VISIT 3","TREATMENT","2014-05-11",16
"848","ABC","LB","ABC022",24,"","","","","ALP","Alkaline Phosphatase","CHEMISTRY","LIVER FUNCTION","79","IU/L","44","147","79",79,"IU/L",44,147,"NORMAL","","","CENTRAL","SERUM","",3,"VISIT 3","TREATMENT","2014-05-11",16
"849","ABC","LB","ABC022",25,"","","","","TRIG","Triglycerides","CHEMISTRY","LIPID","223","mg/dL","0","200","223",223,"mg/dL",0,200,"HIGH","","","CENTRAL","SERUM","",4,"VISIT 4","TREATMENT","2014-05-17",22
"850","ABC","LB","ABC022",26,"","","","","LDL","LDL Cholesterol","CHEMISTRY","LIPID","172","mg/dL","0","160","172",172,"mg/dL",0,160,"HIGH","","","CENTRAL","SERUM","",4,"VISIT 4","TREATMENT","2014-05-17",22
"851","ABC","LB","ABC022",27,"","","","","HDL","HDL Cholesterol","CHEMISTRY","LIPID","47","mg/dL","40","999","47",47,"mg/dL",40,999,"NORMAL","","","CENTRAL","SERUM","",4,"VISIT 4","TREATMENT","2014-05-17",22
"852","ABC","LB","ABC022",28,"","","","","CHOL","Cholesterol","CHEMISTRY","LIPID","218","mg/dL","100","200","218",218,"mg/dL",100,200,"HIGH","","","CENTRAL","SERUM","",4,"VISIT 4","TREATMENT","2014-05-17",22
"853","ABC","LB","ABC022",29,"","","","","BILI","Bilirubin","CHEMISTRY","LIVER FUNCTION","0.9","mg/dL","0.3","1.9","0.9",0.9,"mg/dL",0.3,1.9,"NORMAL","","","CENTRAL","SERUM","",4,"VISIT 4","TREATMENT","2014-05-17",22
"854","ABC","LB","ABC022",30,"","","","","AST","Aspartate Aminotransferase","CHEMISTRY","LIVER FUNCTION","26","IU/L","10","40","26",26,"IU/L",10,40,"NORMAL","","","CENTRAL","SERUM","",4,"VISIT 4","TREATMENT","2014-05-17",22
"855","ABC","LB","ABC022",31,"","","","","ALT","Alanine Aminotransferase","CHEMISTRY","LIVER FUNCTION","27","IU/L","7","56","27",27,"IU/L",7,56,"NORMAL","","","CENTRAL","SERUM","",4,"VISIT 4","TREATMENT","2014-05-17",22
"856","ABC","LB","ABC022",32,"","","","","ALP","Alkaline Phosphatase","CHEMISTRY","LIVER FUNCTION","78","IU/L","44","147","78",78,"IU/L",44,147,"NORMAL","","","CENTRAL","SERUM","",4,"VISIT 4","TREATMENT","2014-05-17",22
"857","ABC","LB","ABC022",33,"","","","","TRIG","Triglycerides","CHEMISTRY","LIPID","205","mg/dL","0","200","205",205,"mg/dL",0,200,"HIGH","","","CENTRAL","SERUM","",5,"VISIT 5","TREATMENT","2014-05-25",30
"858","ABC","LB","ABC022",34,"","","","","LDL","LDL Cholesterol","CHEMISTRY","LIPID","168","mg/dL","0","160","168",168,"mg/dL",0,160,"HIGH","","","CENTRAL","SERUM","",5,"VISIT 5","TREATMENT","2014-05-25",30
"859","ABC","LB","ABC022",35,"","","","","HDL","HDL Cholesterol","CHEMISTRY","LIPID","45","mg/dL","40","999","45",45,"mg/dL",40,999,"NORMAL","","","CENTRAL","SERUM","",5,"VISIT 5","TREATMENT","2014-05-25",30
"860","ABC","LB","ABC022",36,"","","","","CHOL","Cholesterol","CHEMISTRY","LIPID","227","mg/dL","100","200","227",227,"mg/dL",100,200,"HIGH","","","CENTRAL","SERUM","",5,"VISIT 5","TREATMENT","2014-05-25",30
"861","ABC","LB","ABC022",37,"","","","","BILI","Bilirubin","CHEMISTRY","LIVER FUNCTION","0.9","mg/dL","0.3","1.9","0.9",0.9,"mg/dL",0.3,1.9,"NORMAL","","","CENTRAL","SERUM","",5,"VISIT 5","TREATMENT","2014-05-25",30
"862","ABC","LB","ABC022",38,"","","","","AST","Aspartate Aminotransferase","CHEMISTRY","LIVER FUNCTION","25","IU/L","10","40","25",25,"IU/L",10,40,"NORMAL","","","CENTRAL","SERUM","",5,"VISIT 5","TREATMENT","2014-05-25",30
"863","ABC","LB","ABC022",39,"","","","","ALT","Alanine Aminotransferase","CHEMISTRY","LIVER FUNCTION","27","IU/L","7","56","27",27,"IU/L",7,56,"NORMAL","","","CENTRAL","SERUM","",5,"VISIT 5","TREATMENT","2014-05-25",30
"864","ABC","LB","ABC022",40,"","","","","ALP","Alkaline Phosphatase","CHEMISTRY","LIVER FUNCTION","80","IU/L","44","147","80",80,"IU/L",44,147,"NORMAL","","","CENTRAL","SERUM","",5,"VISIT 5","TREATMENT","2014-05-25",30
"865","ABC","LB","ABC023",1,"","","","","TRIG","Triglycerides","CHEMISTRY","LIPID","224","mg/dL","0","200","224",224,"mg/dL",0,200,"HIGH","","","CENTRAL","SERUM","Y",1,"SCREENING","TREATMENT","2014-03-30",1
"866","ABC","LB","ABC023",2,"","","","","LDL","LDL Cholesterol","CHEMISTRY","LIPID","170","mg/dL","0","160","170",170,"mg/dL",0,160,"HIGH","","","CENTRAL","SERUM","Y",1,"SCREENING","TREATMENT","2014-03-30",1
"867","ABC","LB","ABC023",3,"","","","","HDL","HDL Cholesterol","CHEMISTRY","LIPID","44","mg/dL","40","999","44",44,"mg/dL",40,999,"NORMAL","","","CENTRAL","SERUM","Y",1,"SCREENING","TREATMENT","2014-03-30",1
"868","ABC","LB","ABC023",4,"","","","","CHOL","Cholesterol","CHEMISTRY","LIPID","215","mg/dL","100","200","215",215,"mg/dL",100,200,"HIGH","","","CENTRAL","SERUM","Y",1,"SCREENING","TREATMENT","2014-03-30",1
"869","ABC","LB","ABC023",5,"","","","","BILI","Bilirubin","CHEMISTRY","LIVER FUNCTION","0.9","mg/dL","0.3","1.9","0.9",0.9,"mg/dL",0.3,1.9,"NORMAL","","","CENTRAL","SERUM","Y",1,"SCREENING","TREATMENT","2014-03-30",1
"870","ABC","LB","ABC023",6,"","","","","AST","Aspartate Aminotransferase","CHEMISTRY","LIVER FUNCTION","25","IU/L","10","40","25",25,"IU/L",10,40,"NORMAL","","","CENTRAL","SERUM","Y",1,"SCREENING","TREATMENT","2014-03-30",1
"871","ABC","LB","ABC023",7,"","","","","ALT","Alanine Aminotransferase","CHEMISTRY","LIVER FUNCTION","30","IU/L","7","56","30",30,"IU/L",7,56,"NORMAL","","","CENTRAL","SERUM","Y",1,"SCREENING","TREATMENT","2014-03-30",1
"872","ABC","LB","ABC023",8,"","","","","ALP","Alkaline Phosphatase","CHEMISTRY","LIVER FUNCTION","78","IU/L","44","147","78",78,"IU/L",44,147,"NORMAL","","","CENTRAL","SERUM","Y",1,"SCREENING","TREATMENT","2014-03-30",1
"873","ABC","LB","ABC024",1,"","","","","TRIG","Triglycerides","CHEMISTRY","LIPID","224","mg/dL","0","200","224",224,"mg/dL",0,200,"HIGH","","","CENTRAL","SERUM","Y",1,"SCREENING","TREATMENT","2014-05-21",1
"874","ABC","LB","ABC024",2,"","","","","CHOL","Cholesterol","CHEMISTRY","LIPID","216","mg/dL","100","200","216",216,"mg/dL",100,200,"HIGH","","","CENTRAL","SERUM","Y",1,"SCREENING","TREATMENT","2014-05-21",1
"875","ABC","LB","ABC024",3,"","","","","LDL","LDL Cholesterol","CHEMISTRY","LIPID","176","mg/dL","0","160","176",176,"mg/dL",0,160,"HIGH","","","CENTRAL","SERUM","Y",1,"SCREENING","TREATMENT","2014-05-21",1
"876","ABC","LB","ABC024",4,"","","","","HDL","HDL Cholesterol","CHEMISTRY","LIPID","31","mg/dL","40","999","31",31,"mg/dL",40,999,"LOW","","","CENTRAL","SERUM","Y",1,"SCREENING","TREATMENT","2014-05-21",1
"877","ABC","LB","ABC024",5,"","","","","BILI","Bilirubin","CHEMISTRY","LIVER FUNCTION","0.7","mg/dL","0.3","1.9","0.7",0.7,"mg/dL",0.3,1.9,"NORMAL","","","CENTRAL","SERUM","Y",1,"SCREENING","TREATMENT","2014-05-21",1
"878","ABC","LB","ABC024",6,"","","","","AST","Aspartate Aminotransferase","CHEMISTRY","LIVER FUNCTION","25","IU/L","10","40","25",25,"IU/L",10,40,"NORMAL","","","CENTRAL","SERUM","Y",1,"SCREENING","TREATMENT","2014-05-21",1
"879","ABC","LB","ABC024",7,"","","","","ALP","Alkaline Phosphatase","CHEMISTRY","LIVER FUNCTION","68","IU/L","44","147","68",68,"IU/L",44,147,"NORMAL","","","CENTRAL","SERUM","Y",1,"SCREENING","TREATMENT","2014-05-21",1
"880","ABC","LB","ABC024",8,"","","","","ALT","Alanine Aminotransferase","CHEMISTRY","LIVER FUNCTION","33","IU/L","7","56","33",33,"IU/L",7,56,"NORMAL","","","CENTRAL","SERUM","Y",1,"SCREENING","TREATMENT","2014-05-21",1
"881","ABC","LB","ABC024",9,"","","","","TRIG","Triglycerides","CHEMISTRY","LIPID","202","mg/dL","0","200","202",202,"mg/dL",0,200,"HIGH","","","CENTRAL","SERUM","",2,"VISIT 2","TREATMENT","2014-05-28",8
"882","ABC","LB","ABC024",10,"","","","","CHOL","Cholesterol","CHEMISTRY","LIPID","223","mg/dL","100","200","223",223,"mg/dL",100,200,"HIGH","","","CENTRAL","SERUM","",2,"VISIT 2","TREATMENT","2014-05-28",8
"883","ABC","LB","ABC024",11,"","","","","LDL","LDL Cholesterol","CHEMISTRY","LIPID","169","mg/dL","0","160","169",169,"mg/dL",0,160,"HIGH","","","CENTRAL","SERUM","",2,"VISIT 2","TREATMENT","2014-05-28",8
"884","ABC","LB","ABC024",12,"","","","","HDL","HDL Cholesterol","CHEMISTRY","LIPID","42","mg/dL","40","999","42",42,"mg/dL",40,999,"NORMAL","","","CENTRAL","SERUM","",2,"VISIT 2","TREATMENT","2014-05-28",8
"885","ABC","LB","ABC024",13,"","","","","BILI","Bilirubin","CHEMISTRY","LIVER FUNCTION","1.1","mg/dL","0.3","1.9","1.1",1.1,"mg/dL",0.3,1.9,"NORMAL","","","CENTRAL","SERUM","",2,"VISIT 2","TREATMENT","2014-05-28",8
"886","ABC","LB","ABC024",14,"","","","","AST","Aspartate Aminotransferase","CHEMISTRY","LIVER FUNCTION","29","IU/L","10","40","29",29,"IU/L",10,40,"NORMAL","","","CENTRAL","SERUM","",2,"VISIT 2","TREATMENT","2014-05-28",8
"887","ABC","LB","ABC024",15,"","","","","ALP","Alkaline Phosphatase","CHEMISTRY","LIVER FUNCTION","82","IU/L","44","147","82",82,"IU/L",44,147,"NORMAL","","","CENTRAL","SERUM","",2,"VISIT 2","TREATMENT","2014-05-28",8
"888","ABC","LB","ABC024",16,"","","","","ALT","Alanine Aminotransferase","CHEMISTRY","LIVER FUNCTION","38","IU/L","7","56","38",38,"IU/L",7,56,"NORMAL","","","CENTRAL","SERUM","",2,"VISIT 2","TREATMENT","2014-05-28",8
"889","ABC","LB","ABC024",17,"","","","","TRIG","Triglycerides","CHEMISTRY","LIPID","210","mg/dL","0","200","210",210,"mg/dL",0,200,"HIGH","","","CENTRAL","SERUM","",3,"VISIT 3","TREATMENT","2014-06-04",15
"890","ABC","LB","ABC024",18,"","","","","CHOL","Cholesterol","CHEMISTRY","LIPID","215","mg/dL","100","200","215",215,"mg/dL",100,200,"HIGH","","","CENTRAL","SERUM","",3,"VISIT 3","TREATMENT","2014-06-04",15
"891","ABC","LB","ABC024",19,"","","","","LDL","LDL Cholesterol","CHEMISTRY","LIPID","163","mg/dL","0","160","163",163,"mg/dL",0,160,"HIGH","","","CENTRAL","SERUM","",3,"VISIT 3","TREATMENT","2014-06-04",15
"892","ABC","LB","ABC024",20,"","","","","HDL","HDL Cholesterol","CHEMISTRY","LIPID","50","mg/dL","40","999","50",50,"mg/dL",40,999,"NORMAL","","","CENTRAL","SERUM","",3,"VISIT 3","TREATMENT","2014-06-04",15
"893","ABC","LB","ABC024",21,"","","","","BILI","Bilirubin","CHEMISTRY","LIVER FUNCTION","0.9","mg/dL","0.3","1.9","0.9",0.9,"mg/dL",0.3,1.9,"NORMAL","","","CENTRAL","SERUM","",3,"VISIT 3","TREATMENT","2014-06-04",15
"894","ABC","LB","ABC024",22,"","","","","AST","Aspartate Aminotransferase","CHEMISTRY","LIVER FUNCTION","29","IU/L","10","40","29",29,"IU/L",10,40,"NORMAL","","","CENTRAL","SERUM","",3,"VISIT 3","TREATMENT","2014-06-04",15
"895","ABC","LB","ABC024",23,"","","","","ALP","Alkaline Phosphatase","CHEMISTRY","LIVER FUNCTION","82","IU/L","44","147","82",82,"IU/L",44,147,"NORMAL","","","CENTRAL","SERUM","",3,"VISIT 3","TREATMENT","2014-06-04",15
"896","ABC","LB","ABC024",24,"","","","","ALT","Alanine Aminotransferase","CHEMISTRY","LIVER FUNCTION","29","IU/L","7","56","29",29,"IU/L",7,56,"NORMAL","","","CENTRAL","SERUM","",3,"VISIT 3","TREATMENT","2014-06-04",15
"897","ABC","LB","ABC024",25,"","","","","TRIG","Triglycerides","CHEMISTRY","LIPID","188","mg/dL","0","200","188",188,"mg/dL",0,200,"NORMAL","","","CENTRAL","SERUM","",4,"VISIT 4","TREATMENT","2014-06-12",23
"898","ABC","LB","ABC024",26,"","","","","CHOL","Cholesterol","CHEMISTRY","LIPID","210","mg/dL","100","200","210",210,"mg/dL",100,200,"HIGH","","","CENTRAL","SERUM","",4,"VISIT 4","TREATMENT","2014-06-12",23
"899","ABC","LB","ABC024",27,"","","","","LDL","LDL Cholesterol","CHEMISTRY","LIPID","168","mg/dL","0","160","168",168,"mg/dL",0,160,"HIGH","","","CENTRAL","SERUM","",4,"VISIT 4","TREATMENT","2014-06-12",23
"900","ABC","LB","ABC024",28,"","","","","HDL","HDL Cholesterol","CHEMISTRY","LIPID","55","mg/dL","40","999","55",55,"mg/dL",40,999,"NORMAL","","","CENTRAL","SERUM","",4,"VISIT 4","TREATMENT","2014-06-12",23
"901","ABC","LB","ABC024",29,"","","","","BILI","Bilirubin","CHEMISTRY","LIVER FUNCTION","0.7","mg/dL","0.3","1.9","0.7",0.7,"mg/dL",0.3,1.9,"NORMAL","","","CENTRAL","SERUM","",4,"VISIT 4","TREATMENT","2014-06-12",23
"902","ABC","LB","ABC024",30,"","","","","AST","Aspartate Aminotransferase","CHEMISTRY","LIVER FUNCTION","24","IU/L","10","40","24",24,"IU/L",10,40,"NORMAL","","","CENTRAL","SERUM","",4,"VISIT 4","TREATMENT","2014-06-12",23
"903","ABC","LB","ABC024",31,"","","","","ALP","Alkaline Phosphatase","CHEMISTRY","LIVER FUNCTION","76","IU/L","44","147","76",76,"IU/L",44,147,"NORMAL","","","CENTRAL","SERUM","",4,"VISIT 4","TREATMENT","2014-06-12",23
"904","ABC","LB","ABC024",32,"","","","","ALT","Alanine Aminotransferase","CHEMISTRY","LIVER FUNCTION","32","IU/L","7","56","32",32,"IU/L",7,56,"NORMAL","","","CENTRAL","SERUM","",4,"VISIT 4","TREATMENT","2014-06-12",23
"905","ABC","LB","ABC024",33,"","","","","TRIG","Triglycerides","CHEMISTRY","LIPID","202","mg/dL","0","200","202",202,"mg/dL",0,200,"HIGH","","","CENTRAL","SERUM","",5,"VISIT 5","TREATMENT","2014-06-17",28
"906","ABC","LB","ABC024",34,"","","","","CHOL","Cholesterol","CHEMISTRY","LIPID","227","mg/dL","100","200","227",227,"mg/dL",100,200,"HIGH","","","CENTRAL","SERUM","",5,"VISIT 5","TREATMENT","2014-06-17",28
"907","ABC","LB","ABC024",35,"","","","","LDL","LDL Cholesterol","CHEMISTRY","LIPID","164","mg/dL","0","160","164",164,"mg/dL",0,160,"HIGH","","","CENTRAL","SERUM","",5,"VISIT 5","TREATMENT","2014-06-17",28
"908","ABC","LB","ABC024",36,"","","","","HDL","HDL Cholesterol","CHEMISTRY","LIPID","49","mg/dL","40","999","49",49,"mg/dL",40,999,"NORMAL","","","CENTRAL","SERUM","",5,"VISIT 5","TREATMENT","2014-06-17",28
"909","ABC","LB","ABC024",37,"","","","","BILI","Bilirubin","CHEMISTRY","LIVER FUNCTION","0.9","mg/dL","0.3","1.9","0.9",0.9,"mg/dL",0.3,1.9,"NORMAL","","","CENTRAL","SERUM","",5,"VISIT 5","TREATMENT","2014-06-17",28
"910","ABC","LB","ABC024",38,"","","","","AST","Aspartate Aminotransferase","CHEMISTRY","LIVER FUNCTION","29","IU/L","10","40","29",29,"IU/L",10,40,"NORMAL","","","CENTRAL","SERUM","",5,"VISIT 5","TREATMENT","2014-06-17",28
"911","ABC","LB","ABC024",39,"","","","","ALP","Alkaline Phosphatase","CHEMISTRY","LIVER FUNCTION","75","IU/L","44","147","75",75,"IU/L",44,147,"NORMAL","","","CENTRAL","SERUM","",5,"VISIT 5","TREATMENT","2014-06-17",28
"912","ABC","LB","ABC024",40,"","","","","ALT","Alanine Aminotransferase","CHEMISTRY","LIVER FUNCTION","35","IU/L","7","56","35",35,"IU/L",7,56,"NORMAL","","","CENTRAL","SERUM","",5,"VISIT 5","TREATMENT","2014-06-17",28
"913","ABC","LB","ABC025",1,"","","","","TRIG","Triglycerides","CHEMISTRY","LIPID","207","mg/dL","0","200","207",207,"mg/dL",0,200,"HIGH","","","CENTRAL","SERUM","Y",1,"SCREENING","TREATMENT","2014-02-19",1
"914","ABC","LB","ABC025",2,"","","","","LDL","LDL Cholesterol","CHEMISTRY","LIPID","178","mg/dL","0","160","178",178,"mg/dL",0,160,"HIGH","","","CENTRAL","SERUM","Y",1,"SCREENING","TREATMENT","2014-02-19",1
"915","ABC","LB","ABC025",3,"","","","","HDL","HDL Cholesterol","CHEMISTRY","LIPID","40","mg/dL","40","999","40",40,"mg/dL",40,999,"NORMAL","","","CENTRAL","SERUM","Y",1,"SCREENING","TREATMENT","2014-02-19",1
"916","ABC","LB","ABC025",4,"","","","","CHOL","Cholesterol","CHEMISTRY","LIPID","231","mg/dL","100","200","231",231,"mg/dL",100,200,"HIGH","","","CENTRAL","SERUM","Y",1,"SCREENING","TREATMENT","2014-02-19",1
"917","ABC","LB","ABC025",5,"","","","","BILI","Bilirubin","CHEMISTRY","LIVER FUNCTION","0.6","mg/dL","0.3","1.9","0.6",0.6,"mg/dL",0.3,1.9,"NORMAL","","","CENTRAL","SERUM","Y",1,"SCREENING","TREATMENT","2014-02-19",1
"918","ABC","LB","ABC025",6,"","","","","AST","Aspartate Aminotransferase","CHEMISTRY","LIVER FUNCTION","31","IU/L","10","40","31",31,"IU/L",10,40,"NORMAL","","","CENTRAL","SERUM","Y",1,"SCREENING","TREATMENT","2014-02-19",1
"919","ABC","LB","ABC025",7,"","","","","ALT","Alanine Aminotransferase","CHEMISTRY","LIVER FUNCTION","36","IU/L","7","56","36",36,"IU/L",7,56,"NORMAL","","","CENTRAL","SERUM","Y",1,"SCREENING","TREATMENT","2014-02-19",1
"920","ABC","LB","ABC025",8,"","","","","ALP","Alkaline Phosphatase","CHEMISTRY","LIVER FUNCTION","80","IU/L","44","147","80",80,"IU/L",44,147,"NORMAL","","","CENTRAL","SERUM","Y",1,"SCREENING","TREATMENT","2014-02-19",1
"921","ABC","LB","ABC025",9,"","","","","TRIG","Triglycerides","CHEMISTRY","LIPID","213","mg/dL","0","200","213",213,"mg/dL",0,200,"HIGH","","","CENTRAL","SERUM","",2,"VISIT 2","TREATMENT","2014-02-25",7
"922","ABC","LB","ABC025",10,"","","","","LDL","LDL Cholesterol","CHEMISTRY","LIPID","177","mg/dL","0","160","177",177,"mg/dL",0,160,"HIGH","","","CENTRAL","SERUM","",2,"VISIT 2","TREATMENT","2014-02-25",7
"923","ABC","LB","ABC025",11,"","","","","HDL","HDL Cholesterol","CHEMISTRY","LIPID","42","mg/dL","40","999","42",42,"mg/dL",40,999,"NORMAL","","","CENTRAL","SERUM","",2,"VISIT 2","TREATMENT","2014-02-25",7
"924","ABC","LB","ABC025",12,"","","","","CHOL","Cholesterol","CHEMISTRY","LIPID","227","mg/dL","100","200","227",227,"mg/dL",100,200,"HIGH","","","CENTRAL","SERUM","",2,"VISIT 2","TREATMENT","2014-02-25",7
"925","ABC","LB","ABC025",13,"","","","","BILI","Bilirubin","CHEMISTRY","LIVER FUNCTION","1.1","mg/dL","0.3","1.9","1.1",1.1,"mg/dL",0.3,1.9,"NORMAL","","","CENTRAL","SERUM","",2,"VISIT 2","TREATMENT","2014-02-25",7
"926","ABC","LB","ABC025",14,"","","","","AST","Aspartate Aminotransferase","CHEMISTRY","LIVER FUNCTION","24","IU/L","10","40","24",24,"IU/L",10,40,"NORMAL","","","CENTRAL","SERUM","",2,"VISIT 2","TREATMENT","2014-02-25",7
"927","ABC","LB","ABC025",15,"","","","","ALT","Alanine Aminotransferase","CHEMISTRY","LIVER FUNCTION","32","IU/L","7","56","32",32,"IU/L",7,56,"NORMAL","","","CENTRAL","SERUM","",2,"VISIT 2","TREATMENT","2014-02-25",7
"928","ABC","LB","ABC025",16,"","","","","ALP","Alkaline Phosphatase","CHEMISTRY","LIVER FUNCTION","73","IU/L","44","147","73",73,"IU/L",44,147,"NORMAL","","","CENTRAL","SERUM","",2,"VISIT 2","TREATMENT","2014-02-25",7
"929","ABC","LB","ABC025",17,"","","","","TRIG","Triglycerides","CHEMISTRY","LIPID","228","mg/dL","0","200","228",228,"mg/dL",0,200,"HIGH","","","CENTRAL","SERUM","",3,"VISIT 3","TREATMENT","2014-03-05",15
"930","ABC","LB","ABC025",18,"","","","","LDL","LDL Cholesterol","CHEMISTRY","LIPID","172","mg/dL","0","160","172",172,"mg/dL",0,160,"HIGH","","","CENTRAL","SERUM","",3,"VISIT 3","TREATMENT","2014-03-05",15
"931","ABC","LB","ABC025",19,"","","","","HDL","HDL Cholesterol","CHEMISTRY","LIPID","43","mg/dL","40","999","43",43,"mg/dL",40,999,"NORMAL","","","CENTRAL","SERUM","",3,"VISIT 3","TREATMENT","2014-03-05",15
"932","ABC","LB","ABC025",20,"","","","","CHOL","Cholesterol","CHEMISTRY","LIPID","219","mg/dL","100","200","219",219,"mg/dL",100,200,"HIGH","","","CENTRAL","SERUM","",3,"VISIT 3","TREATMENT","2014-03-05",15
"933","ABC","LB","ABC025",21,"","","","","BILI","Bilirubin","CHEMISTRY","LIVER FUNCTION","1","mg/dL","0.3","1.9","1",1,"mg/dL",0.3,1.9,"NORMAL","","","CENTRAL","SERUM","",3,"VISIT 3","TREATMENT","2014-03-05",15
"934","ABC","LB","ABC025",22,"","","","","AST","Aspartate Aminotransferase","CHEMISTRY","LIVER FUNCTION","22","IU/L","10","40","22",22,"IU/L",10,40,"NORMAL","","","CENTRAL","SERUM","",3,"VISIT 3","TREATMENT","2014-03-05",15
