KeyWords: DS, Disposition
Script: 
  Desc   : > 
    The Disposition Analysis details the number and percent of cases 
	that correspond to each Disposition category.
  Name   : disposition_v2.sas 
  GCR    : r135
  SRV    : 12345
  Source : FDA JumpStart
  Target : https://github.com/phuse-org/phuse-scripts/blob/master/tested/SAS/SpecDocs/Analysis%20Panel%20Instructions.doc
  Title  : Disposition Analysis Panel
  Topic  : Disposition Analysis
  Type   : Analysis
  Subtype: TFL
Package:
  name : SAS Analysis Panels
  title: FDA JumpStart analysis package
Language: 
  name   : SAS
  version: 9.2.x, 9.4.x
Comments: >
  The Disposition Analysis provides the user with the four analyses 
  listed below.
  Analysis 1: Disposition Events by Arm for All Subjects
    Provides a table that contains the frequency and percent of total by 
    treatment arm for each disposition event broken down by category and 
	sub-category as submitted by the sponsor. 
  Analysis 2: Disposition Events by Arm for Exposed Subjects
    For subjects that had at least one drug exposure provides a table that
	contains the frequency and percent of total by treatment arm for each 
	disposition event broken down by category and sub-category as submitted 
	by the sponsor. 
  Analysis 3: Time to Disposition Event by Arm for All Subjects
    For each disposition event in a chosen category and subcategory, provides
	a graph showing the cumulative proportion of subject disposition events 
	over time, using the study day.
  Analysis 4: Time to Disposition Event by Arm for Exposed Subjects
    For each disposition event in a chosen category and subcategory, provides 
	a graph showing the cumulative proportion of exposed subject disposition 
	events over time, using the study day.
  Dataset Requirements:
	Demographics	 	(DM)
	Disposition			(DS)
	Exposure			(EX)
  Variable Requirements:
	DM 	- Actual Arm 				(ACTARM)
		- Planned Treatment Arm		(ARM)
		- Subject ID				(USUBJID)
		- Subject Reference Start Date/Time	(RFSTDTC)
		- Planned Arm Code			(ARMCD)
	DS	- Subject ID					(USUBJID)
		- Standardized Disposition Term	(DSDECOD)
		- Study Day of Start of Disposition Event	(DSSTDY)
		-			 					(DSSTDTC)
		- Category for Disposition Event	(DSCAT)
		- 							(DSSCAT)
	EX	- Subject ID				(USUBJID)
Inputs:
  datasets: dat1, dat2, dat3
  P1: String - dataset name
  P2: Number - depart id
  P3: String - subject id
Outputs:
  datasets: out1, out2, out3
  O1:
  O2:
Authors: 
  - name   : Andreas Anastassopoulos
    email  : andreas.anastassapoulos@us.ibm.com
    company: FDA/IBM
	date   : 12/09/2009
  - name   : 
    email  : 
    company: 
	date   : 
Qualification: 
  LastQualDate: MM/DD/YYYY 
  LastQualBy: FirstName LastName
  Stage: T
  Document: a link to latest documentation 
  Note: C - Contributed; D - Development; T - Testing; Q - Qualified
Stages: 
  - Date: 02/02/2016
    Name: Austin Taylor <Austin.Taylor@fda.hhs.gov>
    Stage: C 
    Docs: https://github.com/phuse-org/phuse-scripts/blob/master/tested/SAS/SpecDocs/Disposition%20Analysis%20Specifications%20(12-8-2015).doc
  - Date: 03/08/2016
    Name: Madhusudhan Reddy Parasani
    Stage: T
    Docs: https://github.com/phuse-org/phuse-scripts/blob/master/tested/SAS/DM/disposition_v2.docx
Rating: 
  - User: Madhusudhan Reddy Parasani
    Date: 03/08/2016
    Association: Accenture 
    Stars: 4.5
  - User: htu 
    Date: 03/10/2016 
    Association: Accenture
    Stars: 5
	
