STUDYID, DOMAIN, USUBJID, POOLID, PCSEQ, PCGRPID, PCREFID, PCSPID, PCTESTCD, PCTEST, PCCAT, PCSCAT, PCORRES, PCORRESU, PCSTRESC, PCSTRESN, PCSTRESU, PCSTAT, PCREASND, PCNAM, PCSPEC, PCSPCCND, PCMETHOD, PCBLFL, PCFAST, PCDRVFL, PCLLOQ, PCEXCLFL, PCREASEX, VISITDY, PCDTC, PCENDTC, PCDY, PCENDY, PCTPT, PCTPTNUM, PCELTM, PCTPTREF, PCRFTDTC, PCEVLINT
STUDY123,PC,STUDY123-1001,,1,ARTICLE123-DAY1-STUDY123-1001,,,ARCLE123,ARTICLE123,ANALYTE,,<LLOQ,ug/mL,<LLOQ,,ug/mL,,,,PLASMA,,LC/MS-MS,,,,5,,,1,,,1,,DAY 1 1H,10001,PT1H,,,
STUDY123,PC,STUDY123-1001,,2,ARTICLE123-DAY1-STUDY123-1001,,,ARCLE123,ARTICLE123,ANALYTE,,<LLOQ,ug/mL,<LLOQ,,ug/mL,,,,PLASMA,,LC/MS-MS,,,,5,,,1,,,1,,DAY 1 2H,10002,PT2H,,,
STUDY123,PC,STUDY123-1001,,3,ARTICLE123-DAY1-STUDY123-1001,,,ARCLE123,ARTICLE123,ANALYTE,,<LLOQ,ug/mL,<LLOQ,,ug/mL,,,,PLASMA,,LC/MS-MS,,,,5,,,1,,,1,,DAY 1 4H,10004,PT4H,,,
STUDY123,PC,STUDY123-1001,,4,ARTICLE123-DAY1-STUDY123-1001,,,ARCLE123,ARTICLE123,ANALYTE,,<LLOQ,ug/mL,<LLOQ,,ug/mL,,,,PLASMA,,LC/MS-MS,,,,5,,,1,,,1,,DAY 1 8H,10008,PT8H,,,
STUDY123,PC,STUDY123-1001,,5,ARTICLE123-DAY1-STUDY123-1001,,,ARCLE123,ARTICLE123,ANALYTE,,<LLOQ,ug/mL,<LLOQ,,ug/mL,,,,PLASMA,,LC/MS-MS,,,,5,,,1,,,2,,DAY 1 24H,10024,PT24H,,,
STUDY123,PC,STUDY123-1002,,6,ARTICLE123-DAY1-STUDY123-1002,,,ARCLE123,ARTICLE123,ANALYTE,,<LLOQ,ug/mL,<LLOQ,,ug/mL,,,,PLASMA,,LC/MS-MS,,,,5,,,1,,,1,,DAY 1 1H,10001,PT1H,,,
STUDY123,PC,STUDY123-1002,,7,ARTICLE123-DAY1-STUDY123-1002,,,ARCLE123,ARTICLE123,ANALYTE,,<LLOQ,ug/mL,<LLOQ,,ug/mL,,,,PLASMA,,LC/MS-MS,,,,5,,,1,,,1,,DAY 1 2H,10002,PT2H,,,
STUDY123,PC,STUDY123-1002,,8,ARTICLE123-DAY1-STUDY123-1002,,,ARCLE123,ARTICLE123,ANALYTE,,<LLOQ,ug/mL,<LLOQ,,ug/mL,,,,PLASMA,,LC/MS-MS,,,,5,,,1,,,1,,DAY 1 4H,10004,PT4H,,,
STUDY123,PC,STUDY123-1002,,9,ARTICLE123-DAY1-STUDY123-1002,,,ARCLE123,ARTICLE123,ANALYTE,,<LLOQ,ug/mL,<LLOQ,,ug/mL,,,,PLASMA,,LC/MS-MS,,,,5,,,1,,,1,,DAY 1 8H,10008,PT8H,,,
STUDY123,PC,STUDY123-1002,,10,ARTICLE123-DAY1-STUDY123-1002,,,ARCLE123,ARTICLE123,ANALYTE,,<LLOQ,ug/mL,<LLOQ,,ug/mL,,,,PLASMA,,LC/MS-MS,,,,5,,,1,,,2,,DAY 1 24H,10024,PT24H,,,
STUDY123,PC,STUDY123-1003,,11,ARTICLE123-DAY1-STUDY123-1003,,,ARCLE123,ARTICLE123,ANALYTE,,<LLOQ,ug/mL,<LLOQ,,ug/mL,,,,PLASMA,,LC/MS-MS,,,,5,,,1,,,1,,DAY 1 1H,10001,PT1H,,,
STUDY123,PC,STUDY123-1003,,12,ARTICLE123-DAY1-STUDY123-1003,,,ARCLE123,ARTICLE123,ANALYTE,,<LLOQ,ug/mL,<LLOQ,,ug/mL,,,,PLASMA,,LC/MS-MS,,,,5,,,1,,,1,,DAY 1 2H,10002,PT2H,,,
STUDY123,PC,STUDY123-1003,,13,ARTICLE123-DAY1-STUDY123-1003,,,ARCLE123,ARTICLE123,ANALYTE,,<LLOQ,ug/mL,<LLOQ,,ug/mL,,,,PLASMA,,LC/MS-MS,,,,5,,,1,,,1,,DAY 1 4H,10004,PT4H,,,
STUDY123,PC,STUDY123-1003,,14,ARTICLE123-DAY1-STUDY123-1003,,,ARCLE123,ARTICLE123,ANALYTE,,<LLOQ,ug/mL,<LLOQ,,ug/mL,,,,PLASMA,,LC/MS-MS,,,,5,,,1,,,1,,DAY 1 8H,10008,PT8H,,,
STUDY123,PC,STUDY123-1003,,15,ARTICLE123-DAY1-STUDY123-1003,,,ARCLE123,ARTICLE123,ANALYTE,,<LLOQ,ug/mL,<LLOQ,,ug/mL,,,,PLASMA,,LC/MS-MS,,,,5,,,1,,,2,,DAY 1 24H,10024,PT24H,,,
STUDY123,PC,STUDY123-1004,,16,ARTICLE123-DAY1-STUDY123-1004,,,ARCLE123,ARTICLE123,ANALYTE,,<LLOQ,ug/mL,<LLOQ,,ug/mL,,,,PLASMA,,LC/MS-MS,,,,5,,,1,,,1,,DAY 1 1H,10001,PT1H,,,
STUDY123,PC,STUDY123-1004,,17,ARTICLE123-DAY1-STUDY123-1004,,,ARCLE123,ARTICLE123,ANALYTE,,<LLOQ,ug/mL,<LLOQ,,ug/mL,,,,PLASMA,,LC/MS-MS,,,,5,,,1,,,1,,DAY 1 2H,10002,PT2H,,,
STUDY123,PC,STUDY123-1004,,18,ARTICLE123-DAY1-STUDY123-1004,,,ARCLE123,ARTICLE123,ANALYTE,,<LLOQ,ug/mL,<LLOQ,,ug/mL,,,,PLASMA,,LC/MS-MS,,,,5,,,1,,,1,,DAY 1 4H,10004,PT4H,,,
STUDY123,PC,STUDY123-1004,,19,ARTICLE123-DAY1-STUDY123-1004,,,ARCLE123,ARTICLE123,ANALYTE,,<LLOQ,ug/mL,<LLOQ,,ug/mL,,,,PLASMA,,LC/MS-MS,,,,5,,,1,,,1,,DAY 1 8H,10008,PT8H,,,
STUDY123,PC,STUDY123-1004,,20,ARTICLE123-DAY1-STUDY123-1004,,,ARCLE123,ARTICLE123,ANALYTE,,<LLOQ,ug/mL,<LLOQ,,ug/mL,,,,PLASMA,,LC/MS-MS,,,,5,,,1,,,2,,DAY 1 24H,10024,PT24H,,,
STUDY123,PC,STUDY123-1005,,21,ARTICLE123-DAY1-STUDY123-1005,,,ARCLE123,ARTICLE123,ANALYTE,,<LLOQ,ug/mL,<LLOQ,,ug/mL,,,,PLASMA,,LC/MS-MS,,,,5,,,1,,,1,,DAY 1 1H,10001,PT1H,,,
STUDY123,PC,STUDY123-1005,,22,ARTICLE123-DAY1-STUDY123-1005,,,ARCLE123,ARTICLE123,ANALYTE,,<LLOQ,ug/mL,<LLOQ,,ug/mL,,,,PLASMA,,LC/MS-MS,,,,5,,,1,,,1,,DAY 1 2H,10002,PT2H,,,
STUDY123,PC,STUDY123-1005,,23,ARTICLE123-DAY1-STUDY123-1005,,,ARCLE123,ARTICLE123,ANALYTE,,<LLOQ,ug/mL,<LLOQ,,ug/mL,,,,PLASMA,,LC/MS-MS,,,,5,,,1,,,1,,DAY 1 4H,10004,PT4H,,,
STUDY123,PC,STUDY123-1005,,24,ARTICLE123-DAY1-STUDY123-1005,,,ARCLE123,ARTICLE123,ANALYTE,,<LLOQ,ug/mL,<LLOQ,,ug/mL,,,,PLASMA,,LC/MS-MS,,,,5,,,1,,,1,,DAY 1 8H,10008,PT8H,,,
STUDY123,PC,STUDY123-1005,,25,ARTICLE123-DAY1-STUDY123-1005,,,ARCLE123,ARTICLE123,ANALYTE,,<LLOQ,ug/mL,<LLOQ,,ug/mL,,,,PLASMA,,LC/MS-MS,,,,5,,,1,,,2,,DAY 1 24H,10024,PT24H,,,
STUDY123,PC,STUDY123-1006,,26,ARTICLE123-DAY1-STUDY123-1006,,,ARCLE123,ARTICLE123,ANALYTE,,<LLOQ,ug/mL,<LLOQ,,ug/mL,,,,PLASMA,,LC/MS-MS,,,,5,,,1,,,1,,DAY 1 1H,10001,PT1H,,,
STUDY123,PC,STUDY123-1006,,27,ARTICLE123-DAY1-STUDY123-1006,,,ARCLE123,ARTICLE123,ANALYTE,,<LLOQ,ug/mL,<LLOQ,,ug/mL,,,,PLASMA,,LC/MS-MS,,,,5,,,1,,,1,,DAY 1 2H,10002,PT2H,,,
STUDY123,PC,STUDY123-1006,,28,ARTICLE123-DAY1-STUDY123-1006,,,ARCLE123,ARTICLE123,ANALYTE,,<LLOQ,ug/mL,<LLOQ,,ug/mL,,,,PLASMA,,LC/MS-MS,,,,5,,,1,,,1,,DAY 1 4H,10004,PT4H,,,
STUDY123,PC,STUDY123-1006,,29,ARTICLE123-DAY1-STUDY123-1006,,,ARCLE123,ARTICLE123,ANALYTE,,<LLOQ,ug/mL,<LLOQ,,ug/mL,,,,PLASMA,,LC/MS-MS,,,,5,,,1,,,1,,DAY 1 8H,10008,PT8H,,,
STUDY123,PC,STUDY123-1006,,30,ARTICLE123-DAY1-STUDY123-1006,,,ARCLE123,ARTICLE123,ANALYTE,,<LLOQ,ug/mL,<LLOQ,,ug/mL,,,,PLASMA,,LC/MS-MS,,,,5,,,1,,,2,,DAY 1 24H,10024,PT24H,,,
STUDY123,PC,STUDY123-1501,,31,ARTICLE123-DAY1-STUDY123-1501,,,ARCLE123,ARTICLE123,ANALYTE,,<LLOQ,ug/mL,<LLOQ,,ug/mL,,,,PLASMA,,LC/MS-MS,,,,5,,,1,,,1,,DAY 1 1H,10001,PT1H,,,
STUDY123,PC,STUDY123-1501,,32,ARTICLE123-DAY1-STUDY123-1501,,,ARCLE123,ARTICLE123,ANALYTE,,<LLOQ,ug/mL,<LLOQ,,ug/mL,,,,PLASMA,,LC/MS-MS,,,,5,,,1,,,1,,DAY 1 2H,10002,PT2H,,,
STUDY123,PC,STUDY123-1501,,33,ARTICLE123-DAY1-STUDY123-1501,,,ARCLE123,ARTICLE123,ANALYTE,,<LLOQ,ug/mL,<LLOQ,,ug/mL,,,,PLASMA,,LC/MS-MS,,,,5,,,1,,,1,,DAY 1 4H,10004,PT4H,,,
STUDY123,PC,STUDY123-1501,,34,ARTICLE123-DAY1-STUDY123-1501,,,ARCLE123,ARTICLE123,ANALYTE,,<LLOQ,ug/mL,<LLOQ,,ug/mL,,,,PLASMA,,LC/MS-MS,,,,5,,,1,,,1,,DAY 1 8H,10008,PT8H,,,
STUDY123,PC,STUDY123-1501,,35,ARTICLE123-DAY1-STUDY123-1501,,,ARCLE123,ARTICLE123,ANALYTE,,<LLOQ,ug/mL,<LLOQ,,ug/mL,,,,PLASMA,,LC/MS-MS,,,,5,,,1,,,2,,DAY 1 24H,10024,PT24H,,,
STUDY123,PC,STUDY123-1502,,36,ARTICLE123-DAY1-STUDY123-1502,,,ARCLE123,ARTICLE123,ANALYTE,,<LLOQ,ug/mL,<LLOQ,,ug/mL,,,,PLASMA,,LC/MS-MS,,,,5,,,1,,,1,,DAY 1 1H,10001,PT1H,,,
STUDY123,PC,STUDY123-1502,,37,ARTICLE123-DAY1-STUDY123-1502,,,ARCLE123,ARTICLE123,ANALYTE,,<LLOQ,ug/mL,<LLOQ,,ug/mL,,,,PLASMA,,LC/MS-MS,,,,5,,,1,,,1,,DAY 1 2H,10002,PT2H,,,
STUDY123,PC,STUDY123-1502,,38,ARTICLE123-DAY1-STUDY123-1502,,,ARCLE123,ARTICLE123,ANALYTE,,<LLOQ,ug/mL,<LLOQ,,ug/mL,,,,PLASMA,,LC/MS-MS,,,,5,,,1,,,1,,DAY 1 4H,10004,PT4H,,,
STUDY123,PC,STUDY123-1502,,39,ARTICLE123-DAY1-STUDY123-1502,,,ARCLE123,ARTICLE123,ANALYTE,,<LLOQ,ug/mL,<LLOQ,,ug/mL,,,,PLASMA,,LC/MS-MS,,,,5,,,1,,,1,,DAY 1 8H,10008,PT8H,,,
STUDY123,PC,STUDY123-1502,,40,ARTICLE123-DAY1-STUDY123-1502,,,ARCLE123,ARTICLE123,ANALYTE,,<LLOQ,ug/mL,<LLOQ,,ug/mL,,,,PLASMA,,LC/MS-MS,,,,5,,,1,,,2,,DAY 1 24H,10024,PT24H,,,
STUDY123,PC,STUDY123-1503,,41,ARTICLE123-DAY1-STUDY123-1503,,,ARCLE123,ARTICLE123,ANALYTE,,<LLOQ,ug/mL,<LLOQ,,ug/mL,,,,PLASMA,,LC/MS-MS,,,,5,,,1,,,1,,DAY 1 1H,10001,PT1H,,,
STUDY123,PC,STUDY123-1503,,42,ARTICLE123-DAY1-STUDY123-1503,,,ARCLE123,ARTICLE123,ANALYTE,,<LLOQ,ug/mL,<LLOQ,,ug/mL,,,,PLASMA,,LC/MS-MS,,,,5,,,1,,,1,,DAY 1 2H,10002,PT2H,,,
STUDY123,PC,STUDY123-1503,,43,ARTICLE123-DAY1-STUDY123-1503,,,ARCLE123,ARTICLE123,ANALYTE,,<LLOQ,ug/mL,<LLOQ,,ug/mL,,,,PLASMA,,LC/MS-MS,,,,5,,,1,,,1,,DAY 1 4H,10004,PT4H,,,
STUDY123,PC,STUDY123-1503,,44,ARTICLE123-DAY1-STUDY123-1503,,,ARCLE123,ARTICLE123,ANALYTE,,<LLOQ,ug/mL,<LLOQ,,ug/mL,,,,PLASMA,,LC/MS-MS,,,,5,,,1,,,1,,DAY 1 8H,10008,PT8H,,,
STUDY123,PC,STUDY123-1503,,45,ARTICLE123-DAY1-STUDY123-1503,,,ARCLE123,ARTICLE123,ANALYTE,,<LLOQ,ug/mL,<LLOQ,,ug/mL,,,,PLASMA,,LC/MS-MS,,,,5,,,1,,,2,,DAY 1 24H,10024,PT24H,,,
STUDY123,PC,STUDY123-1504,,46,ARTICLE123-DAY1-STUDY123-1504,,,ARCLE123,ARTICLE123,ANALYTE,,<LLOQ,ug/mL,<LLOQ,,ug/mL,,,,PLASMA,,LC/MS-MS,,,,5,,,1,,,1,,DAY 1 1H,10001,PT1H,,,
STUDY123,PC,STUDY123-1504,,47,ARTICLE123-DAY1-STUDY123-1504,,,ARCLE123,ARTICLE123,ANALYTE,,<LLOQ,ug/mL,<LLOQ,,ug/mL,,,,PLASMA,,LC/MS-MS,,,,5,,,1,,,1,,DAY 1 2H,10002,PT2H,,,
STUDY123,PC,STUDY123-1504,,48,ARTICLE123-DAY1-STUDY123-1504,,,ARCLE123,ARTICLE123,ANALYTE,,<LLOQ,ug/mL,<LLOQ,,ug/mL,,,,PLASMA,,LC/MS-MS,,,,5,,,1,,,1,,DAY 1 4H,10004,PT4H,,,
STUDY123,PC,STUDY123-1504,,49,ARTICLE123-DAY1-STUDY123-1504,,,ARCLE123,ARTICLE123,ANALYTE,,<LLOQ,ug/mL,<LLOQ,,ug/mL,,,,PLASMA,,LC/MS-MS,,,,5,,,1,,,1,,DAY 1 8H,10008,PT8H,,,
STUDY123,PC,STUDY123-1504,,50,ARTICLE123-DAY1-STUDY123-1504,,,ARCLE123,ARTICLE123,ANALYTE,,<LLOQ,ug/mL,<LLOQ,,ug/mL,,,,PLASMA,,LC/MS-MS,,,,5,,,1,,,2,,DAY 1 24H,10024,PT24H,,,
STUDY123,PC,STUDY123-1505,,51,ARTICLE123-DAY1-STUDY123-1505,,,ARCLE123,ARTICLE123,ANALYTE,,<LLOQ,ug/mL,<LLOQ,,ug/mL,,,,PLASMA,,LC/MS-MS,,,,5,,,1,,,1,,DAY 1 1H,10001,PT1H,,,
STUDY123,PC,STUDY123-1505,,52,ARTICLE123-DAY1-STUDY123-1505,,,ARCLE123,ARTICLE123,ANALYTE,,<LLOQ,ug/mL,<LLOQ,,ug/mL,,,,PLASMA,,LC/MS-MS,,,,5,,,1,,,1,,DAY 1 2H,10002,PT2H,,,
STUDY123,PC,STUDY123-1505,,53,ARTICLE123-DAY1-STUDY123-1505,,,ARCLE123,ARTICLE123,ANALYTE,,<LLOQ,ug/mL,<LLOQ,,ug/mL,,,,PLASMA,,LC/MS-MS,,,,5,,,1,,,1,,DAY 1 4H,10004,PT4H,,,
STUDY123,PC,STUDY123-1505,,54,ARTICLE123-DAY1-STUDY123-1505,,,ARCLE123,ARTICLE123,ANALYTE,,<LLOQ,ug/mL,<LLOQ,,ug/mL,,,,PLASMA,,LC/MS-MS,,,,5,,,1,,,1,,DAY 1 8H,10008,PT8H,,,
STUDY123,PC,STUDY123-1505,,55,ARTICLE123-DAY1-STUDY123-1505,,,ARCLE123,ARTICLE123,ANALYTE,,<LLOQ,ug/mL,<LLOQ,,ug/mL,,,,PLASMA,,LC/MS-MS,,,,5,,,1,,,2,,DAY 1 24H,10024,PT24H,,,
STUDY123,PC,STUDY123-1606,,56,ARTICLE123-DAY1-STUDY123-1606,,,ARCLE123,ARTICLE123,ANALYTE,,<LLOQ,ug/mL,<LLOQ,,ug/mL,,,,PLASMA,,LC/MS-MS,,,,5,,,1,,,1,,DAY 1 1H,10001,PT1H,,,
STUDY123,PC,STUDY123-1606,,57,ARTICLE123-DAY1-STUDY123-1606,,,ARCLE123,ARTICLE123,ANALYTE,,<LLOQ,ug/mL,<LLOQ,,ug/mL,,,,PLASMA,,LC/MS-MS,,,,5,,,1,,,1,,DAY 1 2H,10002,PT2H,,,
STUDY123,PC,STUDY123-1606,,58,ARTICLE123-DAY1-STUDY123-1606,,,ARCLE123,ARTICLE123,ANALYTE,,<LLOQ,ug/mL,<LLOQ,,ug/mL,,,,PLASMA,,LC/MS-MS,,,,5,,,1,,,1,,DAY 1 4H,10004,PT4H,,,
STUDY123,PC,STUDY123-1606,,59,ARTICLE123-DAY1-STUDY123-1606,,,ARCLE123,ARTICLE123,ANALYTE,,<LLOQ,ug/mL,<LLOQ,,ug/mL,,,,PLASMA,,LC/MS-MS,,,,5,,,1,,,1,,DAY 1 8H,10008,PT8H,,,
STUDY123,PC,STUDY123-1606,,60,ARTICLE123-DAY1-STUDY123-1606,,,ARCLE123,ARTICLE123,ANALYTE,,<LLOQ,ug/mL,<LLOQ,,ug/mL,,,,PLASMA,,LC/MS-MS,,,,5,,,1,,,2,,DAY 1 24H,10024,PT24H,,,
STUDY123,PC,STUDY123-1001,,61,ARTICLE123-DAY85-STUDY123-1001,,,ARCLE123,ARTICLE123,ANALYTE,,<LLOQ,ug/mL,<LLOQ,,ug/mL,,,,PLASMA,,LC/MS-MS,,,,5,,,85,,,85,,DAY 85 1H,850001,PT1H,,,
STUDY123,PC,STUDY123-1001,,62,ARTICLE123-DAY85-STUDY123-1001,,,ARCLE123,ARTICLE123,ANALYTE,,<LLOQ,ug/mL,<LLOQ,,ug/mL,,,,PLASMA,,LC/MS-MS,,,,5,,,85,,,85,,DAY 85 2H,850002,PT2H,,,
STUDY123,PC,STUDY123-1001,,63,ARTICLE123-DAY85-STUDY123-1001,,,ARCLE123,ARTICLE123,ANALYTE,,<LLOQ,ug/mL,<LLOQ,,ug/mL,,,,PLASMA,,LC/MS-MS,,,,5,,,85,,,85,,DAY 85 4H,850004,PT4H,,,
STUDY123,PC,STUDY123-1001,,64,ARTICLE123-DAY85-STUDY123-1001,,,ARCLE123,ARTICLE123,ANALYTE,,<LLOQ,ug/mL,<LLOQ,,ug/mL,,,,PLASMA,,LC/MS-MS,,,,5,,,85,,,85,,DAY 85 8H,850008,PT8H,,,
STUDY123,PC,STUDY123-1001,,65,ARTICLE123-DAY85-STUDY123-1001,,,ARCLE123,ARTICLE123,ANALYTE,,<LLOQ,ug/mL,<LLOQ,,ug/mL,,,,PLASMA,,LC/MS-MS,,,,5,,,85,,,86,,DAY 85 24H,850024,PT24H,,,
STUDY123,PC,STUDY123-1002,,66,ARTICLE123-DAY85-STUDY123-1002,,,ARCLE123,ARTICLE123,ANALYTE,,<LLOQ,ug/mL,<LLOQ,,ug/mL,,,,PLASMA,,LC/MS-MS,,,,5,,,85,,,85,,DAY 85 1H,850001,PT1H,,,
STUDY123,PC,STUDY123-1002,,67,ARTICLE123-DAY85-STUDY123-1002,,,ARCLE123,ARTICLE123,ANALYTE,,<LLOQ,ug/mL,<LLOQ,,ug/mL,,,,PLASMA,,LC/MS-MS,,,,5,,,85,,,85,,DAY 85 2H,850002,PT2H,,,
STUDY123,PC,STUDY123-1002,,68,ARTICLE123-DAY85-STUDY123-1002,,,ARCLE123,ARTICLE123,ANALYTE,,<LLOQ,ug/mL,<LLOQ,,ug/mL,,,,PLASMA,,LC/MS-MS,,,,5,,,85,,,85,,DAY 85 4H,850004,PT4H,,,
STUDY123,PC,STUDY123-1002,,69,ARTICLE123-DAY85-STUDY123-1002,,,ARCLE123,ARTICLE123,ANALYTE,,<LLOQ,ug/mL,<LLOQ,,ug/mL,,,,PLASMA,,LC/MS-MS,,,,5,,,85,,,85,,DAY 85 8H,850008,PT8H,,,
STUDY123,PC,STUDY123-1002,,70,ARTICLE123-DAY85-STUDY123-1002,,,ARCLE123,ARTICLE123,ANALYTE,,<LLOQ,ug/mL,<LLOQ,,ug/mL,,,,PLASMA,,LC/MS-MS,,,,5,,,85,,,86,,DAY 85 24H,850024,PT24H,,,
STUDY123,PC,STUDY123-1003,,71,ARTICLE123-DAY85-STUDY123-1003,,,ARCLE123,ARTICLE123,ANALYTE,,<LLOQ,ug/mL,<LLOQ,,ug/mL,,,,PLASMA,,LC/MS-MS,,,,5,,,85,,,85,,DAY 85 1H,850001,PT1H,,,
STUDY123,PC,STUDY123-1003,,72,ARTICLE123-DAY85-STUDY123-1003,,,ARCLE123,ARTICLE123,ANALYTE,,<LLOQ,ug/mL,<LLOQ,,ug/mL,,,,PLASMA,,LC/MS-MS,,,,5,,,85,,,85,,DAY 85 2H,850002,PT2H,,,
STUDY123,PC,STUDY123-1003,,73,ARTICLE123-DAY85-STUDY123-1003,,,ARCLE123,ARTICLE123,ANALYTE,,<LLOQ,ug/mL,<LLOQ,,ug/mL,,,,PLASMA,,LC/MS-MS,,,,5,,,85,,,85,,DAY 85 4H,850004,PT4H,,,
STUDY123,PC,STUDY123-1003,,74,ARTICLE123-DAY85-STUDY123-1003,,,ARCLE123,ARTICLE123,ANALYTE,,<LLOQ,ug/mL,<LLOQ,,ug/mL,,,,PLASMA,,LC/MS-MS,,,,5,,,85,,,85,,DAY 85 8H,850008,PT8H,,,
STUDY123,PC,STUDY123-1003,,75,ARTICLE123-DAY85-STUDY123-1003,,,ARCLE123,ARTICLE123,ANALYTE,,<LLOQ,ug/mL,<LLOQ,,ug/mL,,,,PLASMA,,LC/MS-MS,,,,5,,,85,,,86,,DAY 85 24H,850024,PT24H,,,
STUDY123,PC,STUDY123-1004,,76,ARTICLE123-DAY85-STUDY123-1004,,,ARCLE123,ARTICLE123,ANALYTE,,<LLOQ,ug/mL,<LLOQ,,ug/mL,,,,PLASMA,,LC/MS-MS,,,,5,,,85,,,85,,DAY 85 1H,850001,PT1H,,,
STUDY123,PC,STUDY123-1004,,77,ARTICLE123-DAY85-STUDY123-1004,,,ARCLE123,ARTICLE123,ANALYTE,,<LLOQ,ug/mL,<LLOQ,,ug/mL,,,,PLASMA,,LC/MS-MS,,,,5,,,85,,,85,,DAY 85 2H,850002,PT2H,,,
STUDY123,PC,STUDY123-1004,,78,ARTICLE123-DAY85-STUDY123-1004,,,ARCLE123,ARTICLE123,ANALYTE,,<LLOQ,ug/mL,<LLOQ,,ug/mL,,,,PLASMA,,LC/MS-MS,,,,5,,,85,,,85,,DAY 85 4H,850004,PT4H,,,
STUDY123,PC,STUDY123-1004,,79,ARTICLE123-DAY85-STUDY123-1004,,,ARCLE123,ARTICLE123,ANALYTE,,<LLOQ,ug/mL,<LLOQ,,ug/mL,,,,PLASMA,,LC/MS-MS,,,,5,,,85,,,85,,DAY 85 8H,850008,PT8H,,,
STUDY123,PC,STUDY123-1004,,80,ARTICLE123-DAY85-STUDY123-1004,,,ARCLE123,ARTICLE123,ANALYTE,,<LLOQ,ug/mL,<LLOQ,,ug/mL,,,,PLASMA,,LC/MS-MS,,,,5,,,85,,,86,,DAY 85 24H,850024,PT24H,,,
STUDY123,PC,STUDY123-1005,,81,ARTICLE123-DAY85-STUDY123-1005,,,ARCLE123,ARTICLE123,ANALYTE,,<LLOQ,ug/mL,<LLOQ,,ug/mL,,,,PLASMA,,LC/MS-MS,,,,5,,,85,,,85,,DAY 85 1H,850001,PT1H,,,
STUDY123,PC,STUDY123-1005,,82,ARTICLE123-DAY85-STUDY123-1005,,,ARCLE123,ARTICLE123,ANALYTE,,<LLOQ,ug/mL,<LLOQ,,ug/mL,,,,PLASMA,,LC/MS-MS,,,,5,,,85,,,85,,DAY 85 2H,850002,PT2H,,,
STUDY123,PC,STUDY123-1005,,83,ARTICLE123-DAY85-STUDY123-1005,,,ARCLE123,ARTICLE123,ANALYTE,,<LLOQ,ug/mL,<LLOQ,,ug/mL,,,,PLASMA,,LC/MS-MS,,,,5,,,85,,,85,,DAY 85 4H,850004,PT4H,,,
STUDY123,PC,STUDY123-1005,,84,ARTICLE123-DAY85-STUDY123-1005,,,ARCLE123,ARTICLE123,ANALYTE,,<LLOQ,ug/mL,<LLOQ,,ug/mL,,,,PLASMA,,LC/MS-MS,,,,5,,,85,,,85,,DAY 85 8H,850008,PT8H,,,
STUDY123,PC,STUDY123-1005,,85,ARTICLE123-DAY85-STUDY123-1005,,,ARCLE123,ARTICLE123,ANALYTE,,<LLOQ,ug/mL,<LLOQ,,ug/mL,,,,PLASMA,,LC/MS-MS,,,,5,,,85,,,86,,DAY 85 24H,850024,PT24H,,,
STUDY123,PC,STUDY123-1006,,86,ARTICLE123-DAY85-STUDY123-1006,,,ARCLE123,ARTICLE123,ANALYTE,,<LLOQ,ug/mL,<LLOQ,,ug/mL,,,,PLASMA,,LC/MS-MS,,,,5,,,85,,,85,,DAY 85 1H,850001,PT1H,,,
STUDY123,PC,STUDY123-1006,,87,ARTICLE123-DAY85-STUDY123-1006,,,ARCLE123,ARTICLE123,ANALYTE,,<LLOQ,ug/mL,<LLOQ,,ug/mL,,,,PLASMA,,LC/MS-MS,,,,5,,,85,,,85,,DAY 85 2H,850002,PT2H,,,
STUDY123,PC,STUDY123-1006,,88,ARTICLE123-DAY85-STUDY123-1006,,,ARCLE123,ARTICLE123,ANALYTE,,<LLOQ,ug/mL,<LLOQ,,ug/mL,,,,PLASMA,,LC/MS-MS,,,,5,,,85,,,85,,DAY 85 4H,850004,PT4H,,,
STUDY123,PC,STUDY123-1006,,89,ARTICLE123-DAY85-STUDY123-1006,,,ARCLE123,ARTICLE123,ANALYTE,,<LLOQ,ug/mL,<LLOQ,,ug/mL,,,,PLASMA,,LC/MS-MS,,,,5,,,85,,,85,,DAY 85 8H,850008,PT8H,,,
STUDY123,PC,STUDY123-1006,,90,ARTICLE123-DAY85-STUDY123-1006,,,ARCLE123,ARTICLE123,ANALYTE,,<LLOQ,ug/mL,<LLOQ,,ug/mL,,,,PLASMA,,LC/MS-MS,,,,5,,,85,,,86,,DAY 85 24H,850024,PT24H,,,
STUDY123,PC,STUDY123-1501,,91,ARTICLE123-DAY85-STUDY123-1501,,,ARCLE123,ARTICLE123,ANALYTE,,<LLOQ,ug/mL,<LLOQ,,ug/mL,,,,PLASMA,,LC/MS-MS,,,,5,,,85,,,85,,DAY 85 1H,850001,PT1H,,,
STUDY123,PC,STUDY123-1501,,92,ARTICLE123-DAY85-STUDY123-1501,,,ARCLE123,ARTICLE123,ANALYTE,,<LLOQ,ug/mL,<LLOQ,,ug/mL,,,,PLASMA,,LC/MS-MS,,,,5,,,85,,,85,,DAY 85 2H,850002,PT2H,,,
STUDY123,PC,STUDY123-1501,,93,ARTICLE123-DAY85-STUDY123-1501,,,ARCLE123,ARTICLE123,ANALYTE,,0.00887,ug/mL,0.00887,0.00887,ug/mL,,,,PLASMA,,LC/MS-MS,,,,5,,,85,,,85,,DAY 85 4H,850004,PT4H,,,
STUDY123,PC,STUDY123-1501,,94,ARTICLE123-DAY85-STUDY123-1501,,,ARCLE123,ARTICLE123,ANALYTE,,<LLOQ,ug/mL,<LLOQ,,ug/mL,,,,PLASMA,,LC/MS-MS,,,,5,,,85,,,85,,DAY 85 8H,850008,PT8H,,,
STUDY123,PC,STUDY123-1501,,95,ARTICLE123-DAY85-STUDY123-1501,,,ARCLE123,ARTICLE123,ANALYTE,,<LLOQ,ug/mL,<LLOQ,,ug/mL,,,,PLASMA,,LC/MS-MS,,,,5,,,85,,,86,,DAY 85 24H,850024,PT24H,,,
STUDY123,PC,STUDY123-1502,,96,ARTICLE123-DAY85-STUDY123-1502,,,ARCLE123,ARTICLE123,ANALYTE,,<LLOQ,ug/mL,<LLOQ,,ug/mL,,,,PLASMA,,LC/MS-MS,,,,5,,,85,,,85,,DAY 85 1H,850001,PT1H,,,
STUDY123,PC,STUDY123-1502,,97,ARTICLE123-DAY85-STUDY123-1502,,,ARCLE123,ARTICLE123,ANALYTE,,<LLOQ,ug/mL,<LLOQ,,ug/mL,,,,PLASMA,,LC/MS-MS,,,,5,,,85,,,85,,DAY 85 2H,850002,PT2H,,,
STUDY123,PC,STUDY123-1502,,98,ARTICLE123-DAY85-STUDY123-1502,,,ARCLE123,ARTICLE123,ANALYTE,,<LLOQ,ug/mL,<LLOQ,,ug/mL,,,,PLASMA,,LC/MS-MS,,,,5,,,85,,,85,,DAY 85 4H,850004,PT4H,,,
STUDY123,PC,STUDY123-1502,,99,ARTICLE123-DAY85-STUDY123-1502,,,ARCLE123,ARTICLE123,ANALYTE,,<LLOQ,ug/mL,<LLOQ,,ug/mL,,,,PLASMA,,LC/MS-MS,,,,5,,,85,,,85,,DAY 85 8H,850008,PT8H,,,
STUDY123,PC,STUDY123-1502,,100,ARTICLE123-DAY85-STUDY123-1502,,,ARCLE123,ARTICLE123,ANALYTE,,<LLOQ,ug/mL,<LLOQ,,ug/mL,,,,PLASMA,,LC/MS-MS,,,,5,,,85,,,86,,DAY 85 24H,850024,PT24H,,,
STUDY123,PC,STUDY123-1503,,101,ARTICLE123-DAY85-STUDY123-1503,,,ARCLE123,ARTICLE123,ANALYTE,,<LLOQ,ug/mL,<LLOQ,,ug/mL,,,,PLASMA,,LC/MS-MS,,,,5,,,85,,,85,,DAY 85 1H,850001,PT1H,,,
STUDY123,PC,STUDY123-1503,,102,ARTICLE123-DAY85-STUDY123-1503,,,ARCLE123,ARTICLE123,ANALYTE,,<LLOQ,ug/mL,<LLOQ,,ug/mL,,,,PLASMA,,LC/MS-MS,,,,5,,,85,,,85,,DAY 85 2H,850002,PT2H,,,
STUDY123,PC,STUDY123-1503,,103,ARTICLE123-DAY85-STUDY123-1503,,,ARCLE123,ARTICLE123,ANALYTE,,<LLOQ,ug/mL,<LLOQ,,ug/mL,,,,PLASMA,,LC/MS-MS,,,,5,,,85,,,85,,DAY 85 4H,850004,PT4H,,,
STUDY123,PC,STUDY123-1503,,104,ARTICLE123-DAY85-STUDY123-1503,,,ARCLE123,ARTICLE123,ANALYTE,,<LLOQ,ug/mL,<LLOQ,,ug/mL,,,,PLASMA,,LC/MS-MS,,,,5,,,85,,,85,,DAY 85 8H,850008,PT8H,,,
STUDY123,PC,STUDY123-1503,,105,ARTICLE123-DAY85-STUDY123-1503,,,ARCLE123,ARTICLE123,ANALYTE,,<LLOQ,ug/mL,<LLOQ,,ug/mL,,,,PLASMA,,LC/MS-MS,,,,5,,,85,,,86,,DAY 85 24H,850024,PT24H,,,
STUDY123,PC,STUDY123-1504,,106,ARTICLE123-DAY85-STUDY123-1504,,,ARCLE123,ARTICLE123,ANALYTE,,<LLOQ,ug/mL,<LLOQ,,ug/mL,,,,PLASMA,,LC/MS-MS,,,,5,,,85,,,85,,DAY 85 1H,850001,PT1H,,,
STUDY123,PC,STUDY123-1504,,107,ARTICLE123-DAY85-STUDY123-1504,,,ARCLE123,ARTICLE123,ANALYTE,,<LLOQ,ug/mL,<LLOQ,,ug/mL,,,,PLASMA,,LC/MS-MS,,,,5,,,85,,,85,,DAY 85 2H,850002,PT2H,,,
STUDY123,PC,STUDY123-1504,,108,ARTICLE123-DAY85-STUDY123-1504,,,ARCLE123,ARTICLE123,ANALYTE,,<LLOQ,ug/mL,<LLOQ,,ug/mL,,,,PLASMA,,LC/MS-MS,,,,5,,,85,,,85,,DAY 85 4H,850004,PT4H,,,
STUDY123,PC,STUDY123-1504,,109,ARTICLE123-DAY85-STUDY123-1504,,,ARCLE123,ARTICLE123,ANALYTE,,<LLOQ,ug/mL,<LLOQ,,ug/mL,,,,PLASMA,,LC/MS-MS,,,,5,,,85,,,85,,DAY 85 8H,850008,PT8H,,,
STUDY123,PC,STUDY123-1504,,110,ARTICLE123-DAY85-STUDY123-1504,,,ARCLE123,ARTICLE123,ANALYTE,,<LLOQ,ug/mL,<LLOQ,,ug/mL,,,,PLASMA,,LC/MS-MS,,,,5,,,85,,,86,,DAY 85 24H,850024,PT24H,,,
STUDY123,PC,STUDY123-1505,,111,ARTICLE123-DAY85-STUDY123-1505,,,ARCLE123,ARTICLE123,ANALYTE,,<LLOQ,ug/mL,<LLOQ,,ug/mL,,,,PLASMA,,LC/MS-MS,,,,5,,,85,,,85,,DAY 85 1H,850001,PT1H,,,
STUDY123,PC,STUDY123-1505,,112,ARTICLE123-DAY85-STUDY123-1505,,,ARCLE123,ARTICLE123,ANALYTE,,<LLOQ,ug/mL,<LLOQ,,ug/mL,,,,PLASMA,,LC/MS-MS,,,,5,,,85,,,85,,DAY 85 2H,850002,PT2H,,,
STUDY123,PC,STUDY123-1505,,113,ARTICLE123-DAY85-STUDY123-1505,,,ARCLE123,ARTICLE123,ANALYTE,,<LLOQ,ug/mL,<LLOQ,,ug/mL,,,,PLASMA,,LC/MS-MS,,,,5,,,85,,,85,,DAY 85 4H,850004,PT4H,,,
STUDY123,PC,STUDY123-1505,,114,ARTICLE123-DAY85-STUDY123-1505,,,ARCLE123,ARTICLE123,ANALYTE,,<LLOQ,ug/mL,<LLOQ,,ug/mL,,,,PLASMA,,LC/MS-MS,,,,5,,,85,,,85,,DAY 85 8H,850008,PT8H,,,
STUDY123,PC,STUDY123-1505,,115,ARTICLE123-DAY85-STUDY123-1505,,,ARCLE123,ARTICLE123,ANALYTE,,<LLOQ,ug/mL,<LLOQ,,ug/mL,,,,PLASMA,,LC/MS-MS,,,,5,,,85,,,86,,DAY 85 24H,850024,PT24H,,,
STUDY123,PC,STUDY123-1606,,116,ARTICLE123-DAY85-STUDY123-1606,,,ARCLE123,ARTICLE123,ANALYTE,,<LLOQ,ug/mL,<LLOQ,,ug/mL,,,,PLASMA,,LC/MS-MS,,,,5,,,85,,,85,,DAY 85 1H,850001,PT1H,,,
STUDY123,PC,STUDY123-1606,,117,ARTICLE123-DAY85-STUDY123-1606,,,ARCLE123,ARTICLE123,ANALYTE,,<LLOQ,ug/mL,<LLOQ,,ug/mL,,,,PLASMA,,LC/MS-MS,,,,5,,,85,,,85,,DAY 85 2H,850002,PT2H,,,
STUDY123,PC,STUDY123-1606,,118,ARTICLE123-DAY85-STUDY123-1606,,,ARCLE123,ARTICLE123,ANALYTE,,<LLOQ,ug/mL,<LLOQ,,ug/mL,,,,PLASMA,,LC/MS-MS,,,,5,,,85,,,85,,DAY 85 4H,850004,PT4H,,,
STUDY123,PC,STUDY123-1606,,119,ARTICLE123-DAY85-STUDY123-1606,,,ARCLE123,ARTICLE123,ANALYTE,,<LLOQ,ug/mL,<LLOQ,,ug/mL,,,,PLASMA,,LC/MS-MS,,,,5,,,85,,,85,,DAY 85 8H,850008,PT8H,,,
STUDY123,PC,STUDY123-1606,,120,ARTICLE123-DAY85-STUDY123-1606,,,ARCLE123,ARTICLE123,ANALYTE,,<LLOQ,ug/mL,<LLOQ,,ug/mL,,,,PLASMA,,LC/MS-MS,,,,5,,,85,,,86,,DAY 85 24H,850024,PT24H,,,
STUDY123,PC,STUDY123-1001,,121,ARTICLE123-DAY85-STUDY123-1001,,,ARCLE123,ARTICLE123,ANALYTE,,<LLOQ,ug/mL,<LLOQ,,ug/mL,,,,PLASMA,,LC/MS-MS,,,,5,,,85,,,85,,DAY 85 1H,850001,PT1H,,,
STUDY123,PC,STUDY123-1001,,122,ARTICLE123-DAY85-STUDY123-1001,,,ARCLE123,ARTICLE123,ANALYTE,,<LLOQ,ug/mL,<LLOQ,,ug/mL,,,,PLASMA,,LC/MS-MS,,,,5,,,85,,,85,,DAY 85 2H,850002,PT2H,,,
STUDY123,PC,STUDY123-1001,,123,ARTICLE123-DAY85-STUDY123-1001,,,ARCLE123,ARTICLE123,ANALYTE,,<LLOQ,ug/mL,<LLOQ,,ug/mL,,,,PLASMA,,LC/MS-MS,,,,5,,,85,,,85,,DAY 85 4H,850004,PT4H,,,
STUDY123,PC,STUDY123-1001,,124,ARTICLE123-DAY85-STUDY123-1001,,,ARCLE123,ARTICLE123,ANALYTE,,<LLOQ,ug/mL,<LLOQ,,ug/mL,,,,PLASMA,,LC/MS-MS,,,,5,,,85,,,85,,DAY 85 8H,850008,PT8H,,,
STUDY123,PC,STUDY123-1001,,125,ARTICLE123-DAY85-STUDY123-1001,,,ARCLE123,ARTICLE123,ANALYTE,,<LLOQ,ug/mL,<LLOQ,,ug/mL,,,,PLASMA,,LC/MS-MS,,,,5,,,85,,,86,,DAY 85 24H,850024,PT24H,,,
STUDY123,PC,STUDY123-1002,,126,ARTICLE123-DAY85-STUDY123-1002,,,ARCLE123,ARTICLE123,ANALYTE,,<LLOQ,ug/mL,<LLOQ,,ug/mL,,,,PLASMA,,LC/MS-MS,,,,5,,,85,,,85,,DAY 85 1H,850001,PT1H,,,
STUDY123,PC,STUDY123-1002,,127,ARTICLE123-DAY85-STUDY123-1002,,,ARCLE123,ARTICLE123,ANALYTE,,<LLOQ,ug/mL,<LLOQ,,ug/mL,,,,PLASMA,,LC/MS-MS,,,,5,,,85,,,85,,DAY 85 2H,850002,PT2H,,,
STUDY123,PC,STUDY123-1002,,128,ARTICLE123-DAY85-STUDY123-1002,,,ARCLE123,ARTICLE123,ANALYTE,,<LLOQ,ug/mL,<LLOQ,,ug/mL,,,,PLASMA,,LC/MS-MS,,,,5,,,85,,,85,,DAY 85 4H,850004,PT4H,,,
STUDY123,PC,STUDY123-1002,,129,ARTICLE123-DAY85-STUDY123-1002,,,ARCLE123,ARTICLE123,ANALYTE,,<LLOQ,ug/mL,<LLOQ,,ug/mL,,,,PLASMA,,LC/MS-MS,,,,5,,,85,,,85,,DAY 85 8H,850008,PT8H,,,
STUDY123,PC,STUDY123-1002,,130,ARTICLE123-DAY85-STUDY123-1002,,,ARCLE123,ARTICLE123,ANALYTE,,<LLOQ,ug/mL,<LLOQ,,ug/mL,,,,PLASMA,,LC/MS-MS,,,,5,,,85,,,86,,DAY 85 24H,850024,PT24H,,,
STUDY123,PC,STUDY123-1003,,131,ARTICLE123-DAY85-STUDY123-1003,,,ARCLE123,ARTICLE123,ANALYTE,,<LLOQ,ug/mL,<LLOQ,,ug/mL,,,,PLASMA,,LC/MS-MS,,,,5,,,85,,,85,,DAY 85 1H,850001,PT1H,,,
STUDY123,PC,STUDY123-1003,,132,ARTICLE123-DAY85-STUDY123-1003,,,ARCLE123,ARTICLE123,ANALYTE,,<LLOQ,ug/mL,<LLOQ,,ug/mL,,,,PLASMA,,LC/MS-MS,,,,5,,,85,,,85,,DAY 85 2H,850002,PT2H,,,
STUDY123,PC,STUDY123-1003,,133,ARTICLE123-DAY85-STUDY123-1003,,,ARCLE123,ARTICLE123,ANALYTE,,<LLOQ,ug/mL,<LLOQ,,ug/mL,,,,PLASMA,,LC/MS-MS,,,,5,,,85,,,85,,DAY 85 4H,850004,PT4H,,,
STUDY123,PC,STUDY123-1003,,134,ARTICLE123-DAY85-STUDY123-1003,,,ARCLE123,ARTICLE123,ANALYTE,,<LLOQ,ug/mL,<LLOQ,,ug/mL,,,,PLASMA,,LC/MS-MS,,,,5,,,85,,,85,,DAY 85 8H,850008,PT8H,,,
STUDY123,PC,STUDY123-1003,,135,ARTICLE123-DAY85-STUDY123-1003,,,ARCLE123,ARTICLE123,ANALYTE,,<LLOQ,ug/mL,<LLOQ,,ug/mL,,,,PLASMA,,LC/MS-MS,,,,5,,,85,,,86,,DAY 85 24H,850024,PT24H,,,
STUDY123,PC,STUDY123-1004,,136,ARTICLE123-DAY85-STUDY123-1004,,,ARCLE123,ARTICLE123,ANALYTE,,<LLOQ,ug/mL,<LLOQ,,ug/mL,,,,PLASMA,,LC/MS-MS,,,,5,,,85,,,85,,DAY 85 1H,850001,PT1H,,,
STUDY123,PC,STUDY123-1004,,137,ARTICLE123-DAY85-STUDY123-1004,,,ARCLE123,ARTICLE123,ANALYTE,,<LLOQ,ug/mL,<LLOQ,,ug/mL,,,,PLASMA,,LC/MS-MS,,,,5,,,85,,,85,,DAY 85 2H,850002,PT2H,,,
STUDY123,PC,STUDY123-1004,,138,ARTICLE123-DAY85-STUDY123-1004,,,ARCLE123,ARTICLE123,ANALYTE,,<LLOQ,ug/mL,<LLOQ,,ug/mL,,,,PLASMA,,LC/MS-MS,,,,5,,,85,,,85,,DAY 85 4H,850004,PT4H,,,
STUDY123,PC,STUDY123-1004,,139,ARTICLE123-DAY85-STUDY123-1004,,,ARCLE123,ARTICLE123,ANALYTE,,<LLOQ,ug/mL,<LLOQ,,ug/mL,,,,PLASMA,,LC/MS-MS,,,,5,,,85,,,85,,DAY 85 8H,850008,PT8H,,,
STUDY123,PC,STUDY123-1004,,140,ARTICLE123-DAY85-STUDY123-1004,,,ARCLE123,ARTICLE123,ANALYTE,,<LLOQ,ug/mL,<LLOQ,,ug/mL,,,,PLASMA,,LC/MS-MS,,,,5,,,85,,,86,,DAY 85 24H,850024,PT24H,,,
STUDY123,PC,STUDY123-1005,,141,ARTICLE123-DAY85-STUDY123-1005,,,ARCLE123,ARTICLE123,ANALYTE,,<LLOQ,ug/mL,<LLOQ,,ug/mL,,,,PLASMA,,LC/MS-MS,,,,5,,,85,,,85,,DAY 85 1H,850001,PT1H,,,
STUDY123,PC,STUDY123-1005,,142,ARTICLE123-DAY85-STUDY123-1005,,,ARCLE123,ARTICLE123,ANALYTE,,<LLOQ,ug/mL,<LLOQ,,ug/mL,,,,PLASMA,,LC/MS-MS,,,,5,,,85,,,85,,DAY 85 2H,850002,PT2H,,,
STUDY123,PC,STUDY123-1005,,143,ARTICLE123-DAY85-STUDY123-1005,,,ARCLE123,ARTICLE123,ANALYTE,,<LLOQ,ug/mL,<LLOQ,,ug/mL,,,,PLASMA,,LC/MS-MS,,,,5,,,85,,,85,,DAY 85 4H,850004,PT4H,,,
STUDY123,PC,STUDY123-1005,,144,ARTICLE123-DAY85-STUDY123-1005,,,ARCLE123,ARTICLE123,ANALYTE,,<LLOQ,ug/mL,<LLOQ,,ug/mL,,,,PLASMA,,LC/MS-MS,,,,5,,,85,,,85,,DAY 85 8H,850008,PT8H,,,
STUDY123,PC,STUDY123-1005,,145,ARTICLE123-DAY85-STUDY123-1005,,,ARCLE123,ARTICLE123,ANALYTE,,<LLOQ,ug/mL,<LLOQ,,ug/mL,,,,PLASMA,,LC/MS-MS,,,,5,,,85,,,86,,DAY 85 24H,850024,PT24H,,,
STUDY123,PC,STUDY123-1006,,146,ARTICLE123-DAY85-STUDY123-1006,,,ARCLE123,ARTICLE123,ANALYTE,,<LLOQ,ug/mL,<LLOQ,,ug/mL,,,,PLASMA,,LC/MS-MS,,,,5,,,85,,,85,,DAY 85 1H,850001,PT1H,,,
STUDY123,PC,STUDY123-1006,,147,ARTICLE123-DAY85-STUDY123-1006,,,ARCLE123,ARTICLE123,ANALYTE,,<LLOQ,ug/mL,<LLOQ,,ug/mL,,,,PLASMA,,LC/MS-MS,,,,5,,,85,,,85,,DAY 85 2H,850002,PT2H,,,
STUDY123,PC,STUDY123-1006,,148,ARTICLE123-DAY85-STUDY123-1006,,,ARCLE123,ARTICLE123,ANALYTE,,<LLOQ,ug/mL,<LLOQ,,ug/mL,,,,PLASMA,,LC/MS-MS,,,,5,,,85,,,85,,DAY 85 4H,850004,PT4H,,,
STUDY123,PC,STUDY123-1006,,149,ARTICLE123-DAY85-STUDY123-1006,,,ARCLE123,ARTICLE123,ANALYTE,,<LLOQ,ug/mL,<LLOQ,,ug/mL,,,,PLASMA,,LC/MS-MS,,,,5,,,85,,,85,,DAY 85 8H,850008,PT8H,,,
STUDY123,PC,STUDY123-1006,,150,ARTICLE123-DAY85-STUDY123-1006,,,ARCLE123,ARTICLE123,ANALYTE,,<LLOQ,ug/mL,<LLOQ,,ug/mL,,,,PLASMA,,LC/MS-MS,,,,5,,,85,,,86,,DAY 85 24H,850024,PT24H,,,
STUDY123,PC,STUDY123-1501,,151,ARTICLE123-DAY85-STUDY123-1501,,,ARCLE123,ARTICLE123,ANALYTE,,<LLOQ,ug/mL,<LLOQ,,ug/mL,,,,PLASMA,,LC/MS-MS,,,,5,,,85,,,85,,DAY 85 1H,850001,PT1H,,,
STUDY123,PC,STUDY123-1501,,152,ARTICLE123-DAY85-STUDY123-1501,,,ARCLE123,ARTICLE123,ANALYTE,,<LLOQ,ug/mL,<LLOQ,,ug/mL,,,,PLASMA,,LC/MS-MS,,,,5,,,85,,,85,,DAY 85 2H,850002,PT2H,,,
STUDY123,PC,STUDY123-1501,,153,ARTICLE123-DAY85-STUDY123-1501,,,ARCLE123,ARTICLE123,ANALYTE,,<LLOQ,ug/mL,<LLOQ,,ug/mL,,,,PLASMA,,LC/MS-MS,,,,5,,,85,,,85,,DAY 85 4H,850004,PT4H,,,
STUDY123,PC,STUDY123-1501,,154,ARTICLE123-DAY85-STUDY123-1501,,,ARCLE123,ARTICLE123,ANALYTE,,<LLOQ,ug/mL,<LLOQ,,ug/mL,,,,PLASMA,,LC/MS-MS,,,,5,,,85,,,85,,DAY 85 8H,850008,PT8H,,,
STUDY123,PC,STUDY123-1501,,155,ARTICLE123-DAY85-STUDY123-1501,,,ARCLE123,ARTICLE123,ANALYTE,,<LLOQ,ug/mL,<LLOQ,,ug/mL,,,,PLASMA,,LC/MS-MS,,,,5,,,85,,,86,,DAY 85 24H,850024,PT24H,,,
STUDY123,PC,STUDY123-1502,,156,ARTICLE123-DAY85-STUDY123-1502,,,ARCLE123,ARTICLE123,ANALYTE,,<LLOQ,ug/mL,<LLOQ,,ug/mL,,,,PLASMA,,LC/MS-MS,,,,5,,,85,,,85,,DAY 85 1H,850001,PT1H,,,
STUDY123,PC,STUDY123-1502,,157,ARTICLE123-DAY85-STUDY123-1502,,,ARCLE123,ARTICLE123,ANALYTE,,<LLOQ,ug/mL,<LLOQ,,ug/mL,,,,PLASMA,,LC/MS-MS,,,,5,,,85,,,85,,DAY 85 2H,850002,PT2H,,,
STUDY123,PC,STUDY123-1502,,158,ARTICLE123-DAY85-STUDY123-1502,,,ARCLE123,ARTICLE123,ANALYTE,,<LLOQ,ug/mL,<LLOQ,,ug/mL,,,,PLASMA,,LC/MS-MS,,,,5,,,85,,,85,,DAY 85 4H,850004,PT4H,,,
STUDY123,PC,STUDY123-1502,,159,ARTICLE123-DAY85-STUDY123-1502,,,ARCLE123,ARTICLE123,ANALYTE,,<LLOQ,ug/mL,<LLOQ,,ug/mL,,,,PLASMA,,LC/MS-MS,,,,5,,,85,,,85,,DAY 85 8H,850008,PT8H,,,
STUDY123,PC,STUDY123-1502,,160,ARTICLE123-DAY85-STUDY123-1502,,,ARCLE123,ARTICLE123,ANALYTE,,<LLOQ,ug/mL,<LLOQ,,ug/mL,,,,PLASMA,,LC/MS-MS,,,,5,,,85,,,86,,DAY 85 24H,850024,PT24H,,,
STUDY123,PC,STUDY123-1503,,161,ARTICLE123-DAY85-STUDY123-1503,,,ARCLE123,ARTICLE123,ANALYTE,,<LLOQ,ug/mL,<LLOQ,,ug/mL,,,,PLASMA,,LC/MS-MS,,,,5,,,85,,,85,,DAY 85 1H,850001,PT1H,,,
STUDY123,PC,STUDY123-1503,,162,ARTICLE123-DAY85-STUDY123-1503,,,ARCLE123,ARTICLE123,ANALYTE,,<LLOQ,ug/mL,<LLOQ,,ug/mL,,,,PLASMA,,LC/MS-MS,,,,5,,,85,,,85,,DAY 85 2H,850002,PT2H,,,
STUDY123,PC,STUDY123-1503,,163,ARTICLE123-DAY85-STUDY123-1503,,,ARCLE123,ARTICLE123,ANALYTE,,<LLOQ,ug/mL,<LLOQ,,ug/mL,,,,PLASMA,,LC/MS-MS,,,,5,,,85,,,85,,DAY 85 4H,850004,PT4H,,,
STUDY123,PC,STUDY123-1503,,164,ARTICLE123-DAY85-STUDY123-1503,,,ARCLE123,ARTICLE123,ANALYTE,,<LLOQ,ug/mL,<LLOQ,,ug/mL,,,,PLASMA,,LC/MS-MS,,,,5,,,85,,,85,,DAY 85 8H,850008,PT8H,,,
STUDY123,PC,STUDY123-1503,,165,ARTICLE123-DAY85-STUDY123-1503,,,ARCLE123,ARTICLE123,ANALYTE,,<LLOQ,ug/mL,<LLOQ,,ug/mL,,,,PLASMA,,LC/MS-MS,,,,5,,,85,,,86,,DAY 85 24H,850024,PT24H,,,
STUDY123,PC,STUDY123-1504,,166,ARTICLE123-DAY85-STUDY123-1504,,,ARCLE123,ARTICLE123,ANALYTE,,<LLOQ,ug/mL,<LLOQ,,ug/mL,,,,PLASMA,,LC/MS-MS,,,,5,,,85,,,85,,DAY 85 1H,850001,PT1H,,,
STUDY123,PC,STUDY123-1504,,167,ARTICLE123-DAY85-STUDY123-1504,,,ARCLE123,ARTICLE123,ANALYTE,,<LLOQ,ug/mL,<LLOQ,,ug/mL,,,,PLASMA,,LC/MS-MS,,,,5,,,85,,,85,,DAY 85 2H,850002,PT2H,,,
STUDY123,PC,STUDY123-1504,,168,ARTICLE123-DAY85-STUDY123-1504,,,ARCLE123,ARTICLE123,ANALYTE,,<LLOQ,ug/mL,<LLOQ,,ug/mL,,,,PLASMA,,LC/MS-MS,,,,5,,,85,,,85,,DAY 85 4H,850004,PT4H,,,
STUDY123,PC,STUDY123-1504,,169,ARTICLE123-DAY85-STUDY123-1504,,,ARCLE123,ARTICLE123,ANALYTE,,<LLOQ,ug/mL,<LLOQ,,ug/mL,,,,PLASMA,,LC/MS-MS,,,,5,,,85,,,85,,DAY 85 8H,850008,PT8H,,,
STUDY123,PC,STUDY123-1504,,170,ARTICLE123-DAY85-STUDY123-1504,,,ARCLE123,ARTICLE123,ANALYTE,,<LLOQ,ug/mL,<LLOQ,,ug/mL,,,,PLASMA,,LC/MS-MS,,,,5,,,85,,,86,,DAY 85 24H,850024,PT24H,,,
STUDY123,PC,STUDY123-1505,,171,ARTICLE123-DAY85-STUDY123-1505,,,ARCLE123,ARTICLE123,ANALYTE,,<LLOQ,ug/mL,<LLOQ,,ug/mL,,,,PLASMA,,LC/MS-MS,,,,5,,,85,,,85,,DAY 85 1H,850001,PT1H,,,
STUDY123,PC,STUDY123-1505,,172,ARTICLE123-DAY85-STUDY123-1505,,,ARCLE123,ARTICLE123,ANALYTE,,<LLOQ,ug/mL,<LLOQ,,ug/mL,,,,PLASMA,,LC/MS-MS,,,,5,,,85,,,85,,DAY 85 2H,850002,PT2H,,,
STUDY123,PC,STUDY123-1505,,173,ARTICLE123-DAY85-STUDY123-1505,,,ARCLE123,ARTICLE123,ANALYTE,,<LLOQ,ug/mL,<LLOQ,,ug/mL,,,,PLASMA,,LC/MS-MS,,,,5,,,85,,,85,,DAY 85 4H,850004,PT4H,,,
STUDY123,PC,STUDY123-1505,,174,ARTICLE123-DAY85-STUDY123-1505,,,ARCLE123,ARTICLE123,ANALYTE,,<LLOQ,ug/mL,<LLOQ,,ug/mL,,,,PLASMA,,LC/MS-MS,,,,5,,,85,,,85,,DAY 85 8H,850008,PT8H,,,
STUDY123,PC,STUDY123-1505,,175,ARTICLE123-DAY85-STUDY123-1505,,,ARCLE123,ARTICLE123,ANALYTE,,<LLOQ,ug/mL,<LLOQ,,ug/mL,,,,PLASMA,,LC/MS-MS,,,,5,,,85,,,86,,DAY 85 24H,850024,PT24H,,,
STUDY123,PC,STUDY123-1606,,176,ARTICLE123-DAY85-STUDY123-1606,,,ARCLE123,ARTICLE123,ANALYTE,,<LLOQ,ug/mL,<LLOQ,,ug/mL,,,,PLASMA,,LC/MS-MS,,,,5,,,85,,,85,,DAY 85 1H,850001,PT1H,,,
STUDY123,PC,STUDY123-1606,,177,ARTICLE123-DAY85-STUDY123-1606,,,ARCLE123,ARTICLE123,ANALYTE,,<LLOQ,ug/mL,<LLOQ,,ug/mL,,,,PLASMA,,LC/MS-MS,,,,5,,,85,,,85,,DAY 85 2H,850002,PT2H,,,
STUDY123,PC,STUDY123-1606,,178,ARTICLE123-DAY85-STUDY123-1606,,,ARCLE123,ARTICLE123,ANALYTE,,<LLOQ,ug/mL,<LLOQ,,ug/mL,,,,PLASMA,,LC/MS-MS,,,,5,,,85,,,85,,DAY 85 4H,850004,PT4H,,,
STUDY123,PC,STUDY123-1606,,179,ARTICLE123-DAY85-STUDY123-1606,,,ARCLE123,ARTICLE123,ANALYTE,,<LLOQ,ug/mL,<LLOQ,,ug/mL,,,,PLASMA,,LC/MS-MS,,,,5,,,85,,,85,,DAY 85 8H,850008,PT8H,,,
STUDY123,PC,STUDY123-1606,,180,ARTICLE123-DAY85-STUDY123-1606,,,ARCLE123,ARTICLE123,ANALYTE,,<LLOQ,ug/mL,<LLOQ,,ug/mL,,,,PLASMA,,LC/MS-MS,,,,5,,,85,,,86,,DAY 85 24H,850024,PT24H,,,
STUDY123,PC,STUDY123-2001,,181,ARTICLE123-DAY1-STUDY123-2001,,,ARCLE123,ARTICLE123,ANALYTE,,0.612,ug/mL,0.612,0.612,ug/mL,,,,PLASMA,,LC/MS-MS,,,,5,,,1,,,1,,DAY 1 1H,10001,PT1H,,,
STUDY123,PC,STUDY123-2001,,182,ARTICLE123-DAY1-STUDY123-2001,,,ARCLE123,ARTICLE123,ANALYTE,,0.703,ug/mL,0.703,0.703,ug/mL,,,,PLASMA,,LC/MS-MS,,,,5,,,1,,,1,,DAY 1 2H,10002,PT2H,,,
STUDY123,PC,STUDY123-2001,,183,ARTICLE123-DAY1-STUDY123-2001,,,ARCLE123,ARTICLE123,ANALYTE,,0.716,ug/mL,0.716,0.716,ug/mL,,,,PLASMA,,LC/MS-MS,,,,5,,,1,,,1,,DAY 1 4H,10004,PT4H,,,
STUDY123,PC,STUDY123-2001,,184,ARTICLE123-DAY1-STUDY123-2001,,,ARCLE123,ARTICLE123,ANALYTE,,0.499,ug/mL,0.499,0.499,ug/mL,,,,PLASMA,,LC/MS-MS,,,,5,,,1,,,1,,DAY 1 8H,10008,PT8H,,,
STUDY123,PC,STUDY123-2001,,185,ARTICLE123-DAY1-STUDY123-2001,,,ARCLE123,ARTICLE123,ANALYTE,,0.521,ug/mL,0.521,0.521,ug/mL,,,,PLASMA,,LC/MS-MS,,,,5,,,1,,,2,,DAY 1 24H,10024,PT24H,,,
STUDY123,PC,STUDY123-2002,,186,ARTICLE123-DAY1-STUDY123-2002,,,ARCLE123,ARTICLE123,ANALYTE,,0.966,ug/mL,0.966,0.966,ug/mL,,,,PLASMA,,LC/MS-MS,,,,5,,,1,,,1,,DAY 1 1H,10001,PT1H,,,
STUDY123,PC,STUDY123-2002,,187,ARTICLE123-DAY1-STUDY123-2002,,,ARCLE123,ARTICLE123,ANALYTE,,1.19,ug/mL,1.19,1.19,ug/mL,,,,PLASMA,,LC/MS-MS,,,,5,,,1,,,1,,DAY 1 2H,10002,PT2H,,,
STUDY123,PC,STUDY123-2002,,188,ARTICLE123-DAY1-STUDY123-2002,,,ARCLE123,ARTICLE123,ANALYTE,,1.14,ug/mL,1.14,1.14,ug/mL,,,,PLASMA,,LC/MS-MS,,,,5,,,1,,,1,,DAY 1 4H,10004,PT4H,,,
STUDY123,PC,STUDY123-2002,,189,ARTICLE123-DAY1-STUDY123-2002,,,ARCLE123,ARTICLE123,ANALYTE,,0.854,ug/mL,0.854,0.854,ug/mL,,,,PLASMA,,LC/MS-MS,,,,5,,,1,,,1,,DAY 1 8H,10008,PT8H,,,
STUDY123,PC,STUDY123-2002,,190,ARTICLE123-DAY1-STUDY123-2002,,,ARCLE123,ARTICLE123,ANALYTE,,1.37,ug/mL,1.37,1.37,ug/mL,,,,PLASMA,,LC/MS-MS,,,,5,,,1,,,2,,DAY 1 24H,10024,PT24H,,,
STUDY123,PC,STUDY123-2003,,191,ARTICLE123-DAY1-STUDY123-2003,,,ARCLE123,ARTICLE123,ANALYTE,,0.627,ug/mL,0.627,0.627,ug/mL,,,,PLASMA,,LC/MS-MS,,,,5,,,1,,,1,,DAY 1 1H,10001,PT1H,,,
STUDY123,PC,STUDY123-2003,,192,ARTICLE123-DAY1-STUDY123-2003,,,ARCLE123,ARTICLE123,ANALYTE,,0.680,ug/mL,0.680,0.680,ug/mL,,,,PLASMA,,LC/MS-MS,,,,5,,,1,,,1,,DAY 1 2H,10002,PT2H,,,
STUDY123,PC,STUDY123-2003,,193,ARTICLE123-DAY1-STUDY123-2003,,,ARCLE123,ARTICLE123,ANALYTE,,0.683,ug/mL,0.683,0.683,ug/mL,,,,PLASMA,,LC/MS-MS,,,,5,,,1,,,1,,DAY 1 4H,10004,PT4H,,,
STUDY123,PC,STUDY123-2003,,194,ARTICLE123-DAY1-STUDY123-2003,,,ARCLE123,ARTICLE123,ANALYTE,,0.585,ug/mL,0.585,0.585,ug/mL,,,,PLASMA,,LC/MS-MS,,,,5,,,1,,,1,,DAY 1 8H,10008,PT8H,,,
STUDY123,PC,STUDY123-2003,,195,ARTICLE123-DAY1-STUDY123-2003,,,ARCLE123,ARTICLE123,ANALYTE,,0.331,ug/mL,0.331,0.331,ug/mL,,,,PLASMA,,LC/MS-MS,,,,5,,,1,,,2,,DAY 1 24H,10024,PT24H,,,
STUDY123,PC,STUDY123-2004,,196,ARTICLE123-DAY1-STUDY123-2004,,,ARCLE123,ARTICLE123,ANALYTE,,0.724,ug/mL,0.724,0.724,ug/mL,,,,PLASMA,,LC/MS-MS,,,,5,,,1,,,1,,DAY 1 1H,10001,PT1H,,,
STUDY123,PC,STUDY123-2004,,197,ARTICLE123-DAY1-STUDY123-2004,,,ARCLE123,ARTICLE123,ANALYTE,,1.46,ug/mL,1.46,1.46,ug/mL,,,,PLASMA,,LC/MS-MS,,,,5,,,1,,,1,,DAY 1 2H,10002,PT2H,,,
STUDY123,PC,STUDY123-2004,,198,ARTICLE123-DAY1-STUDY123-2004,,,ARCLE123,ARTICLE123,ANALYTE,,1.39,ug/mL,1.39,1.39,ug/mL,,,,PLASMA,,LC/MS-MS,,,,5,,,1,,,1,,DAY 1 4H,10004,PT4H,,,
STUDY123,PC,STUDY123-2004,,199,ARTICLE123-DAY1-STUDY123-2004,,,ARCLE123,ARTICLE123,ANALYTE,,1.04,ug/mL,1.04,1.04,ug/mL,,,,PLASMA,,LC/MS-MS,,,,5,,,1,,,1,,DAY 1 8H,10008,PT8H,,,
STUDY123,PC,STUDY123-2004,,200,ARTICLE123-DAY1-STUDY123-2004,,,ARCLE123,ARTICLE123,ANALYTE,,1.39,ug/mL,1.39,1.39,ug/mL,,,,PLASMA,,LC/MS-MS,,,,5,,,1,,,2,,DAY 1 24H,10024,PT24H,,,
STUDY123,PC,STUDY123-2501,,201,ARTICLE123-DAY1-STUDY123-2501,,,ARCLE123,ARTICLE123,ANALYTE,,0.430,ug/mL,0.430,0.430,ug/mL,,,,PLASMA,,LC/MS-MS,,,,5,,,1,,,1,,DAY 1 1H,10001,PT1H,,,
STUDY123,PC,STUDY123-2501,,202,ARTICLE123-DAY1-STUDY123-2501,,,ARCLE123,ARTICLE123,ANALYTE,,0.875,ug/mL,0.875,0.875,ug/mL,,,,PLASMA,,LC/MS-MS,,,,5,,,1,,,1,,DAY 1 2H,10002,PT2H,,,
STUDY123,PC,STUDY123-2501,,203,ARTICLE123-DAY1-STUDY123-2501,,,ARCLE123,ARTICLE123,ANALYTE,,0.742,ug/mL,0.742,0.742,ug/mL,,,,PLASMA,,LC/MS-MS,,,,5,,,1,,,1,,DAY 1 4H,10004,PT4H,,,
STUDY123,PC,STUDY123-2501,,204,ARTICLE123-DAY1-STUDY123-2501,,,ARCLE123,ARTICLE123,ANALYTE,,0.671,ug/mL,0.671,0.671,ug/mL,,,,PLASMA,,LC/MS-MS,,,,5,,,1,,,1,,DAY 1 8H,10008,PT8H,,,
STUDY123,PC,STUDY123-2501,,205,ARTICLE123-DAY1-STUDY123-2501,,,ARCLE123,ARTICLE123,ANALYTE,,0.683,ug/mL,0.683,0.683,ug/mL,,,,PLASMA,,LC/MS-MS,,,,5,,,1,,,2,,DAY 1 24H,10024,PT24H,,,
STUDY123,PC,STUDY123-2502,,206,ARTICLE123-DAY1-STUDY123-2502,,,ARCLE123,ARTICLE123,ANALYTE,,0.554,ug/mL,0.554,0.554,ug/mL,,,,PLASMA,,LC/MS-MS,,,,5,,,1,,,1,,DAY 1 1H,10001,PT1H,,,
STUDY123,PC,STUDY123-2502,,207,ARTICLE123-DAY1-STUDY123-2502,,,ARCLE123,ARTICLE123,ANALYTE,,0.759,ug/mL,0.759,0.759,ug/mL,,,,PLASMA,,LC/MS-MS,,,,5,,,1,,,1,,DAY 1 2H,10002,PT2H,,,
STUDY123,PC,STUDY123-2502,,208,ARTICLE123-DAY1-STUDY123-2502,,,ARCLE123,ARTICLE123,ANALYTE,,0.692,ug/mL,0.692,0.692,ug/mL,,,,PLASMA,,LC/MS-MS,,,,5,,,1,,,1,,DAY 1 4H,10004,PT4H,,,
STUDY123,PC,STUDY123-2502,,209,ARTICLE123-DAY1-STUDY123-2502,,,ARCLE123,ARTICLE123,ANALYTE,,0.587,ug/mL,0.587,0.587,ug/mL,,,,PLASMA,,LC/MS-MS,,,,5,,,1,,,1,,DAY 1 8H,10008,PT8H,,,
STUDY123,PC,STUDY123-2502,,210,ARTICLE123-DAY1-STUDY123-2502,,,ARCLE123,ARTICLE123,ANALYTE,,0.824,ug/mL,0.824,0.824,ug/mL,,,,PLASMA,,LC/MS-MS,,,,5,,,1,,,2,,DAY 1 24H,10024,PT24H,,,
STUDY123,PC,STUDY123-2503,,211,ARTICLE123-DAY1-STUDY123-2503,,,ARCLE123,ARTICLE123,ANALYTE,,0.651,ug/mL,0.651,0.651,ug/mL,,,,PLASMA,,LC/MS-MS,,,,5,,,1,,,1,,DAY 1 1H,10001,PT1H,,,
STUDY123,PC,STUDY123-2503,,212,ARTICLE123-DAY1-STUDY123-2503,,,ARCLE123,ARTICLE123,ANALYTE,,0.902,ug/mL,0.902,0.902,ug/mL,,,,PLASMA,,LC/MS-MS,,,,5,,,1,,,1,,DAY 1 2H,10002,PT2H,,,
STUDY123,PC,STUDY123-2503,,213,ARTICLE123-DAY1-STUDY123-2503,,,ARCLE123,ARTICLE123,ANALYTE,,0.745,ug/mL,0.745,0.745,ug/mL,,,,PLASMA,,LC/MS-MS,,,,5,,,1,,,1,,DAY 1 4H,10004,PT4H,,,
STUDY123,PC,STUDY123-2503,,214,ARTICLE123-DAY1-STUDY123-2503,,,ARCLE123,ARTICLE123,ANALYTE,,0.590,ug/mL,0.590,0.590,ug/mL,,,,PLASMA,,LC/MS-MS,,,,5,,,1,,,1,,DAY 1 8H,10008,PT8H,,,
STUDY123,PC,STUDY123-2503,,215,ARTICLE123-DAY1-STUDY123-2503,,,ARCLE123,ARTICLE123,ANALYTE,,0.638,ug/mL,0.638,0.638,ug/mL,,,,PLASMA,,LC/MS-MS,,,,5,,,1,,,2,,DAY 1 24H,10024,PT24H,,,
STUDY123,PC,STUDY123-2504,,216,ARTICLE123-DAY1-STUDY123-2504,,,ARCLE123,ARTICLE123,ANALYTE,,0.449,ug/mL,0.449,0.449,ug/mL,,,,PLASMA,,LC/MS-MS,,,,5,,,1,,,1,,DAY 1 1H,10001,PT1H,,,
STUDY123,PC,STUDY123-2504,,217,ARTICLE123-DAY1-STUDY123-2504,,,ARCLE123,ARTICLE123,ANALYTE,,0.634,ug/mL,0.634,0.634,ug/mL,,,,PLASMA,,LC/MS-MS,,,,5,,,1,,,1,,DAY 1 2H,10002,PT2H,,,
STUDY123,PC,STUDY123-2504,,218,ARTICLE123-DAY1-STUDY123-2504,,,ARCLE123,ARTICLE123,ANALYTE,,0.574,ug/mL,0.574,0.574,ug/mL,,,,PLASMA,,LC/MS-MS,,,,5,,,1,,,1,,DAY 1 4H,10004,PT4H,,,
STUDY123,PC,STUDY123-2504,,219,ARTICLE123-DAY1-STUDY123-2504,,,ARCLE123,ARTICLE123,ANALYTE,,0.680,ug/mL,0.680,0.680,ug/mL,,,,PLASMA,,LC/MS-MS,,,,5,,,1,,,1,,DAY 1 8H,10008,PT8H,,,
STUDY123,PC,STUDY123-2504,,220,ARTICLE123-DAY1-STUDY123-2504,,,ARCLE123,ARTICLE123,ANALYTE,,0.458,ug/mL,0.458,0.458,ug/mL,,,,PLASMA,,LC/MS-MS,,,,5,,,1,,,2,,DAY 1 24H,10024,PT24H,,,
STUDY123,PC,STUDY123-3001,,221,ARTICLE123-DAY1-STUDY123-3001,,,ARCLE123,ARTICLE123,ANALYTE,,1.07,ug/mL,1.07,1.07,ug/mL,,,,PLASMA,,LC/MS-MS,,,,5,,,1,,,1,,DAY 1 1H,10001,PT1H,,,
STUDY123,PC,STUDY123-3001,,222,ARTICLE123-DAY1-STUDY123-3001,,,ARCLE123,ARTICLE123,ANALYTE,,1.50,ug/mL,1.50,1.50,ug/mL,,,,PLASMA,,LC/MS-MS,,,,5,,,1,,,1,,DAY 1 2H,10002,PT2H,,,
STUDY123,PC,STUDY123-3001,,223,ARTICLE123-DAY1-STUDY123-3001,,,ARCLE123,ARTICLE123,ANALYTE,,1.62,ug/mL,1.62,1.62,ug/mL,,,,PLASMA,,LC/MS-MS,,,,5,,,1,,,1,,DAY 1 4H,10004,PT4H,,,
STUDY123,PC,STUDY123-3001,,224,ARTICLE123-DAY1-STUDY123-3001,,,ARCLE123,ARTICLE123,ANALYTE,,1.31,ug/mL,1.31,1.31,ug/mL,,,,PLASMA,,LC/MS-MS,,,,5,,,1,,,1,,DAY 1 8H,10008,PT8H,,,
STUDY123,PC,STUDY123-3001,,225,ARTICLE123-DAY1-STUDY123-3001,,,ARCLE123,ARTICLE123,ANALYTE,,2.54,ug/mL,2.54,2.54,ug/mL,,,,PLASMA,,LC/MS-MS,,,,5,,,1,,,2,,DAY 1 24H,10024,PT24H,,,
STUDY123,PC,STUDY123-3002,,226,ARTICLE123-DAY1-STUDY123-3002,,,ARCLE123,ARTICLE123,ANALYTE,,0.745,ug/mL,0.745,0.745,ug/mL,,,,PLASMA,,LC/MS-MS,,,,5,,,1,,,1,,DAY 1 1H,10001,PT1H,,,
STUDY123,PC,STUDY123-3002,,227,ARTICLE123-DAY1-STUDY123-3002,,,ARCLE123,ARTICLE123,ANALYTE,,1.49,ug/mL,1.49,1.49,ug/mL,,,,PLASMA,,LC/MS-MS,,,,5,,,1,,,1,,DAY 1 2H,10002,PT2H,,,
STUDY123,PC,STUDY123-3002,,228,ARTICLE123-DAY1-STUDY123-3002,,,ARCLE123,ARTICLE123,ANALYTE,,2.32,ug/mL,2.32,2.32,ug/mL,,,,PLASMA,,LC/MS-MS,,,,5,,,1,,,1,,DAY 1 4H,10004,PT4H,,,
STUDY123,PC,STUDY123-3002,,229,ARTICLE123-DAY1-STUDY123-3002,,,ARCLE123,ARTICLE123,ANALYTE,,2.13,ug/mL,2.13,2.13,ug/mL,,,,PLASMA,,LC/MS-MS,,,,5,,,1,,,1,,DAY 1 8H,10008,PT8H,,,
STUDY123,PC,STUDY123-3002,,230,ARTICLE123-DAY1-STUDY123-3002,,,ARCLE123,ARTICLE123,ANALYTE,,1.31,ug/mL,1.31,1.31,ug/mL,,,,PLASMA,,LC/MS-MS,,,,5,,,1,,,2,,DAY 1 24H,10024,PT24H,,,
STUDY123,PC,STUDY123-3003,,231,ARTICLE123-DAY1-STUDY123-3003,,,ARCLE123,ARTICLE123,ANALYTE,,0.847,ug/mL,0.847,0.847,ug/mL,,,,PLASMA,,LC/MS-MS,,,,5,,,1,,,1,,DAY 1 1H,10001,PT1H,,,
STUDY123,PC,STUDY123-3003,,232,ARTICLE123-DAY1-STUDY123-3003,,,ARCLE123,ARTICLE123,ANALYTE,,1.82,ug/mL,1.82,1.82,ug/mL,,,,PLASMA,,LC/MS-MS,,,,5,,,1,,,1,,DAY 1 2H,10002,PT2H,,,
STUDY123,PC,STUDY123-3003,,233,ARTICLE123-DAY1-STUDY123-3003,,,ARCLE123,ARTICLE123,ANALYTE,,1.72,ug/mL,1.72,1.72,ug/mL,,,,PLASMA,,LC/MS-MS,,,,5,,,1,,,1,,DAY 1 4H,10004,PT4H,,,
STUDY123,PC,STUDY123-3003,,234,ARTICLE123-DAY1-STUDY123-3003,,,ARCLE123,ARTICLE123,ANALYTE,,1.47,ug/mL,1.47,1.47,ug/mL,,,,PLASMA,,LC/MS-MS,,,,5,,,1,,,1,,DAY 1 8H,10008,PT8H,,,
STUDY123,PC,STUDY123-3003,,235,ARTICLE123-DAY1-STUDY123-3003,,,ARCLE123,ARTICLE123,ANALYTE,,1.23,ug/mL,1.23,1.23,ug/mL,,,,PLASMA,,LC/MS-MS,,,,5,,,1,,,2,,DAY 1 24H,10024,PT24H,,,
STUDY123,PC,STUDY123-3004,,236,ARTICLE123-DAY1-STUDY123-3004,,,ARCLE123,ARTICLE123,ANALYTE,,0.605,ug/mL,0.605,0.605,ug/mL,,,,PLASMA,,LC/MS-MS,,,,5,,,1,,,1,,DAY 1 1H,10001,PT1H,,,
STUDY123,PC,STUDY123-3004,,237,ARTICLE123-DAY1-STUDY123-3004,,,ARCLE123,ARTICLE123,ANALYTE,,1.51,ug/mL,1.51,1.51,ug/mL,,,,PLASMA,,LC/MS-MS,,,,5,,,1,,,1,,DAY 1 2H,10002,PT2H,,,
STUDY123,PC,STUDY123-3004,,238,ARTICLE123-DAY1-STUDY123-3004,,,ARCLE123,ARTICLE123,ANALYTE,,1.40,ug/mL,1.40,1.40,ug/mL,,,,PLASMA,,LC/MS-MS,,,,5,,,1,,,1,,DAY 1 4H,10004,PT4H,,,
STUDY123,PC,STUDY123-3004,,239,ARTICLE123-DAY1-STUDY123-3004,,,ARCLE123,ARTICLE123,ANALYTE,,1.86,ug/mL,1.86,1.86,ug/mL,,,,PLASMA,,LC/MS-MS,,,,5,,,1,,,1,,DAY 1 8H,10008,PT8H,,,
STUDY123,PC,STUDY123-3004,,240,ARTICLE123-DAY1-STUDY123-3004,,,ARCLE123,ARTICLE123,ANALYTE,,2.81,ug/mL,2.81,2.81,ug/mL,,,,PLASMA,,LC/MS-MS,,,,5,,,1,,,2,,DAY 1 24H,10024,PT24H,,,
STUDY123,PC,STUDY123-3005,,241,ARTICLE123-DAY1-STUDY123-3005,,,ARCLE123,ARTICLE123,ANALYTE,,1.23,ug/mL,1.23,1.23,ug/mL,,,,PLASMA,,LC/MS-MS,,,,5,,,1,,,1,,DAY 1 1H,10001,PT1H,,,
STUDY123,PC,STUDY123-3005,,242,ARTICLE123-DAY1-STUDY123-3005,,,ARCLE123,ARTICLE123,ANALYTE,,2.03,ug/mL,2.03,2.03,ug/mL,,,,PLASMA,,LC/MS-MS,,,,5,,,1,,,1,,DAY 1 2H,10002,PT2H,,,
STUDY123,PC,STUDY123-3005,,243,ARTICLE123-DAY1-STUDY123-3005,,,ARCLE123,ARTICLE123,ANALYTE,,2.18,ug/mL,2.18,2.18,ug/mL,,,,PLASMA,,LC/MS-MS,,,,5,,,1,,,1,,DAY 1 4H,10004,PT4H,,,
STUDY123,PC,STUDY123-3005,,244,ARTICLE123-DAY1-STUDY123-3005,,,ARCLE123,ARTICLE123,ANALYTE,,1.67,ug/mL,1.67,1.67,ug/mL,,,,PLASMA,,LC/MS-MS,,,,5,,,1,,,1,,DAY 1 8H,10008,PT8H,,,
STUDY123,PC,STUDY123-3005,,245,ARTICLE123-DAY1-STUDY123-3005,,,ARCLE123,ARTICLE123,ANALYTE,,1.18,ug/mL,1.18,1.18,ug/mL,,,,PLASMA,,LC/MS-MS,,,,5,,,1,,,2,,DAY 1 24H,10024,PT24H,,,
STUDY123,PC,STUDY123-3006,,246,ARTICLE123-DAY1-STUDY123-3006,,,ARCLE123,ARTICLE123,ANALYTE,,0.821,ug/mL,0.821,0.821,ug/mL,,,,PLASMA,,LC/MS-MS,,,,5,,,1,,,1,,DAY 1 1H,10001,PT1H,,,
STUDY123,PC,STUDY123-3006,,247,ARTICLE123-DAY1-STUDY123-3006,,,ARCLE123,ARTICLE123,ANALYTE,,1.26,ug/mL,1.26,1.26,ug/mL,,,,PLASMA,,LC/MS-MS,,,,5,,,1,,,1,,DAY 1 2H,10002,PT2H,,,
STUDY123,PC,STUDY123-3006,,248,ARTICLE123-DAY1-STUDY123-3006,,,ARCLE123,ARTICLE123,ANALYTE,,1.43,ug/mL,1.43,1.43,ug/mL,,,,PLASMA,,LC/MS-MS,,,,5,,,1,,,1,,DAY 1 4H,10004,PT4H,,,
STUDY123,PC,STUDY123-3006,,249,ARTICLE123-DAY1-STUDY123-3006,,,ARCLE123,ARTICLE123,ANALYTE,,1.86,ug/mL,1.86,1.86,ug/mL,,,,PLASMA,,LC/MS-MS,,,,5,,,1,,,1,,DAY 1 8H,10008,PT8H,,,
STUDY123,PC,STUDY123-3006,,250,ARTICLE123-DAY1-STUDY123-3006,,,ARCLE123,ARTICLE123,ANALYTE,,1.93,ug/mL,1.93,1.93,ug/mL,,,,PLASMA,,LC/MS-MS,,,,5,,,1,,,2,,DAY 1 24H,10024,PT24H,,,
STUDY123,PC,STUDY123-3501,,251,ARTICLE123-DAY1-STUDY123-3501,,,ARCLE123,ARTICLE123,ANALYTE,,0.600,ug/mL,0.600,0.600,ug/mL,,,,PLASMA,,LC/MS-MS,,,,5,,,1,,,1,,DAY 1 1H,10001,PT1H,,,
STUDY123,PC,STUDY123-3501,,252,ARTICLE123-DAY1-STUDY123-3501,,,ARCLE123,ARTICLE123,ANALYTE,,1.47,ug/mL,1.47,1.47,ug/mL,,,,PLASMA,,LC/MS-MS,,,,5,,,1,,,1,,DAY 1 2H,10002,PT2H,,,
STUDY123,PC,STUDY123-3501,,253,ARTICLE123-DAY1-STUDY123-3501,,,ARCLE123,ARTICLE123,ANALYTE,,2.40,ug/mL,2.40,2.40,ug/mL,,,,PLASMA,,LC/MS-MS,,,,5,,,1,,,1,,DAY 1 4H,10004,PT4H,,,
STUDY123,PC,STUDY123-3501,,254,ARTICLE123-DAY1-STUDY123-3501,,,ARCLE123,ARTICLE123,ANALYTE,,2.33,ug/mL,2.33,2.33,ug/mL,,,,PLASMA,,LC/MS-MS,,,,5,,,1,,,1,,DAY 1 8H,10008,PT8H,,,
STUDY123,PC,STUDY123-3501,,255,ARTICLE123-DAY1-STUDY123-3501,,,ARCLE123,ARTICLE123,ANALYTE,,1.89,ug/mL,1.89,1.89,ug/mL,,,,PLASMA,,LC/MS-MS,,,,5,,,1,,,2,,DAY 1 24H,10024,PT24H,,,
STUDY123,PC,STUDY123-3502,,256,ARTICLE123-DAY1-STUDY123-3502,,,ARCLE123,ARTICLE123,ANALYTE,,0.565,ug/mL,0.565,0.565,ug/mL,,,,PLASMA,,LC/MS-MS,,,,5,,,1,,,1,,DAY 1 1H,10001,PT1H,,,
STUDY123,PC,STUDY123-3502,,257,ARTICLE123-DAY1-STUDY123-3502,,,ARCLE123,ARTICLE123,ANALYTE,,1.39,ug/mL,1.39,1.39,ug/mL,,,,PLASMA,,LC/MS-MS,,,,5,,,1,,,1,,DAY 1 2H,10002,PT2H,,,
STUDY123,PC,STUDY123-3502,,258,ARTICLE123-DAY1-STUDY123-3502,,,ARCLE123,ARTICLE123,ANALYTE,,1.96,ug/mL,1.96,1.96,ug/mL,,,,PLASMA,,LC/MS-MS,,,,5,,,1,,,1,,DAY 1 4H,10004,PT4H,,,
STUDY123,PC,STUDY123-3502,,259,ARTICLE123-DAY1-STUDY123-3502,,,ARCLE123,ARTICLE123,ANALYTE,,1.81,ug/mL,1.81,1.81,ug/mL,,,,PLASMA,,LC/MS-MS,,,,5,,,1,,,1,,DAY 1 8H,10008,PT8H,,,
STUDY123,PC,STUDY123-3502,,260,ARTICLE123-DAY1-STUDY123-3502,,,ARCLE123,ARTICLE123,ANALYTE,,1.44,ug/mL,1.44,1.44,ug/mL,,,,PLASMA,,LC/MS-MS,,,,5,,,1,,,2,,DAY 1 24H,10024,PT24H,,,
STUDY123,PC,STUDY123-3503,,261,ARTICLE123-DAY1-STUDY123-3503,,,ARCLE123,ARTICLE123,ANALYTE,,0.589,ug/mL,0.589,0.589,ug/mL,,,,PLASMA,,LC/MS-MS,,,,5,,,1,,,1,,DAY 1 1H,10001,PT1H,,,
STUDY123,PC,STUDY123-3503,,262,ARTICLE123-DAY1-STUDY123-3503,,,ARCLE123,ARTICLE123,ANALYTE,,1.02,ug/mL,1.02,1.02,ug/mL,,,,PLASMA,,LC/MS-MS,,,,5,,,1,,,1,,DAY 1 2H,10002,PT2H,,,
STUDY123,PC,STUDY123-3503,,263,ARTICLE123-DAY1-STUDY123-3503,,,ARCLE123,ARTICLE123,ANALYTE,,1.11,ug/mL,1.11,1.11,ug/mL,,,,PLASMA,,LC/MS-MS,,,,5,,,1,,,1,,DAY 1 4H,10004,PT4H,,,
STUDY123,PC,STUDY123-3503,,264,ARTICLE123-DAY1-STUDY123-3503,,,ARCLE123,ARTICLE123,ANALYTE,,0.921,ug/mL,0.921,0.921,ug/mL,,,,PLASMA,,LC/MS-MS,,,,5,,,1,,,1,,DAY 1 8H,10008,PT8H,,,
STUDY123,PC,STUDY123-3503,,265,ARTICLE123-DAY1-STUDY123-3503,,,ARCLE123,ARTICLE123,ANALYTE,,0.470,ug/mL,0.470,0.470,ug/mL,,,,PLASMA,,LC/MS-MS,,,,5,,,1,,,2,,DAY 1 24H,10024,PT24H,,,
STUDY123,PC,STUDY123-3504,,266,ARTICLE123-DAY1-STUDY123-3504,,,ARCLE123,ARTICLE123,ANALYTE,,0.809,ug/mL,0.809,0.809,ug/mL,,,,PLASMA,,LC/MS-MS,,,,5,,,1,,,1,,DAY 1 1H,10001,PT1H,,,
STUDY123,PC,STUDY123-3504,,267,ARTICLE123-DAY1-STUDY123-3504,,,ARCLE123,ARTICLE123,ANALYTE,,1.89,ug/mL,1.89,1.89,ug/mL,,,,PLASMA,,LC/MS-MS,,,,5,,,1,,,1,,DAY 1 2H,10002,PT2H,,,
STUDY123,PC,STUDY123-3504,,268,ARTICLE123-DAY1-STUDY123-3504,,,ARCLE123,ARTICLE123,ANALYTE,,1.56,ug/mL,1.56,1.56,ug/mL,,,,PLASMA,,LC/MS-MS,,,,5,,,1,,,1,,DAY 1 4H,10004,PT4H,,,
STUDY123,PC,STUDY123-3504,,269,ARTICLE123-DAY1-STUDY123-3504,,,ARCLE123,ARTICLE123,ANALYTE,,1.42,ug/mL,1.42,1.42,ug/mL,,,,PLASMA,,LC/MS-MS,,,,5,,,1,,,1,,DAY 1 8H,10008,PT8H,,,
STUDY123,PC,STUDY123-3504,,270,ARTICLE123-DAY1-STUDY123-3504,,,ARCLE123,ARTICLE123,ANALYTE,,2.57,ug/mL,2.57,2.57,ug/mL,,,,PLASMA,,LC/MS-MS,,,,5,,,1,,,2,,DAY 1 24H,10024,PT24H,,,
STUDY123,PC,STUDY123-3505,,271,ARTICLE123-DAY1-STUDY123-3505,,,ARCLE123,ARTICLE123,ANALYTE,,0.649,ug/mL,0.649,0.649,ug/mL,,,,PLASMA,,LC/MS-MS,,,,5,,,1,,,1,,DAY 1 1H,10001,PT1H,,,
STUDY123,PC,STUDY123-3505,,272,ARTICLE123-DAY1-STUDY123-3505,,,ARCLE123,ARTICLE123,ANALYTE,,0.877,ug/mL,0.877,0.877,ug/mL,,,,PLASMA,,LC/MS-MS,,,,5,,,1,,,1,,DAY 1 2H,10002,PT2H,,,
STUDY123,PC,STUDY123-3505,,273,ARTICLE123-DAY1-STUDY123-3505,,,ARCLE123,ARTICLE123,ANALYTE,,0.797,ug/mL,0.797,0.797,ug/mL,,,,PLASMA,,LC/MS-MS,,,,5,,,1,,,1,,DAY 1 4H,10004,PT4H,,,
STUDY123,PC,STUDY123-3505,,274,ARTICLE123-DAY1-STUDY123-3505,,,ARCLE123,ARTICLE123,ANALYTE,,0.682,ug/mL,0.682,0.682,ug/mL,,,,PLASMA,,LC/MS-MS,,,,5,,,1,,,1,,DAY 1 8H,10008,PT8H,,,
STUDY123,PC,STUDY123-3505,,275,ARTICLE123-DAY1-STUDY123-3505,,,ARCLE123,ARTICLE123,ANALYTE,,0.532,ug/mL,0.532,0.532,ug/mL,,,,PLASMA,,LC/MS-MS,,,,5,,,1,,,2,,DAY 1 24H,10024,PT24H,,,
STUDY123,PC,STUDY123-3506,,276,ARTICLE123-DAY1-STUDY123-3506,,,ARCLE123,ARTICLE123,ANALYTE,,0.796,ug/mL,0.796,0.796,ug/mL,,,,PLASMA,,LC/MS-MS,,,,5,,,1,,,1,,DAY 1 1H,10001,PT1H,,,
STUDY123,PC,STUDY123-3506,,277,ARTICLE123-DAY1-STUDY123-3506,,,ARCLE123,ARTICLE123,ANALYTE,,1.36,ug/mL,1.36,1.36,ug/mL,,,,PLASMA,,LC/MS-MS,,,,5,,,1,,,1,,DAY 1 2H,10002,PT2H,,,
STUDY123,PC,STUDY123-3506,,278,ARTICLE123-DAY1-STUDY123-3506,,,ARCLE123,ARTICLE123,ANALYTE,,1.57,ug/mL,1.57,1.57,ug/mL,,,,PLASMA,,LC/MS-MS,,,,5,,,1,,,1,,DAY 1 4H,10004,PT4H,,,
STUDY123,PC,STUDY123-3506,,279,ARTICLE123-DAY1-STUDY123-3506,,,ARCLE123,ARTICLE123,ANALYTE,,1.29,ug/mL,1.29,1.29,ug/mL,,,,PLASMA,,LC/MS-MS,,,,5,,,1,,,1,,DAY 1 8H,10008,PT8H,,,
STUDY123,PC,STUDY123-3506,,280,ARTICLE123-DAY1-STUDY123-3506,,,ARCLE123,ARTICLE123,ANALYTE,,1.20,ug/mL,1.20,1.20,ug/mL,,,,PLASMA,,LC/MS-MS,,,,5,,,1,,,2,,DAY 1 24H,10024,PT24H,,,
STUDY123,PC,STUDY123-4001,,281,ARTICLE123-DAY1-STUDY123-4001,,,ARCLE123,ARTICLE123,ANALYTE,,0.638,ug/mL,0.638,0.638,ug/mL,,,,PLASMA,,LC/MS-MS,,,,5,,,1,,,1,,DAY 1 1H,10001,PT1H,,,
STUDY123,PC,STUDY123-4001,,282,ARTICLE123-DAY1-STUDY123-4001,,,ARCLE123,ARTICLE123,ANALYTE,,1.64,ug/mL,1.64,1.64,ug/mL,,,,PLASMA,,LC/MS-MS,,,,5,,,1,,,1,,DAY 1 2H,10002,PT2H,,,
STUDY123,PC,STUDY123-4001,,283,ARTICLE123-DAY1-STUDY123-4001,,,ARCLE123,ARTICLE123,ANALYTE,,3.21,ug/mL,3.21,3.21,ug/mL,,,,PLASMA,,LC/MS-MS,,,,5,,,1,,,1,,DAY 1 4H,10004,PT4H,,,
STUDY123,PC,STUDY123-4001,,284,ARTICLE123-DAY1-STUDY123-4001,,,ARCLE123,ARTICLE123,ANALYTE,,6.04,ug/mL,6.04,6.04,ug/mL,,,,PLASMA,,LC/MS-MS,,,,5,,,1,,,1,,DAY 1 8H,10008,PT8H,,,
STUDY123,PC,STUDY123-4001,,285,ARTICLE123-DAY1-STUDY123-4001,,,ARCLE123,ARTICLE123,ANALYTE,,6.87,ug/mL,6.87,6.87,ug/mL,,,,PLASMA,,LC/MS-MS,,,,5,,,1,,,2,,DAY 1 24H,10024,PT24H,,,
STUDY123,PC,STUDY123-4002,,286,ARTICLE123-DAY1-STUDY123-4002,,,ARCLE123,ARTICLE123,ANALYTE,,0.944,ug/mL,0.944,0.944,ug/mL,,,,PLASMA,,LC/MS-MS,,,,5,,,1,,,1,,DAY 1 1H,10001,PT1H,,,
STUDY123,PC,STUDY123-4002,,287,ARTICLE123-DAY1-STUDY123-4002,,,ARCLE123,ARTICLE123,ANALYTE,,2.00,ug/mL,2.00,2.00,ug/mL,,,,PLASMA,,LC/MS-MS,,,,5,,,1,,,1,,DAY 1 2H,10002,PT2H,,,
STUDY123,PC,STUDY123-4002,,288,ARTICLE123-DAY1-STUDY123-4002,,,ARCLE123,ARTICLE123,ANALYTE,,2.35,ug/mL,2.35,2.35,ug/mL,,,,PLASMA,,LC/MS-MS,,,,5,,,1,,,1,,DAY 1 4H,10004,PT4H,,,
STUDY123,PC,STUDY123-4002,,289,ARTICLE123-DAY1-STUDY123-4002,,,ARCLE123,ARTICLE123,ANALYTE,,3.46,ug/mL,3.46,3.46,ug/mL,,,,PLASMA,,LC/MS-MS,,,,5,,,1,,,1,,DAY 1 8H,10008,PT8H,,,
STUDY123,PC,STUDY123-4002,,290,ARTICLE123-DAY1-STUDY123-4002,,,ARCLE123,ARTICLE123,ANALYTE,,4.21,ug/mL,4.21,4.21,ug/mL,,,,PLASMA,,LC/MS-MS,,,,5,,,1,,,2,,DAY 1 24H,10024,PT24H,,,
STUDY123,PC,STUDY123-4004,,291,ARTICLE123-DAY1-STUDY123-4004,,,ARCLE123,ARTICLE123,ANALYTE,,0.900,ug/mL,0.900,0.900,ug/mL,,,,PLASMA,,LC/MS-MS,,,,5,,,1,,,1,,DAY 1 1H,10001,PT1H,,,
STUDY123,PC,STUDY123-4004,,292,ARTICLE123-DAY1-STUDY123-4004,,,ARCLE123,ARTICLE123,ANALYTE,,1.59,ug/mL,1.59,1.59,ug/mL,,,,PLASMA,,LC/MS-MS,,,,5,,,1,,,1,,DAY 1 2H,10002,PT2H,,,
STUDY123,PC,STUDY123-4004,,293,ARTICLE123-DAY1-STUDY123-4004,,,ARCLE123,ARTICLE123,ANALYTE,,1.45,ug/mL,1.45,1.45,ug/mL,,,,PLASMA,,LC/MS-MS,,,,5,,,1,,,1,,DAY 1 4H,10004,PT4H,,,
STUDY123,PC,STUDY123-4004,,294,ARTICLE123-DAY1-STUDY123-4004,,,ARCLE123,ARTICLE123,ANALYTE,,1.11,ug/mL,1.11,1.11,ug/mL,,,,PLASMA,,LC/MS-MS,,,,5,,,1,,,1,,DAY 1 8H,10008,PT8H,,,
STUDY123,PC,STUDY123-4004,,295,ARTICLE123-DAY1-STUDY123-4004,,,ARCLE123,ARTICLE123,ANALYTE,,0.758,ug/mL,0.758,0.758,ug/mL,,,,PLASMA,,LC/MS-MS,,,,5,,,1,,,2,,DAY 1 24H,10024,PT24H,,,
STUDY123,PC,STUDY123-4005,,296,ARTICLE123-DAY1-STUDY123-4005,,,ARCLE123,ARTICLE123,ANALYTE,,0.957,ug/mL,0.957,0.957,ug/mL,,,,PLASMA,,LC/MS-MS,,,,5,,,1,,,1,,DAY 1 1H,10001,PT1H,,,
STUDY123,PC,STUDY123-4005,,297,ARTICLE123-DAY1-STUDY123-4005,,,ARCLE123,ARTICLE123,ANALYTE,,2.16,ug/mL,2.16,2.16,ug/mL,,,,PLASMA,,LC/MS-MS,,,,5,,,1,,,1,,DAY 1 2H,10002,PT2H,,,
STUDY123,PC,STUDY123-4005,,298,ARTICLE123-DAY1-STUDY123-4005,,,ARCLE123,ARTICLE123,ANALYTE,,2.35,ug/mL,2.35,2.35,ug/mL,,,,PLASMA,,LC/MS-MS,,,,5,,,1,,,1,,DAY 1 4H,10004,PT4H,,,
STUDY123,PC,STUDY123-4005,,299,ARTICLE123-DAY1-STUDY123-4005,,,ARCLE123,ARTICLE123,ANALYTE,,3.58,ug/mL,3.58,3.58,ug/mL,,,,PLASMA,,LC/MS-MS,,,,5,,,1,,,1,,DAY 1 8H,10008,PT8H,,,
STUDY123,PC,STUDY123-4005,,300,ARTICLE123-DAY1-STUDY123-4005,,,ARCLE123,ARTICLE123,ANALYTE,,4.19,ug/mL,4.19,4.19,ug/mL,,,,PLASMA,,LC/MS-MS,,,,5,,,1,,,2,,DAY 1 24H,10024,PT24H,,,
STUDY123,PC,STUDY123-4006,,301,ARTICLE123-DAY1-STUDY123-4006,,,ARCLE123,ARTICLE123,ANALYTE,,0.680,ug/mL,0.680,0.680,ug/mL,,,,PLASMA,,LC/MS-MS,,,,5,,,1,,,1,,DAY 1 1H,10001,PT1H,,,
STUDY123,PC,STUDY123-4006,,302,ARTICLE123-DAY1-STUDY123-4006,,,ARCLE123,ARTICLE123,ANALYTE,,0.946,ug/mL,0.946,0.946,ug/mL,,,,PLASMA,,LC/MS-MS,,,,5,,,1,,,1,,DAY 1 2H,10002,PT2H,,,
STUDY123,PC,STUDY123-4006,,303,ARTICLE123-DAY1-STUDY123-4006,,,ARCLE123,ARTICLE123,ANALYTE,,1.14,ug/mL,1.14,1.14,ug/mL,,,,PLASMA,,LC/MS-MS,,,,5,,,1,,,1,,DAY 1 4H,10004,PT4H,,,
STUDY123,PC,STUDY123-4006,,304,ARTICLE123-DAY1-STUDY123-4006,,,ARCLE123,ARTICLE123,ANALYTE,,0.918,ug/mL,0.918,0.918,ug/mL,,,,PLASMA,,LC/MS-MS,,,,5,,,1,,,1,,DAY 1 8H,10008,PT8H,,,
STUDY123,PC,STUDY123-4006,,305,ARTICLE123-DAY1-STUDY123-4006,,,ARCLE123,ARTICLE123,ANALYTE,,2.01,ug/mL,2.01,2.01,ug/mL,,,,PLASMA,,LC/MS-MS,,,,5,,,1,,,2,,DAY 1 24H,10024,PT24H,,,
STUDY123,PC,STUDY123-4103,,306,ARTICLE123-DAY1-STUDY123-4103,,,ARCLE123,ARTICLE123,ANALYTE,,0.822,ug/mL,0.822,0.822,ug/mL,,,,PLASMA,,LC/MS-MS,,,,5,,,1,,,1,,DAY 1 1H,10001,PT1H,,,
STUDY123,PC,STUDY123-4103,,307,ARTICLE123-DAY1-STUDY123-4103,,,ARCLE123,ARTICLE123,ANALYTE,,1.52,ug/mL,1.52,1.52,ug/mL,,,,PLASMA,,LC/MS-MS,,,,5,,,1,,,1,,DAY 1 2H,10002,PT2H,,,
STUDY123,PC,STUDY123-4103,,308,ARTICLE123-DAY1-STUDY123-4103,,,ARCLE123,ARTICLE123,ANALYTE,,2.03,ug/mL,2.03,2.03,ug/mL,,,,PLASMA,,LC/MS-MS,,,,5,,,1,,,1,,DAY 1 4H,10004,PT4H,,,
STUDY123,PC,STUDY123-4103,,309,ARTICLE123-DAY1-STUDY123-4103,,,ARCLE123,ARTICLE123,ANALYTE,,5.26,ug/mL,5.26,5.26,ug/mL,,,,PLASMA,,LC/MS-MS,,,,5,,,1,,,1,,DAY 1 8H,10008,PT8H,,,
STUDY123,PC,STUDY123-4103,,310,ARTICLE123-DAY1-STUDY123-4103,,,ARCLE123,ARTICLE123,ANALYTE,,5.60,ug/mL,5.60,5.60,ug/mL,,,,PLASMA,,LC/MS-MS,,,,5,,,1,,,2,,DAY 1 24H,10024,PT24H,,,
STUDY123,PC,STUDY123-4501,,311,ARTICLE123-DAY1-STUDY123-4501,,,ARCLE123,ARTICLE123,ANALYTE,,0.744,ug/mL,0.744,0.744,ug/mL,,,,PLASMA,,LC/MS-MS,,,,5,,,1,,,1,,DAY 1 1H,10001,PT1H,,,
STUDY123,PC,STUDY123-4501,,312,ARTICLE123-DAY1-STUDY123-4501,,,ARCLE123,ARTICLE123,ANALYTE,,3.35,ug/mL,3.35,3.35,ug/mL,,,,PLASMA,,LC/MS-MS,,,,5,,,1,,,1,,DAY 1 2H,10002,PT2H,,,
STUDY123,PC,STUDY123-4501,,313,ARTICLE123-DAY1-STUDY123-4501,,,ARCLE123,ARTICLE123,ANALYTE,,8.24,ug/mL,8.24,8.24,ug/mL,,,,PLASMA,,LC/MS-MS,,,,5,,,1,,,1,,DAY 1 4H,10004,PT4H,,,
STUDY123,PC,STUDY123-4501,,314,ARTICLE123-DAY1-STUDY123-4501,,,ARCLE123,ARTICLE123,ANALYTE,,11.1,ug/mL,11.1,11.1,ug/mL,,,,PLASMA,,LC/MS-MS,,,,5,,,1,,,1,,DAY 1 8H,10008,PT8H,,,
STUDY123,PC,STUDY123-4501,,315,ARTICLE123-DAY1-STUDY123-4501,,,ARCLE123,ARTICLE123,ANALYTE,,10.1,ug/mL,10.1,10.1,ug/mL,,,,PLASMA,,LC/MS-MS,,,,5,,,1,,,2,,DAY 1 24H,10024,PT24H,,,
STUDY123,PC,STUDY123-4502,,316,ARTICLE123-DAY1-STUDY123-4502,,,ARCLE123,ARTICLE123,ANALYTE,,0.958,ug/mL,0.958,0.958,ug/mL,,,,PLASMA,,LC/MS-MS,,,,5,,,1,,,1,,DAY 1 1H,10001,PT1H,,,
STUDY123,PC,STUDY123-4502,,317,ARTICLE123-DAY1-STUDY123-4502,,,ARCLE123,ARTICLE123,ANALYTE,,3.03,ug/mL,3.03,3.03,ug/mL,,,,PLASMA,,LC/MS-MS,,,,5,,,1,,,1,,DAY 1 2H,10002,PT2H,,,
STUDY123,PC,STUDY123-4502,,318,ARTICLE123-DAY1-STUDY123-4502,,,ARCLE123,ARTICLE123,ANALYTE,,5.32,ug/mL,5.32,5.32,ug/mL,,,,PLASMA,,LC/MS-MS,,,,5,,,1,,,1,,DAY 1 4H,10004,PT4H,,,
STUDY123,PC,STUDY123-4502,,319,ARTICLE123-DAY1-STUDY123-4502,,,ARCLE123,ARTICLE123,ANALYTE,,4.42,ug/mL,4.42,4.42,ug/mL,,,,PLASMA,,LC/MS-MS,,,,5,,,1,,,1,,DAY 1 8H,10008,PT8H,,,
STUDY123,PC,STUDY123-4502,,320,ARTICLE123-DAY1-STUDY123-4502,,,ARCLE123,ARTICLE123,ANALYTE,,6.86,ug/mL,6.86,6.86,ug/mL,,,,PLASMA,,LC/MS-MS,,,,5,,,1,,,2,,DAY 1 24H,10024,PT24H,,,
STUDY123,PC,STUDY123-4503,,321,ARTICLE123-DAY1-STUDY123-4503,,,ARCLE123,ARTICLE123,ANALYTE,,1.56,ug/mL,1.56,1.56,ug/mL,,,,PLASMA,,LC/MS-MS,,,,5,,,1,,,1,,DAY 1 1H,10001,PT1H,,,
STUDY123,PC,STUDY123-4503,,322,ARTICLE123-DAY1-STUDY123-4503,,,ARCLE123,ARTICLE123,ANALYTE,,1.88,ug/mL,1.88,1.88,ug/mL,,,,PLASMA,,LC/MS-MS,,,,5,,,1,,,1,,DAY 1 2H,10002,PT2H,,,
STUDY123,PC,STUDY123-4503,,323,ARTICLE123-DAY1-STUDY123-4503,,,ARCLE123,ARTICLE123,ANALYTE,,2.04,ug/mL,2.04,2.04,ug/mL,,,,PLASMA,,LC/MS-MS,,,,5,,,1,,,1,,DAY 1 4H,10004,PT4H,,,
STUDY123,PC,STUDY123-4503,,324,ARTICLE123-DAY1-STUDY123-4503,,,ARCLE123,ARTICLE123,ANALYTE,,1.84,ug/mL,1.84,1.84,ug/mL,,,,PLASMA,,LC/MS-MS,,,,5,,,1,,,1,,DAY 1 8H,10008,PT8H,,,
STUDY123,PC,STUDY123-4503,,325,ARTICLE123-DAY1-STUDY123-4503,,,ARCLE123,ARTICLE123,ANALYTE,,2.42,ug/mL,2.42,2.42,ug/mL,,,,PLASMA,,LC/MS-MS,,,,5,,,1,,,2,,DAY 1 24H,10024,PT24H,,,
STUDY123,PC,STUDY123-4504,,326,ARTICLE123-DAY1-STUDY123-4504,,,ARCLE123,ARTICLE123,ANALYTE,,0.933,ug/mL,0.933,0.933,ug/mL,,,,PLASMA,,LC/MS-MS,,,,5,,,1,,,1,,DAY 1 1H,10001,PT1H,,,
STUDY123,PC,STUDY123-4504,,327,ARTICLE123-DAY1-STUDY123-4504,,,ARCLE123,ARTICLE123,ANALYTE,,3.40,ug/mL,3.40,3.40,ug/mL,,,,PLASMA,,LC/MS-MS,,,,5,,,1,,,1,,DAY 1 2H,10002,PT2H,,,
STUDY123,PC,STUDY123-4504,,328,ARTICLE123-DAY1-STUDY123-4504,,,ARCLE123,ARTICLE123,ANALYTE,,5.52,ug/mL,5.52,5.52,ug/mL,,,,PLASMA,,LC/MS-MS,,,,5,,,1,,,1,,DAY 1 4H,10004,PT4H,,,
STUDY123,PC,STUDY123-4504,,329,ARTICLE123-DAY1-STUDY123-4504,,,ARCLE123,ARTICLE123,ANALYTE,,10.0,ug/mL,10.0,10.0,ug/mL,,,,PLASMA,,LC/MS-MS,,,,5,,,1,,,1,,DAY 1 8H,10008,PT8H,,,
STUDY123,PC,STUDY123-4504,,330,ARTICLE123-DAY1-STUDY123-4504,,,ARCLE123,ARTICLE123,ANALYTE,,10.1,ug/mL,10.1,10.1,ug/mL,,,,PLASMA,,LC/MS-MS,,,,5,,,1,,,2,,DAY 1 24H,10024,PT24H,,,
STUDY123,PC,STUDY123-4506,,331,ARTICLE123-DAY1-STUDY123-4506,,,ARCLE123,ARTICLE123,ANALYTE,,0.956,ug/mL,0.956,0.956,ug/mL,,,,PLASMA,,LC/MS-MS,,,,5,,,1,,,1,,DAY 1 1H,10001,PT1H,,,
STUDY123,PC,STUDY123-4506,,332,ARTICLE123-DAY1-STUDY123-4506,,,ARCLE123,ARTICLE123,ANALYTE,,1.68,ug/mL,1.68,1.68,ug/mL,,,,PLASMA,,LC/MS-MS,,,,5,,,1,,,1,,DAY 1 2H,10002,PT2H,,,
STUDY123,PC,STUDY123-4506,,333,ARTICLE123-DAY1-STUDY123-4506,,,ARCLE123,ARTICLE123,ANALYTE,,2.53,ug/mL,2.53,2.53,ug/mL,,,,PLASMA,,LC/MS-MS,,,,5,,,1,,,1,,DAY 1 4H,10004,PT4H,,,
STUDY123,PC,STUDY123-4506,,334,ARTICLE123-DAY1-STUDY123-4506,,,ARCLE123,ARTICLE123,ANALYTE,,2.49,ug/mL,2.49,2.49,ug/mL,,,,PLASMA,,LC/MS-MS,,,,5,,,1,,,1,,DAY 1 8H,10008,PT8H,,,
STUDY123,PC,STUDY123-4506,,335,ARTICLE123-DAY1-STUDY123-4506,,,ARCLE123,ARTICLE123,ANALYTE,,1.92,ug/mL,1.92,1.92,ug/mL,,,,PLASMA,,LC/MS-MS,,,,5,,,1,,,2,,DAY 1 24H,10024,PT24H,,,
STUDY123,PC,STUDY123-4605,,336,ARTICLE123-DAY1-STUDY123-4605,,,ARCLE123,ARTICLE123,ANALYTE,,0.598,ug/mL,0.598,0.598,ug/mL,,,,PLASMA,,LC/MS-MS,,,,5,,,1,,,1,,DAY 1 1H,10001,PT1H,,,
STUDY123,PC,STUDY123-4605,,337,ARTICLE123-DAY1-STUDY123-4605,,,ARCLE123,ARTICLE123,ANALYTE,,1.05,ug/mL,1.05,1.05,ug/mL,,,,PLASMA,,LC/MS-MS,,,,5,,,1,,,1,,DAY 1 2H,10002,PT2H,,,
STUDY123,PC,STUDY123-4605,,338,ARTICLE123-DAY1-STUDY123-4605,,,ARCLE123,ARTICLE123,ANALYTE,,1.23,ug/mL,1.23,1.23,ug/mL,,,,PLASMA,,LC/MS-MS,,,,5,,,1,,,1,,DAY 1 4H,10004,PT4H,,,
STUDY123,PC,STUDY123-4605,,339,ARTICLE123-DAY1-STUDY123-4605,,,ARCLE123,ARTICLE123,ANALYTE,,1.26,ug/mL,1.26,1.26,ug/mL,,,,PLASMA,,LC/MS-MS,,,,5,,,1,,,1,,DAY 1 8H,10008,PT8H,,,
STUDY123,PC,STUDY123-4605,,340,ARTICLE123-DAY1-STUDY123-4605,,,ARCLE123,ARTICLE123,ANALYTE,,1.85,ug/mL,1.85,1.85,ug/mL,,,,PLASMA,,LC/MS-MS,,,,5,,,1,,,2,,DAY 1 24H,10024,PT24H,,,
STUDY123,PC,STUDY123-2001,,341,ARTICLE123-DAY85-STUDY123-2001,,,ARCLE123,ARTICLE123,ANALYTE,,2.36,ug/mL,2.36,2.36,ug/mL,,,,PLASMA,,LC/MS-MS,,,,5,,,85,,,85,,DAY 85 1H,850001,PT1H,,,
STUDY123,PC,STUDY123-2001,,342,ARTICLE123-DAY85-STUDY123-2001,,,ARCLE123,ARTICLE123,ANALYTE,,3.05,ug/mL,3.05,3.05,ug/mL,,,,PLASMA,,LC/MS-MS,,,,5,,,85,,,85,,DAY 85 2H,850002,PT2H,,,
STUDY123,PC,STUDY123-2001,,343,ARTICLE123-DAY85-STUDY123-2001,,,ARCLE123,ARTICLE123,ANALYTE,,3.02,ug/mL,3.02,3.02,ug/mL,,,,PLASMA,,LC/MS-MS,,,,5,,,85,,,85,,DAY 85 4H,850004,PT4H,,,
STUDY123,PC,STUDY123-2001,,344,ARTICLE123-DAY85-STUDY123-2001,,,ARCLE123,ARTICLE123,ANALYTE,,2.26,ug/mL,2.26,2.26,ug/mL,,,,PLASMA,,LC/MS-MS,,,,5,,,85,,,85,,DAY 85 8H,850008,PT8H,,,
STUDY123,PC,STUDY123-2001,,345,ARTICLE123-DAY85-STUDY123-2001,,,ARCLE123,ARTICLE123,ANALYTE,,1.41,ug/mL,1.41,1.41,ug/mL,,,,PLASMA,,LC/MS-MS,,,,5,,,85,,,86,,DAY 85 24H,850024,PT24H,,,
STUDY123,PC,STUDY123-2002,,346,ARTICLE123-DAY85-STUDY123-2002,,,ARCLE123,ARTICLE123,ANALYTE,,3.25,ug/mL,3.25,3.25,ug/mL,,,,PLASMA,,LC/MS-MS,,,,5,,,85,,,85,,DAY 85 1H,850001,PT1H,,,
STUDY123,PC,STUDY123-2002,,347,ARTICLE123-DAY85-STUDY123-2002,,,ARCLE123,ARTICLE123,ANALYTE,,3.91,ug/mL,3.91,3.91,ug/mL,,,,PLASMA,,LC/MS-MS,,,,5,,,85,,,85,,DAY 85 2H,850002,PT2H,,,
STUDY123,PC,STUDY123-2002,,348,ARTICLE123-DAY85-STUDY123-2002,,,ARCLE123,ARTICLE123,ANALYTE,,3.63,ug/mL,3.63,3.63,ug/mL,,,,PLASMA,,LC/MS-MS,,,,5,,,85,,,85,,DAY 85 4H,850004,PT4H,,,
STUDY123,PC,STUDY123-2002,,349,ARTICLE123-DAY85-STUDY123-2002,,,ARCLE123,ARTICLE123,ANALYTE,,2.98,ug/mL,2.98,2.98,ug/mL,,,,PLASMA,,LC/MS-MS,,,,5,,,85,,,85,,DAY 85 8H,850008,PT8H,,,
STUDY123,PC,STUDY123-2002,,350,ARTICLE123-DAY85-STUDY123-2002,,,ARCLE123,ARTICLE123,ANALYTE,,3.10,ug/mL,3.10,3.10,ug/mL,,,,PLASMA,,LC/MS-MS,,,,5,,,85,,,86,,DAY 85 24H,850024,PT24H,,,
STUDY123,PC,STUDY123-2003,,351,ARTICLE123-DAY85-STUDY123-2003,,,ARCLE123,ARTICLE123,ANALYTE,,3.74,ug/mL,3.74,3.74,ug/mL,,,,PLASMA,,LC/MS-MS,,,,5,,,85,,,85,,DAY 85 1H,850001,PT1H,,,
STUDY123,PC,STUDY123-2003,,352,ARTICLE123-DAY85-STUDY123-2003,,,ARCLE123,ARTICLE123,ANALYTE,,3.93,ug/mL,3.93,3.93,ug/mL,,,,PLASMA,,LC/MS-MS,,,,5,,,85,,,85,,DAY 85 2H,850002,PT2H,,,
STUDY123,PC,STUDY123-2003,,353,ARTICLE123-DAY85-STUDY123-2003,,,ARCLE123,ARTICLE123,ANALYTE,,4.26,ug/mL,4.26,4.26,ug/mL,,,,PLASMA,,LC/MS-MS,,,,5,,,85,,,85,,DAY 85 4H,850004,PT4H,,,
STUDY123,PC,STUDY123-2003,,354,ARTICLE123-DAY85-STUDY123-2003,,,ARCLE123,ARTICLE123,ANALYTE,,3.75,ug/mL,3.75,3.75,ug/mL,,,,PLASMA,,LC/MS-MS,,,,5,,,85,,,85,,DAY 85 8H,850008,PT8H,,,
STUDY123,PC,STUDY123-2003,,355,ARTICLE123-DAY85-STUDY123-2003,,,ARCLE123,ARTICLE123,ANALYTE,,3.91,ug/mL,3.91,3.91,ug/mL,,,,PLASMA,,LC/MS-MS,,,,5,,,85,,,86,,DAY 85 24H,850024,PT24H,,,
STUDY123,PC,STUDY123-2004,,356,ARTICLE123-DAY85-STUDY123-2004,,,ARCLE123,ARTICLE123,ANALYTE,,2.97,ug/mL,2.97,2.97,ug/mL,,,,PLASMA,,LC/MS-MS,,,,5,,,85,,,85,,DAY 85 1H,850001,PT1H,,,
STUDY123,PC,STUDY123-2004,,357,ARTICLE123-DAY85-STUDY123-2004,,,ARCLE123,ARTICLE123,ANALYTE,,3.44,ug/mL,3.44,3.44,ug/mL,,,,PLASMA,,LC/MS-MS,,,,5,,,85,,,85,,DAY 85 2H,850002,PT2H,,,
STUDY123,PC,STUDY123-2004,,358,ARTICLE123-DAY85-STUDY123-2004,,,ARCLE123,ARTICLE123,ANALYTE,,3.16,ug/mL,3.16,3.16,ug/mL,,,,PLASMA,,LC/MS-MS,,,,5,,,85,,,85,,DAY 85 4H,850004,PT4H,,,
STUDY123,PC,STUDY123-2004,,359,ARTICLE123-DAY85-STUDY123-2004,,,ARCLE123,ARTICLE123,ANALYTE,,2.47,ug/mL,2.47,2.47,ug/mL,,,,PLASMA,,LC/MS-MS,,,,5,,,85,,,85,,DAY 85 8H,850008,PT8H,,,
STUDY123,PC,STUDY123-2004,,360,ARTICLE123-DAY85-STUDY123-2004,,,ARCLE123,ARTICLE123,ANALYTE,,1.79,ug/mL,1.79,1.79,ug/mL,,,,PLASMA,,LC/MS-MS,,,,5,,,85,,,86,,DAY 85 24H,850024,PT24H,,,
STUDY123,PC,STUDY123-2501,,361,ARTICLE123-DAY85-STUDY123-2501,,,ARCLE123,ARTICLE123,ANALYTE,,2.01,ug/mL,2.01,2.01,ug/mL,,,,PLASMA,,LC/MS-MS,,,,5,,,85,,,85,,DAY 85 1H,850001,PT1H,,,
STUDY123,PC,STUDY123-2501,,362,ARTICLE123-DAY85-STUDY123-2501,,,ARCLE123,ARTICLE123,ANALYTE,,2.51,ug/mL,2.51,2.51,ug/mL,,,,PLASMA,,LC/MS-MS,,,,5,,,85,,,85,,DAY 85 2H,850002,PT2H,,,
STUDY123,PC,STUDY123-2501,,363,ARTICLE123-DAY85-STUDY123-2501,,,ARCLE123,ARTICLE123,ANALYTE,,2.26,ug/mL,2.26,2.26,ug/mL,,,,PLASMA,,LC/MS-MS,,,,5,,,85,,,85,,DAY 85 4H,850004,PT4H,,,
STUDY123,PC,STUDY123-2501,,364,ARTICLE123-DAY85-STUDY123-2501,,,ARCLE123,ARTICLE123,ANALYTE,,1.67,ug/mL,1.67,1.67,ug/mL,,,,PLASMA,,LC/MS-MS,,,,5,,,85,,,85,,DAY 85 8H,850008,PT8H,,,
STUDY123,PC,STUDY123-2501,,365,ARTICLE123-DAY85-STUDY123-2501,,,ARCLE123,ARTICLE123,ANALYTE,,1.42,ug/mL,1.42,1.42,ug/mL,,,,PLASMA,,LC/MS-MS,,,,5,,,85,,,86,,DAY 85 24H,850024,PT24H,,,
STUDY123,PC,STUDY123-2502,,366,ARTICLE123-DAY85-STUDY123-2502,,,ARCLE123,ARTICLE123,ANALYTE,,3.60,ug/mL,3.60,3.60,ug/mL,,,,PLASMA,,LC/MS-MS,,,,5,,,85,,,85,,DAY 85 1H,850001,PT1H,,,
STUDY123,PC,STUDY123-2502,,367,ARTICLE123-DAY85-STUDY123-2502,,,ARCLE123,ARTICLE123,ANALYTE,,4.44,ug/mL,4.44,4.44,ug/mL,,,,PLASMA,,LC/MS-MS,,,,5,,,85,,,85,,DAY 85 2H,850002,PT2H,,,
STUDY123,PC,STUDY123-2502,,368,ARTICLE123-DAY85-STUDY123-2502,,,ARCLE123,ARTICLE123,ANALYTE,,3.61,ug/mL,3.61,3.61,ug/mL,,,,PLASMA,,LC/MS-MS,,,,5,,,85,,,85,,DAY 85 4H,850004,PT4H,,,
STUDY123,PC,STUDY123-2502,,369,ARTICLE123-DAY85-STUDY123-2502,,,ARCLE123,ARTICLE123,ANALYTE,,3.63,ug/mL,3.63,3.63,ug/mL,,,,PLASMA,,LC/MS-MS,,,,5,,,85,,,85,,DAY 85 8H,850008,PT8H,,,
STUDY123,PC,STUDY123-2502,,370,ARTICLE123-DAY85-STUDY123-2502,,,ARCLE123,ARTICLE123,ANALYTE,,3.60,ug/mL,3.60,3.60,ug/mL,,,,PLASMA,,LC/MS-MS,,,,5,,,85,,,86,,DAY 85 24H,850024,PT24H,,,
STUDY123,PC,STUDY123-2503,,371,ARTICLE123-DAY85-STUDY123-2503,,,ARCLE123,ARTICLE123,ANALYTE,,3.01,ug/mL,3.01,3.01,ug/mL,,,,PLASMA,,LC/MS-MS,,,,5,,,85,,,85,,DAY 85 1H,850001,PT1H,,,
STUDY123,PC,STUDY123-2503,,372,ARTICLE123-DAY85-STUDY123-2503,,,ARCLE123,ARTICLE123,ANALYTE,,3.44,ug/mL,3.44,3.44,ug/mL,,,,PLASMA,,LC/MS-MS,,,,5,,,85,,,85,,DAY 85 2H,850002,PT2H,,,
STUDY123,PC,STUDY123-2503,,373,ARTICLE123-DAY85-STUDY123-2503,,,ARCLE123,ARTICLE123,ANALYTE,,3.18,ug/mL,3.18,3.18,ug/mL,,,,PLASMA,,LC/MS-MS,,,,5,,,85,,,85,,DAY 85 4H,850004,PT4H,,,
STUDY123,PC,STUDY123-2503,,374,ARTICLE123-DAY85-STUDY123-2503,,,ARCLE123,ARTICLE123,ANALYTE,,2.45,ug/mL,2.45,2.45,ug/mL,,,,PLASMA,,LC/MS-MS,,,,5,,,85,,,85,,DAY 85 8H,850008,PT8H,,,
STUDY123,PC,STUDY123-2503,,375,ARTICLE123-DAY85-STUDY123-2503,,,ARCLE123,ARTICLE123,ANALYTE,,2.03,ug/mL,2.03,2.03,ug/mL,,,,PLASMA,,LC/MS-MS,,,,5,,,85,,,86,,DAY 85 24H,850024,PT24H,,,
STUDY123,PC,STUDY123-2504,,376,ARTICLE123-DAY85-STUDY123-2504,,,ARCLE123,ARTICLE123,ANALYTE,,2.97,ug/mL,2.97,2.97,ug/mL,,,,PLASMA,,LC/MS-MS,,,,5,,,85,,,85,,DAY 85 1H,850001,PT1H,,,
STUDY123,PC,STUDY123-2504,,377,ARTICLE123-DAY85-STUDY123-2504,,,ARCLE123,ARTICLE123,ANALYTE,,3.45,ug/mL,3.45,3.45,ug/mL,,,,PLASMA,,LC/MS-MS,,,,5,,,85,,,85,,DAY 85 2H,850002,PT2H,,,
STUDY123,PC,STUDY123-2504,,378,ARTICLE123-DAY85-STUDY123-2504,,,ARCLE123,ARTICLE123,ANALYTE,,2.94,ug/mL,2.94,2.94,ug/mL,,,,PLASMA,,LC/MS-MS,,,,5,,,85,,,85,,DAY 85 4H,850004,PT4H,,,
STUDY123,PC,STUDY123-2504,,379,ARTICLE123-DAY85-STUDY123-2504,,,ARCLE123,ARTICLE123,ANALYTE,,2.25,ug/mL,2.25,2.25,ug/mL,,,,PLASMA,,LC/MS-MS,,,,5,,,85,,,85,,DAY 85 8H,850008,PT8H,,,
STUDY123,PC,STUDY123-2504,,380,ARTICLE123-DAY85-STUDY123-2504,,,ARCLE123,ARTICLE123,ANALYTE,,1.81,ug/mL,1.81,1.81,ug/mL,,,,PLASMA,,LC/MS-MS,,,,5,,,85,,,86,,DAY 85 24H,850024,PT24H,,,
STUDY123,PC,STUDY123-3001,,381,ARTICLE123-DAY85-STUDY123-3001,,,ARCLE123,ARTICLE123,ANALYTE,,6.43,ug/mL,6.43,6.43,ug/mL,,,,PLASMA,,LC/MS-MS,,,,5,,,85,,,85,,DAY 85 1H,850001,PT1H,,,
STUDY123,PC,STUDY123-3001,,382,ARTICLE123-DAY85-STUDY123-3001,,,ARCLE123,ARTICLE123,ANALYTE,,5.50,ug/mL,5.50,5.50,ug/mL,,,,PLASMA,,LC/MS-MS,,,,5,,,85,,,85,,DAY 85 2H,850002,PT2H,,,
STUDY123,PC,STUDY123-3001,,383,ARTICLE123-DAY85-STUDY123-3001,,,ARCLE123,ARTICLE123,ANALYTE,,7.40,ug/mL,7.40,7.40,ug/mL,,,,PLASMA,,LC/MS-MS,,,,5,,,85,,,85,,DAY 85 4H,850004,PT4H,,,
STUDY123,PC,STUDY123-3001,,384,ARTICLE123-DAY85-STUDY123-3001,,,ARCLE123,ARTICLE123,ANALYTE,,4.06,ug/mL,4.06,4.06,ug/mL,,,,PLASMA,,LC/MS-MS,,,,5,,,85,,,85,,DAY 85 8H,850008,PT8H,,,
STUDY123,PC,STUDY123-3001,,385,ARTICLE123-DAY85-STUDY123-3001,,,ARCLE123,ARTICLE123,ANALYTE,,7.35,ug/mL,7.35,7.35,ug/mL,,,,PLASMA,,LC/MS-MS,,,,5,,,85,,,86,,DAY 85 24H,850024,PT24H,,,
STUDY123,PC,STUDY123-3002,,386,ARTICLE123-DAY85-STUDY123-3002,,,ARCLE123,ARTICLE123,ANALYTE,,4.77,ug/mL,4.77,4.77,ug/mL,,,,PLASMA,,LC/MS-MS,,,,5,,,85,,,85,,DAY 85 1H,850001,PT1H,,,
STUDY123,PC,STUDY123-3002,,387,ARTICLE123-DAY85-STUDY123-3002,,,ARCLE123,ARTICLE123,ANALYTE,,7.33,ug/mL,7.33,7.33,ug/mL,,,,PLASMA,,LC/MS-MS,,,,5,,,85,,,85,,DAY 85 2H,850002,PT2H,,,
STUDY123,PC,STUDY123-3002,,388,ARTICLE123-DAY85-STUDY123-3002,,,ARCLE123,ARTICLE123,ANALYTE,,5.38,ug/mL,5.38,5.38,ug/mL,,,,PLASMA,,LC/MS-MS,,,,5,,,85,,,85,,DAY 85 4H,850004,PT4H,,,
STUDY123,PC,STUDY123-3002,,389,ARTICLE123-DAY85-STUDY123-3002,,,ARCLE123,ARTICLE123,ANALYTE,,3.34,ug/mL,3.34,3.34,ug/mL,,,,PLASMA,,LC/MS-MS,,,,5,,,85,,,85,,DAY 85 8H,850008,PT8H,,,
STUDY123,PC,STUDY123-3002,,390,ARTICLE123-DAY85-STUDY123-3002,,,ARCLE123,ARTICLE123,ANALYTE,,2.37,ug/mL,2.37,2.37,ug/mL,,,,PLASMA,,LC/MS-MS,,,,5,,,85,,,86,,DAY 85 24H,850024,PT24H,,,
STUDY123,PC,STUDY123-3003,,391,ARTICLE123-DAY85-STUDY123-3003,,,ARCLE123,ARTICLE123,ANALYTE,,3.61,ug/mL,3.61,3.61,ug/mL,,,,PLASMA,,LC/MS-MS,,,,5,,,85,,,85,,DAY 85 1H,850001,PT1H,,,
STUDY123,PC,STUDY123-3003,,392,ARTICLE123-DAY85-STUDY123-3003,,,ARCLE123,ARTICLE123,ANALYTE,,4.60,ug/mL,4.60,4.60,ug/mL,,,,PLASMA,,LC/MS-MS,,,,5,,,85,,,85,,DAY 85 2H,850002,PT2H,,,
STUDY123,PC,STUDY123-3003,,393,ARTICLE123-DAY85-STUDY123-3003,,,ARCLE123,ARTICLE123,ANALYTE,,4.26,ug/mL,4.26,4.26,ug/mL,,,,PLASMA,,LC/MS-MS,,,,5,,,85,,,85,,DAY 85 4H,850004,PT4H,,,
STUDY123,PC,STUDY123-3003,,394,ARTICLE123-DAY85-STUDY123-3003,,,ARCLE123,ARTICLE123,ANALYTE,,5.84,ug/mL,5.84,5.84,ug/mL,,,,PLASMA,,LC/MS-MS,,,,5,,,85,,,85,,DAY 85 8H,850008,PT8H,,,
STUDY123,PC,STUDY123-3003,,395,ARTICLE123-DAY85-STUDY123-3003,,,ARCLE123,ARTICLE123,ANALYTE,,2.43,ug/mL,2.43,2.43,ug/mL,,,,PLASMA,,LC/MS-MS,,,,5,,,85,,,86,,DAY 85 24H,850024,PT24H,,,
STUDY123,PC,STUDY123-3004,,396,ARTICLE123-DAY85-STUDY123-3004,,,ARCLE123,ARTICLE123,ANALYTE,,6.38,ug/mL,6.38,6.38,ug/mL,,,,PLASMA,,LC/MS-MS,,,,5,,,85,,,85,,DAY 85 1H,850001,PT1H,,,
STUDY123,PC,STUDY123-3004,,397,ARTICLE123-DAY85-STUDY123-3004,,,ARCLE123,ARTICLE123,ANALYTE,,7.65,ug/mL,7.65,7.65,ug/mL,,,,PLASMA,,LC/MS-MS,,,,5,,,85,,,85,,DAY 85 2H,850002,PT2H,,,
STUDY123,PC,STUDY123-3004,,398,ARTICLE123-DAY85-STUDY123-3004,,,ARCLE123,ARTICLE123,ANALYTE,,7.42,ug/mL,7.42,7.42,ug/mL,,,,PLASMA,,LC/MS-MS,,,,5,,,85,,,85,,DAY 85 4H,850004,PT4H,,,
STUDY123,PC,STUDY123-3004,,399,ARTICLE123-DAY85-STUDY123-3004,,,ARCLE123,ARTICLE123,ANALYTE,,7.08,ug/mL,7.08,7.08,ug/mL,,,,PLASMA,,LC/MS-MS,,,,5,,,85,,,85,,DAY 85 8H,850008,PT8H,,,
STUDY123,PC,STUDY123-3004,,400,ARTICLE123-DAY85-STUDY123-3004,,,ARCLE123,ARTICLE123,ANALYTE,,4.71,ug/mL,4.71,4.71,ug/mL,,,,PLASMA,,LC/MS-MS,,,,5,,,85,,,86,,DAY 85 24H,850024,PT24H,,,
STUDY123,PC,STUDY123-3005,,401,ARTICLE123-DAY85-STUDY123-3005,,,ARCLE123,ARTICLE123,ANALYTE,,6.13,ug/mL,6.13,6.13,ug/mL,,,,PLASMA,,LC/MS-MS,,,,5,,,85,,,85,,DAY 85 1H,850001,PT1H,,,
STUDY123,PC,STUDY123-3005,,402,ARTICLE123-DAY85-STUDY123-3005,,,ARCLE123,ARTICLE123,ANALYTE,,8.24,ug/mL,8.24,8.24,ug/mL,,,,PLASMA,,LC/MS-MS,,,,5,,,85,,,85,,DAY 85 2H,850002,PT2H,,,
STUDY123,PC,STUDY123-3005,,403,ARTICLE123-DAY85-STUDY123-3005,,,ARCLE123,ARTICLE123,ANALYTE,,8.11,ug/mL,8.11,8.11,ug/mL,,,,PLASMA,,LC/MS-MS,,,,5,,,85,,,85,,DAY 85 4H,850004,PT4H,,,
STUDY123,PC,STUDY123-3005,,404,ARTICLE123-DAY85-STUDY123-3005,,,ARCLE123,ARTICLE123,ANALYTE,,5.98,ug/mL,5.98,5.98,ug/mL,,,,PLASMA,,LC/MS-MS,,,,5,,,85,,,85,,DAY 85 8H,850008,PT8H,,,
STUDY123,PC,STUDY123-3005,,405,ARTICLE123-DAY85-STUDY123-3005,,,ARCLE123,ARTICLE123,ANALYTE,,5.67,ug/mL,5.67,5.67,ug/mL,,,,PLASMA,,LC/MS-MS,,,,5,,,85,,,86,,DAY 85 24H,850024,PT24H,,,
STUDY123,PC,STUDY123-3006,,406,ARTICLE123-DAY85-STUDY123-3006,,,ARCLE123,ARTICLE123,ANALYTE,,7.69,ug/mL,7.69,7.69,ug/mL,,,,PLASMA,,LC/MS-MS,,,,5,,,85,,,85,,DAY 85 1H,850001,PT1H,,,
STUDY123,PC,STUDY123-3006,,407,ARTICLE123-DAY85-STUDY123-3006,,,ARCLE123,ARTICLE123,ANALYTE,,9.02,ug/mL,9.02,9.02,ug/mL,,,,PLASMA,,LC/MS-MS,,,,5,,,85,,,85,,DAY 85 2H,850002,PT2H,,,
STUDY123,PC,STUDY123-3006,,408,ARTICLE123-DAY85-STUDY123-3006,,,ARCLE123,ARTICLE123,ANALYTE,,7.71,ug/mL,7.71,7.71,ug/mL,,,,PLASMA,,LC/MS-MS,,,,5,,,85,,,85,,DAY 85 4H,850004,PT4H,,,
STUDY123,PC,STUDY123-3006,,409,ARTICLE123-DAY85-STUDY123-3006,,,ARCLE123,ARTICLE123,ANALYTE,,5.95,ug/mL,5.95,5.95,ug/mL,,,,PLASMA,,LC/MS-MS,,,,5,,,85,,,85,,DAY 85 8H,850008,PT8H,,,
STUDY123,PC,STUDY123-3006,,410,ARTICLE123-DAY85-STUDY123-3006,,,ARCLE123,ARTICLE123,ANALYTE,,6.70,ug/mL,6.70,6.70,ug/mL,,,,PLASMA,,LC/MS-MS,,,,5,,,85,,,86,,DAY 85 24H,850024,PT24H,,,
STUDY123,PC,STUDY123-3501,,411,ARTICLE123-DAY85-STUDY123-3501,,,ARCLE123,ARTICLE123,ANALYTE,,9.54,ug/mL,9.54,9.54,ug/mL,,,,PLASMA,,LC/MS-MS,,,,5,,,85,,,85,,DAY 85 1H,850001,PT1H,,,
STUDY123,PC,STUDY123-3501,,412,ARTICLE123-DAY85-STUDY123-3501,,,ARCLE123,ARTICLE123,ANALYTE,,11.5,ug/mL,11.5,11.5,ug/mL,,,,PLASMA,,LC/MS-MS,,,,5,,,85,,,85,,DAY 85 2H,850002,PT2H,,,
STUDY123,PC,STUDY123-3501,,413,ARTICLE123-DAY85-STUDY123-3501,,,ARCLE123,ARTICLE123,ANALYTE,,11.7,ug/mL,11.7,11.7,ug/mL,,,,PLASMA,,LC/MS-MS,,,,5,,,85,,,85,,DAY 85 4H,850004,PT4H,,,
STUDY123,PC,STUDY123-3501,,414,ARTICLE123-DAY85-STUDY123-3501,,,ARCLE123,ARTICLE123,ANALYTE,,10.8,ug/mL,10.8,10.8,ug/mL,,,,PLASMA,,LC/MS-MS,,,,5,,,85,,,85,,DAY 85 8H,850008,PT8H,,,
STUDY123,PC,STUDY123-3501,,415,ARTICLE123-DAY85-STUDY123-3501,,,ARCLE123,ARTICLE123,ANALYTE,,8.03,ug/mL,8.03,8.03,ug/mL,,,,PLASMA,,LC/MS-MS,,,,5,,,85,,,86,,DAY 85 24H,850024,PT24H,,,
STUDY123,PC,STUDY123-3502,,416,ARTICLE123-DAY85-STUDY123-3502,,,ARCLE123,ARTICLE123,ANALYTE,,10.0,ug/mL,10.0,10.0,ug/mL,,,,PLASMA,,LC/MS-MS,,,,5,,,85,,,85,,DAY 85 1H,850001,PT1H,,,
STUDY123,PC,STUDY123-3502,,417,ARTICLE123-DAY85-STUDY123-3502,,,ARCLE123,ARTICLE123,ANALYTE,,12.8,ug/mL,12.8,12.8,ug/mL,,,,PLASMA,,LC/MS-MS,,,,5,,,85,,,85,,DAY 85 2H,850002,PT2H,,,
STUDY123,PC,STUDY123-3502,,418,ARTICLE123-DAY85-STUDY123-3502,,,ARCLE123,ARTICLE123,ANALYTE,,12.1,ug/mL,12.1,12.1,ug/mL,,,,PLASMA,,LC/MS-MS,,,,5,,,85,,,85,,DAY 85 4H,850004,PT4H,,,
STUDY123,PC,STUDY123-3502,,419,ARTICLE123-DAY85-STUDY123-3502,,,ARCLE123,ARTICLE123,ANALYTE,,9.58,ug/mL,9.58,9.58,ug/mL,,,,PLASMA,,LC/MS-MS,,,,5,,,85,,,85,,DAY 85 8H,850008,PT8H,,,
STUDY123,PC,STUDY123-3502,,420,ARTICLE123-DAY85-STUDY123-3502,,,ARCLE123,ARTICLE123,ANALYTE,,9.83,ug/mL,9.83,9.83,ug/mL,,,,PLASMA,,LC/MS-MS,,,,5,,,85,,,86,,DAY 85 24H,850024,PT24H,,,
STUDY123,PC,STUDY123-3503,,421,ARTICLE123-DAY85-STUDY123-3503,,,ARCLE123,ARTICLE123,ANALYTE,,3.65,ug/mL,3.65,3.65,ug/mL,,,,PLASMA,,LC/MS-MS,,,,5,,,85,,,85,,DAY 85 1H,850001,PT1H,,,
STUDY123,PC,STUDY123-3503,,422,ARTICLE123-DAY85-STUDY123-3503,,,ARCLE123,ARTICLE123,ANALYTE,,4.84,ug/mL,4.84,4.84,ug/mL,,,,PLASMA,,LC/MS-MS,,,,5,,,85,,,85,,DAY 85 2H,850002,PT2H,,,
STUDY123,PC,STUDY123-3503,,423,ARTICLE123-DAY85-STUDY123-3503,,,ARCLE123,ARTICLE123,ANALYTE,,4.24,ug/mL,4.24,4.24,ug/mL,,,,PLASMA,,LC/MS-MS,,,,5,,,85,,,85,,DAY 85 4H,850004,PT4H,,,
STUDY123,PC,STUDY123-3503,,424,ARTICLE123-DAY85-STUDY123-3503,,,ARCLE123,ARTICLE123,ANALYTE,,3.16,ug/mL,3.16,3.16,ug/mL,,,,PLASMA,,LC/MS-MS,,,,5,,,85,,,85,,DAY 85 8H,850008,PT8H,,,
STUDY123,PC,STUDY123-3503,,425,ARTICLE123-DAY85-STUDY123-3503,,,ARCLE123,ARTICLE123,ANALYTE,,1.91,ug/mL,1.91,1.91,ug/mL,,,,PLASMA,,LC/MS-MS,,,,5,,,85,,,86,,DAY 85 24H,850024,PT24H,,,
STUDY123,PC,STUDY123-3504,,426,ARTICLE123-DAY85-STUDY123-3504,,,ARCLE123,ARTICLE123,ANALYTE,,5.96,ug/mL,5.96,5.96,ug/mL,,,,PLASMA,,LC/MS-MS,,,,5,,,85,,,85,,DAY 85 1H,850001,PT1H,,,
STUDY123,PC,STUDY123-3504,,427,ARTICLE123-DAY85-STUDY123-3504,,,ARCLE123,ARTICLE123,ANALYTE,,5.84,ug/mL,5.84,5.84,ug/mL,,,,PLASMA,,LC/MS-MS,,,,5,,,85,,,85,,DAY 85 2H,850002,PT2H,,,
STUDY123,PC,STUDY123-3504,,428,ARTICLE123-DAY85-STUDY123-3504,,,ARCLE123,ARTICLE123,ANALYTE,,5.77,ug/mL,5.77,5.77,ug/mL,,,,PLASMA,,LC/MS-MS,,,,5,,,85,,,85,,DAY 85 4H,850004,PT4H,,,
STUDY123,PC,STUDY123-3504,,429,ARTICLE123-DAY85-STUDY123-3504,,,ARCLE123,ARTICLE123,ANALYTE,,5.41,ug/mL,5.41,5.41,ug/mL,,,,PLASMA,,LC/MS-MS,,,,5,,,85,,,85,,DAY 85 8H,850008,PT8H,,,
STUDY123,PC,STUDY123-3504,,430,ARTICLE123-DAY85-STUDY123-3504,,,ARCLE123,ARTICLE123,ANALYTE,,4.68,ug/mL,4.68,4.68,ug/mL,,,,PLASMA,,LC/MS-MS,,,,5,,,85,,,86,,DAY 85 24H,850024,PT24H,,,
STUDY123,PC,STUDY123-3505,,431,ARTICLE123-DAY85-STUDY123-3505,,,ARCLE123,ARTICLE123,ANALYTE,,8.35,ug/mL,8.35,8.35,ug/mL,,,,PLASMA,,LC/MS-MS,,,,5,,,85,,,85,,DAY 85 1H,850001,PT1H,,,
STUDY123,PC,STUDY123-3505,,432,ARTICLE123-DAY85-STUDY123-3505,,,ARCLE123,ARTICLE123,ANALYTE,,7.71,ug/mL,7.71,7.71,ug/mL,,,,PLASMA,,LC/MS-MS,,,,5,,,85,,,85,,DAY 85 2H,850002,PT2H,,,
STUDY123,PC,STUDY123-3505,,433,ARTICLE123-DAY85-STUDY123-3505,,,ARCLE123,ARTICLE123,ANALYTE,,7.23,ug/mL,7.23,7.23,ug/mL,,,,PLASMA,,LC/MS-MS,,,,5,,,85,,,85,,DAY 85 4H,850004,PT4H,,,
STUDY123,PC,STUDY123-3505,,434,ARTICLE123-DAY85-STUDY123-3505,,,ARCLE123,ARTICLE123,ANALYTE,,6.68,ug/mL,6.68,6.68,ug/mL,,,,PLASMA,,LC/MS-MS,,,,5,,,85,,,85,,DAY 85 8H,850008,PT8H,,,
STUDY123,PC,STUDY123-3505,,435,ARTICLE123-DAY85-STUDY123-3505,,,ARCLE123,ARTICLE123,ANALYTE,,5.60,ug/mL,5.60,5.60,ug/mL,,,,PLASMA,,LC/MS-MS,,,,5,,,85,,,86,,DAY 85 24H,850024,PT24H,,,
STUDY123,PC,STUDY123-3506,,436,ARTICLE123-DAY85-STUDY123-3506,,,ARCLE123,ARTICLE123,ANALYTE,,3.54,ug/mL,3.54,3.54,ug/mL,,,,PLASMA,,LC/MS-MS,,,,5,,,85,,,85,,DAY 85 1H,850001,PT1H,,,
STUDY123,PC,STUDY123-3506,,437,ARTICLE123-DAY85-STUDY123-3506,,,ARCLE123,ARTICLE123,ANALYTE,,3.72,ug/mL,3.72,3.72,ug/mL,,,,PLASMA,,LC/MS-MS,,,,5,,,85,,,85,,DAY 85 2H,850002,PT2H,,,
STUDY123,PC,STUDY123-3506,,438,ARTICLE123-DAY85-STUDY123-3506,,,ARCLE123,ARTICLE123,ANALYTE,,3.62,ug/mL,3.62,3.62,ug/mL,,,,PLASMA,,LC/MS-MS,,,,5,,,85,,,85,,DAY 85 4H,850004,PT4H,,,
STUDY123,PC,STUDY123-3506,,439,ARTICLE123-DAY85-STUDY123-3506,,,ARCLE123,ARTICLE123,ANALYTE,,4.74,ug/mL,4.74,4.74,ug/mL,,,,PLASMA,,LC/MS-MS,,,,5,,,85,,,85,,DAY 85 8H,850008,PT8H,,,
STUDY123,PC,STUDY123-3506,,440,ARTICLE123-DAY85-STUDY123-3506,,,ARCLE123,ARTICLE123,ANALYTE,,5.72,ug/mL,5.72,5.72,ug/mL,,,,PLASMA,,LC/MS-MS,,,,5,,,85,,,86,,DAY 85 24H,850024,PT24H,,,
STUDY123,PC,STUDY123-4001,,441,ARTICLE123-DAY85-STUDY123-4001,,,ARCLE123,ARTICLE123,ANALYTE,,19.1,ug/mL,19.1,19.1,ug/mL,,,,PLASMA,,LC/MS-MS,,,,5,,,85,,,85,,DAY 85 1H,850001,PT1H,,,
STUDY123,PC,STUDY123-4001,,442,ARTICLE123-DAY85-STUDY123-4001,,,ARCLE123,ARTICLE123,ANALYTE,,21.6,ug/mL,21.6,21.6,ug/mL,,,,PLASMA,,LC/MS-MS,,,,5,,,85,,,85,,DAY 85 2H,850002,PT2H,,,
STUDY123,PC,STUDY123-4001,,443,ARTICLE123-DAY85-STUDY123-4001,,,ARCLE123,ARTICLE123,ANALYTE,,19.9,ug/mL,19.9,19.9,ug/mL,,,,PLASMA,,LC/MS-MS,,,,5,,,85,,,85,,DAY 85 4H,850004,PT4H,,,
STUDY123,PC,STUDY123-4001,,444,ARTICLE123-DAY85-STUDY123-4001,,,ARCLE123,ARTICLE123,ANALYTE,,18.7,ug/mL,18.7,18.7,ug/mL,,,,PLASMA,,LC/MS-MS,,,,5,,,85,,,85,,DAY 85 8H,850008,PT8H,,,
STUDY123,PC,STUDY123-4001,,445,ARTICLE123-DAY85-STUDY123-4001,,,ARCLE123,ARTICLE123,ANALYTE,,17.0,ug/mL,17.0,17.0,ug/mL,,,,PLASMA,,LC/MS-MS,,,,5,,,85,,,86,,DAY 85 24H,850024,PT24H,,,
STUDY123,PC,STUDY123-4002,,446,ARTICLE123-DAY85-STUDY123-4002,,,ARCLE123,ARTICLE123,ANALYTE,,17.3,ug/mL,17.3,17.3,ug/mL,,,,PLASMA,,LC/MS-MS,,,,5,,,85,,,85,,DAY 85 1H,850001,PT1H,,,
STUDY123,PC,STUDY123-4002,,447,ARTICLE123-DAY85-STUDY123-4002,,,ARCLE123,ARTICLE123,ANALYTE,,21.4,ug/mL,21.4,21.4,ug/mL,,,,PLASMA,,LC/MS-MS,,,,5,,,85,,,85,,DAY 85 2H,850002,PT2H,,,
STUDY123,PC,STUDY123-4002,,448,ARTICLE123-DAY85-STUDY123-4002,,,ARCLE123,ARTICLE123,ANALYTE,,30.0,ug/mL,30.0,30.0,ug/mL,,,,PLASMA,,LC/MS-MS,,,,5,,,85,,,85,,DAY 85 4H,850004,PT4H,,,
STUDY123,PC,STUDY123-4002,,449,ARTICLE123-DAY85-STUDY123-4002,,,ARCLE123,ARTICLE123,ANALYTE,,27.2,ug/mL,27.2,27.2,ug/mL,,,,PLASMA,,LC/MS-MS,,,,5,,,85,,,85,,DAY 85 8H,850008,PT8H,,,
STUDY123,PC,STUDY123-4002,,450,ARTICLE123-DAY85-STUDY123-4002,,,ARCLE123,ARTICLE123,ANALYTE,,19.8,ug/mL,19.8,19.8,ug/mL,,,,PLASMA,,LC/MS-MS,,,,5,,,85,,,86,,DAY 85 24H,850024,PT24H,,,
STUDY123,PC,STUDY123-4004,,451,ARTICLE123-DAY85-STUDY123-4004,,,ARCLE123,ARTICLE123,ANALYTE,,11.6,ug/mL,11.6,11.6,ug/mL,,,,PLASMA,,LC/MS-MS,,,,5,,,85,,,85,,DAY 85 1H,850001,PT1H,,,
STUDY123,PC,STUDY123-4004,,452,ARTICLE123-DAY85-STUDY123-4004,,,ARCLE123,ARTICLE123,ANALYTE,,12.5,ug/mL,12.5,12.5,ug/mL,,,,PLASMA,,LC/MS-MS,,,,5,,,85,,,85,,DAY 85 2H,850002,PT2H,,,
STUDY123,PC,STUDY123-4004,,453,ARTICLE123-DAY85-STUDY123-4004,,,ARCLE123,ARTICLE123,ANALYTE,,12.0,ug/mL,12.0,12.0,ug/mL,,,,PLASMA,,LC/MS-MS,,,,5,,,85,,,85,,DAY 85 4H,850004,PT4H,,,
STUDY123,PC,STUDY123-4004,,454,ARTICLE123-DAY85-STUDY123-4004,,,ARCLE123,ARTICLE123,ANALYTE,,10.4,ug/mL,10.4,10.4,ug/mL,,,,PLASMA,,LC/MS-MS,,,,5,,,85,,,85,,DAY 85 8H,850008,PT8H,,,
STUDY123,PC,STUDY123-4004,,455,ARTICLE123-DAY85-STUDY123-4004,,,ARCLE123,ARTICLE123,ANALYTE,,7.94,ug/mL,7.94,7.94,ug/mL,,,,PLASMA,,LC/MS-MS,,,,5,,,85,,,86,,DAY 85 24H,850024,PT24H,,,
STUDY123,PC,STUDY123-4005,,456,ARTICLE123-DAY85-STUDY123-4005,,,ARCLE123,ARTICLE123,ANALYTE,,13.7,ug/mL,13.7,13.7,ug/mL,,,,PLASMA,,LC/MS-MS,,,,5,,,85,,,85,,DAY 85 1H,850001,PT1H,,,
STUDY123,PC,STUDY123-4005,,457,ARTICLE123-DAY85-STUDY123-4005,,,ARCLE123,ARTICLE123,ANALYTE,,15.8,ug/mL,15.8,15.8,ug/mL,,,,PLASMA,,LC/MS-MS,,,,5,,,85,,,85,,DAY 85 2H,850002,PT2H,,,
STUDY123,PC,STUDY123-4005,,458,ARTICLE123-DAY85-STUDY123-4005,,,ARCLE123,ARTICLE123,ANALYTE,,17.8,ug/mL,17.8,17.8,ug/mL,,,,PLASMA,,LC/MS-MS,,,,5,,,85,,,85,,DAY 85 4H,850004,PT4H,,,
STUDY123,PC,STUDY123-4005,,459,ARTICLE123-DAY85-STUDY123-4005,,,ARCLE123,ARTICLE123,ANALYTE,,15.2,ug/mL,15.2,15.2,ug/mL,,,,PLASMA,,LC/MS-MS,,,,5,,,85,,,85,,DAY 85 8H,850008,PT8H,,,
STUDY123,PC,STUDY123-4005,,460,ARTICLE123-DAY85-STUDY123-4005,,,ARCLE123,ARTICLE123,ANALYTE,,11.6,ug/mL,11.6,11.6,ug/mL,,,,PLASMA,,LC/MS-MS,,,,5,,,85,,,86,,DAY 85 24H,850024,PT24H,,,
STUDY123,PC,STUDY123-4006,,461,ARTICLE123-DAY85-STUDY123-4006,,,ARCLE123,ARTICLE123,ANALYTE,,14.6,ug/mL,14.6,14.6,ug/mL,,,,PLASMA,,LC/MS-MS,,,,5,,,85,,,85,,DAY 85 1H,850001,PT1H,,,
STUDY123,PC,STUDY123-4006,,462,ARTICLE123-DAY85-STUDY123-4006,,,ARCLE123,ARTICLE123,ANALYTE,,16.3,ug/mL,16.3,16.3,ug/mL,,,,PLASMA,,LC/MS-MS,,,,5,,,85,,,85,,DAY 85 2H,850002,PT2H,,,
STUDY123,PC,STUDY123-4006,,463,ARTICLE123-DAY85-STUDY123-4006,,,ARCLE123,ARTICLE123,ANALYTE,,20.5,ug/mL,20.5,20.5,ug/mL,,,,PLASMA,,LC/MS-MS,,,,5,,,85,,,85,,DAY 85 4H,850004,PT4H,,,
STUDY123,PC,STUDY123-4006,,464,ARTICLE123-DAY85-STUDY123-4006,,,ARCLE123,ARTICLE123,ANALYTE,,19.2,ug/mL,19.2,19.2,ug/mL,,,,PLASMA,,LC/MS-MS,,,,5,,,85,,,85,,DAY 85 8H,850008,PT8H,,,
STUDY123,PC,STUDY123-4006,,465,ARTICLE123-DAY85-STUDY123-4006,,,ARCLE123,ARTICLE123,ANALYTE,,12.0,ug/mL,12.0,12.0,ug/mL,,,,PLASMA,,LC/MS-MS,,,,5,,,85,,,86,,DAY 85 24H,850024,PT24H,,,
STUDY123,PC,STUDY123-4103,,466,ARTICLE123-DAY85-STUDY123-4103,,,ARCLE123,ARTICLE123,ANALYTE,,14.0,ug/mL,14.0,14.0,ug/mL,,,,PLASMA,,LC/MS-MS,,,,5,,,85,,,85,,DAY 85 1H,850001,PT1H,,,
STUDY123,PC,STUDY123-4103,,467,ARTICLE123-DAY85-STUDY123-4103,,,ARCLE123,ARTICLE123,ANALYTE,,16.6,ug/mL,16.6,16.6,ug/mL,,,,PLASMA,,LC/MS-MS,,,,5,,,85,,,85,,DAY 85 2H,850002,PT2H,,,
STUDY123,PC,STUDY123-4103,,468,ARTICLE123-DAY85-STUDY123-4103,,,ARCLE123,ARTICLE123,ANALYTE,,17.8,ug/mL,17.8,17.8,ug/mL,,,,PLASMA,,LC/MS-MS,,,,5,,,85,,,85,,DAY 85 4H,850004,PT4H,,,
STUDY123,PC,STUDY123-4103,,469,ARTICLE123-DAY85-STUDY123-4103,,,ARCLE123,ARTICLE123,ANALYTE,,15.5,ug/mL,15.5,15.5,ug/mL,,,,PLASMA,,LC/MS-MS,,,,5,,,85,,,85,,DAY 85 8H,850008,PT8H,,,
STUDY123,PC,STUDY123-4103,,470,ARTICLE123-DAY85-STUDY123-4103,,,ARCLE123,ARTICLE123,ANALYTE,,12.1,ug/mL,12.1,12.1,ug/mL,,,,PLASMA,,LC/MS-MS,,,,5,,,85,,,86,,DAY 85 24H,850024,PT24H,,,
STUDY123,PC,STUDY123-4501,,471,ARTICLE123-DAY85-STUDY123-4501,,,ARCLE123,ARTICLE123,ANALYTE,,12.5,ug/mL,12.5,12.5,ug/mL,,,,PLASMA,,LC/MS-MS,,,,5,,,85,,,85,,DAY 85 1H,850001,PT1H,,,
STUDY123,PC,STUDY123-4501,,472,ARTICLE123-DAY85-STUDY123-4501,,,ARCLE123,ARTICLE123,ANALYTE,,15.9,ug/mL,15.9,15.9,ug/mL,,,,PLASMA,,LC/MS-MS,,,,5,,,85,,,85,,DAY 85 2H,850002,PT2H,,,
STUDY123,PC,STUDY123-4501,,473,ARTICLE123-DAY85-STUDY123-4501,,,ARCLE123,ARTICLE123,ANALYTE,,20.8,ug/mL,20.8,20.8,ug/mL,,,,PLASMA,,LC/MS-MS,,,,5,,,85,,,85,,DAY 85 4H,850004,PT4H,,,
STUDY123,PC,STUDY123-4501,,474,ARTICLE123-DAY85-STUDY123-4501,,,ARCLE123,ARTICLE123,ANALYTE,,19.2,ug/mL,19.2,19.2,ug/mL,,,,PLASMA,,LC/MS-MS,,,,5,,,85,,,85,,DAY 85 8H,850008,PT8H,,,
STUDY123,PC,STUDY123-4501,,475,ARTICLE123-DAY85-STUDY123-4501,,,ARCLE123,ARTICLE123,ANALYTE,,14.0,ug/mL,14.0,14.0,ug/mL,,,,PLASMA,,LC/MS-MS,,,,5,,,85,,,86,,DAY 85 24H,850024,PT24H,,,
STUDY123,PC,STUDY123-4502,,476,ARTICLE123-DAY85-STUDY123-4502,,,ARCLE123,ARTICLE123,ANALYTE,,11.1,ug/mL,11.1,11.1,ug/mL,,,,PLASMA,,LC/MS-MS,,,,5,,,85,,,85,,DAY 85 1H,850001,PT1H,,,
STUDY123,PC,STUDY123-4502,,477,ARTICLE123-DAY85-STUDY123-4502,,,ARCLE123,ARTICLE123,ANALYTE,,13.1,ug/mL,13.1,13.1,ug/mL,,,,PLASMA,,LC/MS-MS,,,,5,,,85,,,85,,DAY 85 2H,850002,PT2H,,,
STUDY123,PC,STUDY123-4502,,478,ARTICLE123-DAY85-STUDY123-4502,,,ARCLE123,ARTICLE123,ANALYTE,,17.3,ug/mL,17.3,17.3,ug/mL,,,,PLASMA,,LC/MS-MS,,,,5,,,85,,,85,,DAY 85 4H,850004,PT4H,,,
STUDY123,PC,STUDY123-4502,,479,ARTICLE123-DAY85-STUDY123-4502,,,ARCLE123,ARTICLE123,ANALYTE,,15.0,ug/mL,15.0,15.0,ug/mL,,,,PLASMA,,LC/MS-MS,,,,5,,,85,,,85,,DAY 85 8H,850008,PT8H,,,
STUDY123,PC,STUDY123-4502,,480,ARTICLE123-DAY85-STUDY123-4502,,,ARCLE123,ARTICLE123,ANALYTE,,12.0,ug/mL,12.0,12.0,ug/mL,,,,PLASMA,,LC/MS-MS,,,,5,,,85,,,86,,DAY 85 24H,850024,PT24H,,,
STUDY123,PC,STUDY123-4503,,481,ARTICLE123-DAY85-STUDY123-4503,,,ARCLE123,ARTICLE123,ANALYTE,,18.2,ug/mL,18.2,18.2,ug/mL,,,,PLASMA,,LC/MS-MS,,,,5,,,85,,,85,,DAY 85 1H,850001,PT1H,,,
STUDY123,PC,STUDY123-4503,,482,ARTICLE123-DAY85-STUDY123-4503,,,ARCLE123,ARTICLE123,ANALYTE,,19.6,ug/mL,19.6,19.6,ug/mL,,,,PLASMA,,LC/MS-MS,,,,5,,,85,,,85,,DAY 85 2H,850002,PT2H,,,
STUDY123,PC,STUDY123-4503,,483,ARTICLE123-DAY85-STUDY123-4503,,,ARCLE123,ARTICLE123,ANALYTE,,23.3,ug/mL,23.3,23.3,ug/mL,,,,PLASMA,,LC/MS-MS,,,,5,,,85,,,85,,DAY 85 4H,850004,PT4H,,,
STUDY123,PC,STUDY123-4503,,484,ARTICLE123-DAY85-STUDY123-4503,,,ARCLE123,ARTICLE123,ANALYTE,,20.5,ug/mL,20.5,20.5,ug/mL,,,,PLASMA,,LC/MS-MS,,,,5,,,85,,,85,,DAY 85 8H,850008,PT8H,,,
STUDY123,PC,STUDY123-4503,,485,ARTICLE123-DAY85-STUDY123-4503,,,ARCLE123,ARTICLE123,ANALYTE,,15.9,ug/mL,15.9,15.9,ug/mL,,,,PLASMA,,LC/MS-MS,,,,5,,,85,,,86,,DAY 85 24H,850024,PT24H,,,
STUDY123,PC,STUDY123-4504,,486,ARTICLE123-DAY85-STUDY123-4504,,,ARCLE123,ARTICLE123,ANALYTE,,17.3,ug/mL,17.3,17.3,ug/mL,,,,PLASMA,,LC/MS-MS,,,,5,,,85,,,85,,DAY 85 1H,850001,PT1H,,,
STUDY123,PC,STUDY123-4504,,487,ARTICLE123-DAY85-STUDY123-4504,,,ARCLE123,ARTICLE123,ANALYTE,,20.7,ug/mL,20.7,20.7,ug/mL,,,,PLASMA,,LC/MS-MS,,,,5,,,85,,,85,,DAY 85 2H,850002,PT2H,,,
STUDY123,PC,STUDY123-4504,,488,ARTICLE123-DAY85-STUDY123-4504,,,ARCLE123,ARTICLE123,ANALYTE,,21.5,ug/mL,21.5,21.5,ug/mL,,,,PLASMA,,LC/MS-MS,,,,5,,,85,,,85,,DAY 85 4H,850004,PT4H,,,
STUDY123,PC,STUDY123-4504,,489,ARTICLE123-DAY85-STUDY123-4504,,,ARCLE123,ARTICLE123,ANALYTE,,22.4,ug/mL,22.4,22.4,ug/mL,,,,PLASMA,,LC/MS-MS,,,,5,,,85,,,85,,DAY 85 8H,850008,PT8H,,,
STUDY123,PC,STUDY123-4504,,490,ARTICLE123-DAY85-STUDY123-4504,,,ARCLE123,ARTICLE123,ANALYTE,,17.8,ug/mL,17.8,17.8,ug/mL,,,,PLASMA,,LC/MS-MS,,,,5,,,85,,,86,,DAY 85 24H,850024,PT24H,,,
STUDY123,PC,STUDY123-4506,,491,ARTICLE123-DAY85-STUDY123-4506,,,ARCLE123,ARTICLE123,ANALYTE,,16.1,ug/mL,16.1,16.1,ug/mL,,,,PLASMA,,LC/MS-MS,,,,5,,,85,,,85,,DAY 85 1H,850001,PT1H,,,
STUDY123,PC,STUDY123-4506,,492,ARTICLE123-DAY85-STUDY123-4506,,,ARCLE123,ARTICLE123,ANALYTE,,16.8,ug/mL,16.8,16.8,ug/mL,,,,PLASMA,,LC/MS-MS,,,,5,,,85,,,85,,DAY 85 2H,850002,PT2H,,,
STUDY123,PC,STUDY123-4506,,493,ARTICLE123-DAY85-STUDY123-4506,,,ARCLE123,ARTICLE123,ANALYTE,,15.6,ug/mL,15.6,15.6,ug/mL,,,,PLASMA,,LC/MS-MS,,,,5,,,85,,,85,,DAY 85 4H,850004,PT4H,,,
STUDY123,PC,STUDY123-4506,,494,ARTICLE123-DAY85-STUDY123-4506,,,ARCLE123,ARTICLE123,ANALYTE,,13.0,ug/mL,13.0,13.0,ug/mL,,,,PLASMA,,LC/MS-MS,,,,5,,,85,,,85,,DAY 85 8H,850008,PT8H,,,
STUDY123,PC,STUDY123-4506,,495,ARTICLE123-DAY85-STUDY123-4506,,,ARCLE123,ARTICLE123,ANALYTE,,10.3,ug/mL,10.3,10.3,ug/mL,,,,PLASMA,,LC/MS-MS,,,,5,,,85,,,86,,DAY 85 24H,850024,PT24H,,,
STUDY123,PC,STUDY123-4605,,496,ARTICLE123-DAY85-STUDY123-4605,,,ARCLE123,ARTICLE123,ANALYTE,,19.0,ug/mL,19.0,19.0,ug/mL,,,,PLASMA,,LC/MS-MS,,,,5,,,85,,,85,,DAY 85 1H,850001,PT1H,,,
STUDY123,PC,STUDY123-4605,,497,ARTICLE123-DAY85-STUDY123-4605,,,ARCLE123,ARTICLE123,ANALYTE,,19.5,ug/mL,19.5,19.5,ug/mL,,,,PLASMA,,LC/MS-MS,,,,5,,,85,,,85,,DAY 85 2H,850002,PT2H,,,
STUDY123,PC,STUDY123-4605,,498,ARTICLE123-DAY85-STUDY123-4605,,,ARCLE123,ARTICLE123,ANALYTE,,19.2,ug/mL,19.2,19.2,ug/mL,,,,PLASMA,,LC/MS-MS,,,,5,,,85,,,85,,DAY 85 4H,850004,PT4H,,,
STUDY123,PC,STUDY123-4605,,499,ARTICLE123-DAY85-STUDY123-4605,,,ARCLE123,ARTICLE123,ANALYTE,,16.0,ug/mL,16.0,16.0,ug/mL,,,,PLASMA,,LC/MS-MS,,,,5,,,85,,,85,,DAY 85 8H,850008,PT8H,,,
STUDY123,PC,STUDY123-4605,,500,ARTICLE123-DAY85-STUDY123-4605,,,ARCLE123,ARTICLE123,ANALYTE,,12.6,ug/mL,12.6,12.6,ug/mL,,,,PLASMA,,LC/MS-MS,,,,5,,,85,,,86,,DAY 85 24H,850024,PT24H,,,
STUDY123,PC,STUDY123-2001,,501,ARTICLE123-DAY85-STUDY123-2001,,,ARCLE123,ARTICLE123,ANALYTE,,2.16,ug/mL,2.16,2.16,ug/mL,,,,PLASMA,,LC/MS-MS,,,,5,,,85,,,85,,DAY 85 1H,850001,PT1H,,,
STUDY123,PC,STUDY123-2001,,502,ARTICLE123-DAY85-STUDY123-2001,,,ARCLE123,ARTICLE123,ANALYTE,,2.59,ug/mL,2.59,2.59,ug/mL,,,,PLASMA,,LC/MS-MS,,,,5,,,85,,,85,,DAY 85 2H,850002,PT2H,,,
STUDY123,PC,STUDY123-2001,,503,ARTICLE123-DAY85-STUDY123-2001,,,ARCLE123,ARTICLE123,ANALYTE,,2.35,ug/mL,2.35,2.35,ug/mL,,,,PLASMA,,LC/MS-MS,,,,5,,,85,,,85,,DAY 85 4H,850004,PT4H,,,
STUDY123,PC,STUDY123-2001,,504,ARTICLE123-DAY85-STUDY123-2001,,,ARCLE123,ARTICLE123,ANALYTE,,1.87,ug/mL,1.87,1.87,ug/mL,,,,PLASMA,,LC/MS-MS,,,,5,,,85,,,85,,DAY 85 8H,850008,PT8H,,,
STUDY123,PC,STUDY123-2001,,505,ARTICLE123-DAY85-STUDY123-2001,,,ARCLE123,ARTICLE123,ANALYTE,,1.24,ug/mL,1.24,1.24,ug/mL,,,,PLASMA,,LC/MS-MS,,,,5,,,85,,,86,,DAY 85 24H,850024,PT24H,,,
STUDY123,PC,STUDY123-2002,,506,ARTICLE123-DAY85-STUDY123-2002,,,ARCLE123,ARTICLE123,ANALYTE,,2.87,ug/mL,2.87,2.87,ug/mL,,,,PLASMA,,LC/MS-MS,,,,5,,,85,,,85,,DAY 85 1H,850001,PT1H,,,
STUDY123,PC,STUDY123-2002,,507,ARTICLE123-DAY85-STUDY123-2002,,,ARCLE123,ARTICLE123,ANALYTE,,2.86,ug/mL,2.86,2.86,ug/mL,,,,PLASMA,,LC/MS-MS,,,,5,,,85,,,85,,DAY 85 2H,850002,PT2H,,,
STUDY123,PC,STUDY123-2002,,508,ARTICLE123-DAY85-STUDY123-2002,,,ARCLE123,ARTICLE123,ANALYTE,,2.60,ug/mL,2.60,2.60,ug/mL,,,,PLASMA,,LC/MS-MS,,,,5,,,85,,,85,,DAY 85 4H,850004,PT4H,,,
STUDY123,PC,STUDY123-2002,,509,ARTICLE123-DAY85-STUDY123-2002,,,ARCLE123,ARTICLE123,ANALYTE,,2.05,ug/mL,2.05,2.05,ug/mL,,,,PLASMA,,LC/MS-MS,,,,5,,,85,,,85,,DAY 85 8H,850008,PT8H,,,
STUDY123,PC,STUDY123-2002,,510,ARTICLE123-DAY85-STUDY123-2002,,,ARCLE123,ARTICLE123,ANALYTE,,1.98,ug/mL,1.98,1.98,ug/mL,,,,PLASMA,,LC/MS-MS,,,,5,,,85,,,86,,DAY 85 24H,850024,PT24H,,,
STUDY123,PC,STUDY123-2003,,511,ARTICLE123-DAY85-STUDY123-2003,,,ARCLE123,ARTICLE123,ANALYTE,,2.87,ug/mL,2.87,2.87,ug/mL,,,,PLASMA,,LC/MS-MS,,,,5,,,85,,,85,,DAY 85 1H,850001,PT1H,,,
STUDY123,PC,STUDY123-2003,,512,ARTICLE123-DAY85-STUDY123-2003,,,ARCLE123,ARTICLE123,ANALYTE,,3.10,ug/mL,3.10,3.10,ug/mL,,,,PLASMA,,LC/MS-MS,,,,5,,,85,,,85,,DAY 85 2H,850002,PT2H,,,
STUDY123,PC,STUDY123-2003,,513,ARTICLE123-DAY85-STUDY123-2003,,,ARCLE123,ARTICLE123,ANALYTE,,3.13,ug/mL,3.13,3.13,ug/mL,,,,PLASMA,,LC/MS-MS,,,,5,,,85,,,85,,DAY 85 4H,850004,PT4H,,,
STUDY123,PC,STUDY123-2003,,514,ARTICLE123-DAY85-STUDY123-2003,,,ARCLE123,ARTICLE123,ANALYTE,,2.97,ug/mL,2.97,2.97,ug/mL,,,,PLASMA,,LC/MS-MS,,,,5,,,85,,,85,,DAY 85 8H,850008,PT8H,,,
STUDY123,PC,STUDY123-2003,,515,ARTICLE123-DAY85-STUDY123-2003,,,ARCLE123,ARTICLE123,ANALYTE,,3.22,ug/mL,3.22,3.22,ug/mL,,,,PLASMA,,LC/MS-MS,,,,5,,,85,,,86,,DAY 85 24H,850024,PT24H,,,
STUDY123,PC,STUDY123-2004,,516,ARTICLE123-DAY85-STUDY123-2004,,,ARCLE123,ARTICLE123,ANALYTE,,3.04,ug/mL,3.04,3.04,ug/mL,,,,PLASMA,,LC/MS-MS,,,,5,,,85,,,85,,DAY 85 1H,850001,PT1H,,,
STUDY123,PC,STUDY123-2004,,517,ARTICLE123-DAY85-STUDY123-2004,,,ARCLE123,ARTICLE123,ANALYTE,,3.49,ug/mL,3.49,3.49,ug/mL,,,,PLASMA,,LC/MS-MS,,,,5,,,85,,,85,,DAY 85 2H,850002,PT2H,,,
STUDY123,PC,STUDY123-2004,,518,ARTICLE123-DAY85-STUDY123-2004,,,ARCLE123,ARTICLE123,ANALYTE,,3.08,ug/mL,3.08,3.08,ug/mL,,,,PLASMA,,LC/MS-MS,,,,5,,,85,,,85,,DAY 85 4H,850004,PT4H,,,
STUDY123,PC,STUDY123-2004,,519,ARTICLE123-DAY85-STUDY123-2004,,,ARCLE123,ARTICLE123,ANALYTE,,2.88,ug/mL,2.88,2.88,ug/mL,,,,PLASMA,,LC/MS-MS,,,,5,,,85,,,85,,DAY 85 8H,850008,PT8H,,,
STUDY123,PC,STUDY123-2004,,520,ARTICLE123-DAY85-STUDY123-2004,,,ARCLE123,ARTICLE123,ANALYTE,,2.32,ug/mL,2.32,2.32,ug/mL,,,,PLASMA,,LC/MS-MS,,,,5,,,85,,,86,,DAY 85 24H,850024,PT24H,,,
STUDY123,PC,STUDY123-2501,,521,ARTICLE123-DAY85-STUDY123-2501,,,ARCLE123,ARTICLE123,ANALYTE,,2.47,ug/mL,2.47,2.47,ug/mL,,,,PLASMA,,LC/MS-MS,,,,5,,,85,,,85,,DAY 85 1H,850001,PT1H,,,
STUDY123,PC,STUDY123-2501,,522,ARTICLE123-DAY85-STUDY123-2501,,,ARCLE123,ARTICLE123,ANALYTE,,3.25,ug/mL,3.25,3.25,ug/mL,,,,PLASMA,,LC/MS-MS,,,,5,,,85,,,85,,DAY 85 2H,850002,PT2H,,,
STUDY123,PC,STUDY123-2501,,523,ARTICLE123-DAY85-STUDY123-2501,,,ARCLE123,ARTICLE123,ANALYTE,,2.77,ug/mL,2.77,2.77,ug/mL,,,,PLASMA,,LC/MS-MS,,,,5,,,85,,,85,,DAY 85 4H,850004,PT4H,,,
STUDY123,PC,STUDY123-2501,,524,ARTICLE123-DAY85-STUDY123-2501,,,ARCLE123,ARTICLE123,ANALYTE,,2.39,ug/mL,2.39,2.39,ug/mL,,,,PLASMA,,LC/MS-MS,,,,5,,,85,,,85,,DAY 85 8H,850008,PT8H,,,
STUDY123,PC,STUDY123-2501,,525,ARTICLE123-DAY85-STUDY123-2501,,,ARCLE123,ARTICLE123,ANALYTE,,2.01,ug/mL,2.01,2.01,ug/mL,,,,PLASMA,,LC/MS-MS,,,,5,,,85,,,86,,DAY 85 24H,850024,PT24H,,,
STUDY123,PC,STUDY123-2502,,526,ARTICLE123-DAY85-STUDY123-2502,,,ARCLE123,ARTICLE123,ANALYTE,,3.19,ug/mL,3.19,3.19,ug/mL,,,,PLASMA,,LC/MS-MS,,,,5,,,85,,,85,,DAY 85 1H,850001,PT1H,,,
STUDY123,PC,STUDY123-2502,,527,ARTICLE123-DAY85-STUDY123-2502,,,ARCLE123,ARTICLE123,ANALYTE,,3.63,ug/mL,3.63,3.63,ug/mL,,,,PLASMA,,LC/MS-MS,,,,5,,,85,,,85,,DAY 85 2H,850002,PT2H,,,
STUDY123,PC,STUDY123-2502,,528,ARTICLE123-DAY85-STUDY123-2502,,,ARCLE123,ARTICLE123,ANALYTE,,3.12,ug/mL,3.12,3.12,ug/mL,,,,PLASMA,,LC/MS-MS,,,,5,,,85,,,85,,DAY 85 4H,850004,PT4H,,,
STUDY123,PC,STUDY123-2502,,529,ARTICLE123-DAY85-STUDY123-2502,,,ARCLE123,ARTICLE123,ANALYTE,,2.47,ug/mL,2.47,2.47,ug/mL,,,,PLASMA,,LC/MS-MS,,,,5,,,85,,,85,,DAY 85 8H,850008,PT8H,,,
STUDY123,PC,STUDY123-2502,,530,ARTICLE123-DAY85-STUDY123-2502,,,ARCLE123,ARTICLE123,ANALYTE,,1.71,ug/mL,1.71,1.71,ug/mL,,,,PLASMA,,LC/MS-MS,,,,5,,,85,,,86,,DAY 85 24H,850024,PT24H,,,
STUDY123,PC,STUDY123-2503,,531,ARTICLE123-DAY85-STUDY123-2503,,,ARCLE123,ARTICLE123,ANALYTE,,4.42,ug/mL,4.42,4.42,ug/mL,,,,PLASMA,,LC/MS-MS,,,,5,,,85,,,85,,DAY 85 1H,850001,PT1H,,,
STUDY123,PC,STUDY123-2503,,532,ARTICLE123-DAY85-STUDY123-2503,,,ARCLE123,ARTICLE123,ANALYTE,,5.16,ug/mL,5.16,5.16,ug/mL,,,,PLASMA,,LC/MS-MS,,,,5,,,85,,,85,,DAY 85 2H,850002,PT2H,,,
STUDY123,PC,STUDY123-2503,,533,ARTICLE123-DAY85-STUDY123-2503,,,ARCLE123,ARTICLE123,ANALYTE,,4.27,ug/mL,4.27,4.27,ug/mL,,,,PLASMA,,LC/MS-MS,,,,5,,,85,,,85,,DAY 85 4H,850004,PT4H,,,
STUDY123,PC,STUDY123-2503,,534,ARTICLE123-DAY85-STUDY123-2503,,,ARCLE123,ARTICLE123,ANALYTE,,3.24,ug/mL,3.24,3.24,ug/mL,,,,PLASMA,,LC/MS-MS,,,,5,,,85,,,85,,DAY 85 8H,850008,PT8H,,,
STUDY123,PC,STUDY123-2503,,535,ARTICLE123-DAY85-STUDY123-2503,,,ARCLE123,ARTICLE123,ANALYTE,,2.75,ug/mL,2.75,2.75,ug/mL,,,,PLASMA,,LC/MS-MS,,,,5,,,85,,,86,,DAY 85 24H,850024,PT24H,,,
STUDY123,PC,STUDY123-2504,,536,ARTICLE123-DAY85-STUDY123-2504,,,ARCLE123,ARTICLE123,ANALYTE,,4.04,ug/mL,4.04,4.04,ug/mL,,,,PLASMA,,LC/MS-MS,,,,5,,,85,,,85,,DAY 85 1H,850001,PT1H,,,
STUDY123,PC,STUDY123-2504,,537,ARTICLE123-DAY85-STUDY123-2504,,,ARCLE123,ARTICLE123,ANALYTE,,4.77,ug/mL,4.77,4.77,ug/mL,,,,PLASMA,,LC/MS-MS,,,,5,,,85,,,85,,DAY 85 2H,850002,PT2H,,,
STUDY123,PC,STUDY123-2504,,538,ARTICLE123-DAY85-STUDY123-2504,,,ARCLE123,ARTICLE123,ANALYTE,,4.77,ug/mL,4.77,4.77,ug/mL,,,,PLASMA,,LC/MS-MS,,,,5,,,85,,,85,,DAY 85 4H,850004,PT4H,,,
STUDY123,PC,STUDY123-2504,,539,ARTICLE123-DAY85-STUDY123-2504,,,ARCLE123,ARTICLE123,ANALYTE,,4.21,ug/mL,4.21,4.21,ug/mL,,,,PLASMA,,LC/MS-MS,,,,5,,,85,,,85,,DAY 85 8H,850008,PT8H,,,
STUDY123,PC,STUDY123-2504,,540,ARTICLE123-DAY85-STUDY123-2504,,,ARCLE123,ARTICLE123,ANALYTE,,2.65,ug/mL,2.65,2.65,ug/mL,,,,PLASMA,,LC/MS-MS,,,,5,,,85,,,86,,DAY 85 24H,850024,PT24H,,,
STUDY123,PC,STUDY123-3001,,541,ARTICLE123-DAY85-STUDY123-3001,,,ARCLE123,ARTICLE123,ANALYTE,,6.09,ug/mL,6.09,6.09,ug/mL,,,,PLASMA,,LC/MS-MS,,,,5,,,85,,,85,,DAY 85 1H,850001,PT1H,,,
STUDY123,PC,STUDY123-3001,,542,ARTICLE123-DAY85-STUDY123-3001,,,ARCLE123,ARTICLE123,ANALYTE,,7.60,ug/mL,7.60,7.60,ug/mL,,,,PLASMA,,LC/MS-MS,,,,5,,,85,,,85,,DAY 85 2H,850002,PT2H,,,
STUDY123,PC,STUDY123-3001,,543,ARTICLE123-DAY85-STUDY123-3001,,,ARCLE123,ARTICLE123,ANALYTE,,7.05,ug/mL,7.05,7.05,ug/mL,,,,PLASMA,,LC/MS-MS,,,,5,,,85,,,85,,DAY 85 4H,850004,PT4H,,,
STUDY123,PC,STUDY123-3001,,544,ARTICLE123-DAY85-STUDY123-3001,,,ARCLE123,ARTICLE123,ANALYTE,,6.45,ug/mL,6.45,6.45,ug/mL,,,,PLASMA,,LC/MS-MS,,,,5,,,85,,,85,,DAY 85 8H,850008,PT8H,,,
STUDY123,PC,STUDY123-3001,,545,ARTICLE123-DAY85-STUDY123-3001,,,ARCLE123,ARTICLE123,ANALYTE,,6.11,ug/mL,6.11,6.11,ug/mL,,,,PLASMA,,LC/MS-MS,,,,5,,,85,,,86,,DAY 85 24H,850024,PT24H,,,
STUDY123,PC,STUDY123-3002,,546,ARTICLE123-DAY85-STUDY123-3002,,,ARCLE123,ARTICLE123,ANALYTE,,4.68,ug/mL,4.68,4.68,ug/mL,,,,PLASMA,,LC/MS-MS,,,,5,,,85,,,85,,DAY 85 1H,850001,PT1H,,,
STUDY123,PC,STUDY123-3002,,547,ARTICLE123-DAY85-STUDY123-3002,,,ARCLE123,ARTICLE123,ANALYTE,,5.09,ug/mL,5.09,5.09,ug/mL,,,,PLASMA,,LC/MS-MS,,,,5,,,85,,,85,,DAY 85 2H,850002,PT2H,,,
STUDY123,PC,STUDY123-3002,,548,ARTICLE123-DAY85-STUDY123-3002,,,ARCLE123,ARTICLE123,ANALYTE,,4.55,ug/mL,4.55,4.55,ug/mL,,,,PLASMA,,LC/MS-MS,,,,5,,,85,,,85,,DAY 85 4H,850004,PT4H,,,
STUDY123,PC,STUDY123-3002,,549,ARTICLE123-DAY85-STUDY123-3002,,,ARCLE123,ARTICLE123,ANALYTE,,3.43,ug/mL,3.43,3.43,ug/mL,,,,PLASMA,,LC/MS-MS,,,,5,,,85,,,85,,DAY 85 8H,850008,PT8H,,,
STUDY123,PC,STUDY123-3002,,550,ARTICLE123-DAY85-STUDY123-3002,,,ARCLE123,ARTICLE123,ANALYTE,,2.13,ug/mL,2.13,2.13,ug/mL,,,,PLASMA,,LC/MS-MS,,,,5,,,85,,,86,,DAY 85 24H,850024,PT24H,,,
STUDY123,PC,STUDY123-3003,,551,ARTICLE123-DAY85-STUDY123-3003,,,ARCLE123,ARTICLE123,ANALYTE,,3.51,ug/mL,3.51,3.51,ug/mL,,,,PLASMA,,LC/MS-MS,,,,5,,,85,,,85,,DAY 85 1H,850001,PT1H,,,
STUDY123,PC,STUDY123-3003,,552,ARTICLE123-DAY85-STUDY123-3003,,,ARCLE123,ARTICLE123,ANALYTE,,4.60,ug/mL,4.60,4.60,ug/mL,,,,PLASMA,,LC/MS-MS,,,,5,,,85,,,85,,DAY 85 2H,850002,PT2H,,,
STUDY123,PC,STUDY123-3003,,553,ARTICLE123-DAY85-STUDY123-3003,,,ARCLE123,ARTICLE123,ANALYTE,,4.47,ug/mL,4.47,4.47,ug/mL,,,,PLASMA,,LC/MS-MS,,,,5,,,85,,,85,,DAY 85 4H,850004,PT4H,,,
STUDY123,PC,STUDY123-3003,,554,ARTICLE123-DAY85-STUDY123-3003,,,ARCLE123,ARTICLE123,ANALYTE,,4.00,ug/mL,4.00,4.00,ug/mL,,,,PLASMA,,LC/MS-MS,,,,5,,,85,,,85,,DAY 85 8H,850008,PT8H,,,
STUDY123,PC,STUDY123-3003,,555,ARTICLE123-DAY85-STUDY123-3003,,,ARCLE123,ARTICLE123,ANALYTE,,2.95,ug/mL,2.95,2.95,ug/mL,,,,PLASMA,,LC/MS-MS,,,,5,,,85,,,86,,DAY 85 24H,850024,PT24H,,,
STUDY123,PC,STUDY123-3004,,556,ARTICLE123-DAY85-STUDY123-3004,,,ARCLE123,ARTICLE123,ANALYTE,,8.61,ug/mL,8.61,8.61,ug/mL,,,,PLASMA,,LC/MS-MS,,,,5,,,85,,,85,,DAY 85 1H,850001,PT1H,,,
STUDY123,PC,STUDY123-3004,,557,ARTICLE123-DAY85-STUDY123-3004,,,ARCLE123,ARTICLE123,ANALYTE,,8.43,ug/mL,8.43,8.43,ug/mL,,,,PLASMA,,LC/MS-MS,,,,5,,,85,,,85,,DAY 85 2H,850002,PT2H,,,
STUDY123,PC,STUDY123-3004,,558,ARTICLE123-DAY85-STUDY123-3004,,,ARCLE123,ARTICLE123,ANALYTE,,8.26,ug/mL,8.26,8.26,ug/mL,,,,PLASMA,,LC/MS-MS,,,,5,,,85,,,85,,DAY 85 4H,850004,PT4H,,,
STUDY123,PC,STUDY123-3004,,559,ARTICLE123-DAY85-STUDY123-3004,,,ARCLE123,ARTICLE123,ANALYTE,,7.05,ug/mL,7.05,7.05,ug/mL,,,,PLASMA,,LC/MS-MS,,,,5,,,85,,,85,,DAY 85 8H,850008,PT8H,,,
STUDY123,PC,STUDY123-3004,,560,ARTICLE123-DAY85-STUDY123-3004,,,ARCLE123,ARTICLE123,ANALYTE,,6.41,ug/mL,6.41,6.41,ug/mL,,,,PLASMA,,LC/MS-MS,,,,5,,,85,,,86,,DAY 85 24H,850024,PT24H,,,
STUDY123,PC,STUDY123-3005,,561,ARTICLE123-DAY85-STUDY123-3005,,,ARCLE123,ARTICLE123,ANALYTE,,7.37,ug/mL,7.37,7.37,ug/mL,,,,PLASMA,,LC/MS-MS,,,,5,,,85,,,85,,DAY 85 1H,850001,PT1H,,,
STUDY123,PC,STUDY123-3005,,562,ARTICLE123-DAY85-STUDY123-3005,,,ARCLE123,ARTICLE123,ANALYTE,,7.70,ug/mL,7.70,7.70,ug/mL,,,,PLASMA,,LC/MS-MS,,,,5,,,85,,,85,,DAY 85 2H,850002,PT2H,,,
STUDY123,PC,STUDY123-3005,,563,ARTICLE123-DAY85-STUDY123-3005,,,ARCLE123,ARTICLE123,ANALYTE,,7.38,ug/mL,7.38,7.38,ug/mL,,,,PLASMA,,LC/MS-MS,,,,5,,,85,,,85,,DAY 85 4H,850004,PT4H,,,
STUDY123,PC,STUDY123-3005,,564,ARTICLE123-DAY85-STUDY123-3005,,,ARCLE123,ARTICLE123,ANALYTE,,5.33,ug/mL,5.33,5.33,ug/mL,,,,PLASMA,,LC/MS-MS,,,,5,,,85,,,85,,DAY 85 8H,850008,PT8H,,,
STUDY123,PC,STUDY123-3005,,565,ARTICLE123-DAY85-STUDY123-3005,,,ARCLE123,ARTICLE123,ANALYTE,,3.92,ug/mL,3.92,3.92,ug/mL,,,,PLASMA,,LC/MS-MS,,,,5,,,85,,,86,,DAY 85 24H,850024,PT24H,,,
STUDY123,PC,STUDY123-3006,,566,ARTICLE123-DAY85-STUDY123-3006,,,ARCLE123,ARTICLE123,ANALYTE,,8.67,ug/mL,8.67,8.67,ug/mL,,,,PLASMA,,LC/MS-MS,,,,5,,,85,,,85,,DAY 85 1H,850001,PT1H,,,
STUDY123,PC,STUDY123-3006,,567,ARTICLE123-DAY85-STUDY123-3006,,,ARCLE123,ARTICLE123,ANALYTE,,7.73,ug/mL,7.73,7.73,ug/mL,,,,PLASMA,,LC/MS-MS,,,,5,,,85,,,85,,DAY 85 2H,850002,PT2H,,,
STUDY123,PC,STUDY123-3006,,568,ARTICLE123-DAY85-STUDY123-3006,,,ARCLE123,ARTICLE123,ANALYTE,,7.84,ug/mL,7.84,7.84,ug/mL,,,,PLASMA,,LC/MS-MS,,,,5,,,85,,,85,,DAY 85 4H,850004,PT4H,,,
STUDY123,PC,STUDY123-3006,,569,ARTICLE123-DAY85-STUDY123-3006,,,ARCLE123,ARTICLE123,ANALYTE,,6.38,ug/mL,6.38,6.38,ug/mL,,,,PLASMA,,LC/MS-MS,,,,5,,,85,,,85,,DAY 85 8H,850008,PT8H,,,
STUDY123,PC,STUDY123-3006,,570,ARTICLE123-DAY85-STUDY123-3006,,,ARCLE123,ARTICLE123,ANALYTE,,5.57,ug/mL,5.57,5.57,ug/mL,,,,PLASMA,,LC/MS-MS,,,,5,,,85,,,86,,DAY 85 24H,850024,PT24H,,,
STUDY123,PC,STUDY123-3501,,571,ARTICLE123-DAY85-STUDY123-3501,,,ARCLE123,ARTICLE123,ANALYTE,,9.29,ug/mL,9.29,9.29,ug/mL,,,,PLASMA,,LC/MS-MS,,,,5,,,85,,,85,,DAY 85 1H,850001,PT1H,,,
STUDY123,PC,STUDY123-3501,,572,ARTICLE123-DAY85-STUDY123-3501,,,ARCLE123,ARTICLE123,ANALYTE,,11.4,ug/mL,11.4,11.4,ug/mL,,,,PLASMA,,LC/MS-MS,,,,5,,,85,,,85,,DAY 85 2H,850002,PT2H,,,
STUDY123,PC,STUDY123-3501,,573,ARTICLE123-DAY85-STUDY123-3501,,,ARCLE123,ARTICLE123,ANALYTE,,10.6,ug/mL,10.6,10.6,ug/mL,,,,PLASMA,,LC/MS-MS,,,,5,,,85,,,85,,DAY 85 4H,850004,PT4H,,,
STUDY123,PC,STUDY123-3501,,574,ARTICLE123-DAY85-STUDY123-3501,,,ARCLE123,ARTICLE123,ANALYTE,,9.40,ug/mL,9.40,9.40,ug/mL,,,,PLASMA,,LC/MS-MS,,,,5,,,85,,,85,,DAY 85 8H,850008,PT8H,,,
STUDY123,PC,STUDY123-3501,,575,ARTICLE123-DAY85-STUDY123-3501,,,ARCLE123,ARTICLE123,ANALYTE,,8.46,ug/mL,8.46,8.46,ug/mL,,,,PLASMA,,LC/MS-MS,,,,5,,,85,,,86,,DAY 85 24H,850024,PT24H,,,
STUDY123,PC,STUDY123-3502,,576,ARTICLE123-DAY85-STUDY123-3502,,,ARCLE123,ARTICLE123,ANALYTE,,7.53,ug/mL,7.53,7.53,ug/mL,,,,PLASMA,,LC/MS-MS,,,,5,,,85,,,85,,DAY 85 1H,850001,PT1H,,,
STUDY123,PC,STUDY123-3502,,577,ARTICLE123-DAY85-STUDY123-3502,,,ARCLE123,ARTICLE123,ANALYTE,,9.37,ug/mL,9.37,9.37,ug/mL,,,,PLASMA,,LC/MS-MS,,,,5,,,85,,,85,,DAY 85 2H,850002,PT2H,,,
STUDY123,PC,STUDY123-3502,,578,ARTICLE123-DAY85-STUDY123-3502,,,ARCLE123,ARTICLE123,ANALYTE,,8.42,ug/mL,8.42,8.42,ug/mL,,,,PLASMA,,LC/MS-MS,,,,5,,,85,,,85,,DAY 85 4H,850004,PT4H,,,
STUDY123,PC,STUDY123-3502,,579,ARTICLE123-DAY85-STUDY123-3502,,,ARCLE123,ARTICLE123,ANALYTE,,6.93,ug/mL,6.93,6.93,ug/mL,,,,PLASMA,,LC/MS-MS,,,,5,,,85,,,85,,DAY 85 8H,850008,PT8H,,,
STUDY123,PC,STUDY123-3502,,580,ARTICLE123-DAY85-STUDY123-3502,,,ARCLE123,ARTICLE123,ANALYTE,,7.16,ug/mL,7.16,7.16,ug/mL,,,,PLASMA,,LC/MS-MS,,,,5,,,85,,,86,,DAY 85 24H,850024,PT24H,,,
STUDY123,PC,STUDY123-3503,,581,ARTICLE123-DAY85-STUDY123-3503,,,ARCLE123,ARTICLE123,ANALYTE,,2.96,ug/mL,2.96,2.96,ug/mL,,,,PLASMA,,LC/MS-MS,,,,5,,,85,,,85,,DAY 85 1H,850001,PT1H,,,
STUDY123,PC,STUDY123-3503,,582,ARTICLE123-DAY85-STUDY123-3503,,,ARCLE123,ARTICLE123,ANALYTE,,5.07,ug/mL,5.07,5.07,ug/mL,,,,PLASMA,,LC/MS-MS,,,,5,,,85,,,85,,DAY 85 2H,850002,PT2H,,,
STUDY123,PC,STUDY123-3503,,583,ARTICLE123-DAY85-STUDY123-3503,,,ARCLE123,ARTICLE123,ANALYTE,,4.63,ug/mL,4.63,4.63,ug/mL,,,,PLASMA,,LC/MS-MS,,,,5,,,85,,,85,,DAY 85 4H,850004,PT4H,,,
STUDY123,PC,STUDY123-3503,,584,ARTICLE123-DAY85-STUDY123-3503,,,ARCLE123,ARTICLE123,ANALYTE,,3.17,ug/mL,3.17,3.17,ug/mL,,,,PLASMA,,LC/MS-MS,,,,5,,,85,,,85,,DAY 85 8H,850008,PT8H,,,
STUDY123,PC,STUDY123-3503,,585,ARTICLE123-DAY85-STUDY123-3503,,,ARCLE123,ARTICLE123,ANALYTE,,2.48,ug/mL,2.48,2.48,ug/mL,,,,PLASMA,,LC/MS-MS,,,,5,,,85,,,86,,DAY 85 24H,850024,PT24H,,,
STUDY123,PC,STUDY123-3504,,586,ARTICLE123-DAY85-STUDY123-3504,,,ARCLE123,ARTICLE123,ANALYTE,,5.52,ug/mL,5.52,5.52,ug/mL,,,,PLASMA,,LC/MS-MS,,,,5,,,85,,,85,,DAY 85 1H,850001,PT1H,,,
STUDY123,PC,STUDY123-3504,,587,ARTICLE123-DAY85-STUDY123-3504,,,ARCLE123,ARTICLE123,ANALYTE,,5.95,ug/mL,5.95,5.95,ug/mL,,,,PLASMA,,LC/MS-MS,,,,5,,,85,,,85,,DAY 85 2H,850002,PT2H,,,
STUDY123,PC,STUDY123-3504,,588,ARTICLE123-DAY85-STUDY123-3504,,,ARCLE123,ARTICLE123,ANALYTE,,5.29,ug/mL,5.29,5.29,ug/mL,,,,PLASMA,,LC/MS-MS,,,,5,,,85,,,85,,DAY 85 4H,850004,PT4H,,,
STUDY123,PC,STUDY123-3504,,589,ARTICLE123-DAY85-STUDY123-3504,,,ARCLE123,ARTICLE123,ANALYTE,,5.66,ug/mL,5.66,5.66,ug/mL,,,,PLASMA,,LC/MS-MS,,,,5,,,85,,,85,,DAY 85 8H,850008,PT8H,,,
STUDY123,PC,STUDY123-3504,,590,ARTICLE123-DAY85-STUDY123-3504,,,ARCLE123,ARTICLE123,ANALYTE,,4.98,ug/mL,4.98,4.98,ug/mL,,,,PLASMA,,LC/MS-MS,,,,5,,,85,,,86,,DAY 85 24H,850024,PT24H,,,
STUDY123,PC,STUDY123-3505,,591,ARTICLE123-DAY85-STUDY123-3505,,,ARCLE123,ARTICLE123,ANALYTE,,4.94,ug/mL,4.94,4.94,ug/mL,,,,PLASMA,,LC/MS-MS,,,,5,,,85,,,85,,DAY 85 1H,850001,PT1H,,,
STUDY123,PC,STUDY123-3505,,592,ARTICLE123-DAY85-STUDY123-3505,,,ARCLE123,ARTICLE123,ANALYTE,,5.19,ug/mL,5.19,5.19,ug/mL,,,,PLASMA,,LC/MS-MS,,,,5,,,85,,,85,,DAY 85 2H,850002,PT2H,,,
STUDY123,PC,STUDY123-3505,,593,ARTICLE123-DAY85-STUDY123-3505,,,ARCLE123,ARTICLE123,ANALYTE,,4.20,ug/mL,4.20,4.20,ug/mL,,,,PLASMA,,LC/MS-MS,,,,5,,,85,,,85,,DAY 85 4H,850004,PT4H,,,
STUDY123,PC,STUDY123-3505,,594,ARTICLE123-DAY85-STUDY123-3505,,,ARCLE123,ARTICLE123,ANALYTE,,4.14,ug/mL,4.14,4.14,ug/mL,,,,PLASMA,,LC/MS-MS,,,,5,,,85,,,85,,DAY 85 8H,850008,PT8H,,,
STUDY123,PC,STUDY123-3505,,595,ARTICLE123-DAY85-STUDY123-3505,,,ARCLE123,ARTICLE123,ANALYTE,,4.51,ug/mL,4.51,4.51,ug/mL,,,,PLASMA,,LC/MS-MS,,,,5,,,85,,,86,,DAY 85 24H,850024,PT24H,,,
STUDY123,PC,STUDY123-3506,,596,ARTICLE123-DAY85-STUDY123-3506,,,ARCLE123,ARTICLE123,ANALYTE,,6.32,ug/mL,6.32,6.32,ug/mL,,,,PLASMA,,LC/MS-MS,,,,5,,,85,,,85,,DAY 85 1H,850001,PT1H,,,
STUDY123,PC,STUDY123-3506,,597,ARTICLE123-DAY85-STUDY123-3506,,,ARCLE123,ARTICLE123,ANALYTE,,6.67,ug/mL,6.67,6.67,ug/mL,,,,PLASMA,,LC/MS-MS,,,,5,,,85,,,85,,DAY 85 2H,850002,PT2H,,,
STUDY123,PC,STUDY123-3506,,598,ARTICLE123-DAY85-STUDY123-3506,,,ARCLE123,ARTICLE123,ANALYTE,,6.15,ug/mL,6.15,6.15,ug/mL,,,,PLASMA,,LC/MS-MS,,,,5,,,85,,,85,,DAY 85 4H,850004,PT4H,,,
STUDY123,PC,STUDY123-3506,,599,ARTICLE123-DAY85-STUDY123-3506,,,ARCLE123,ARTICLE123,ANALYTE,,4.92,ug/mL,4.92,4.92,ug/mL,,,,PLASMA,,LC/MS-MS,,,,5,,,85,,,85,,DAY 85 8H,850008,PT8H,,,
STUDY123,PC,STUDY123-3506,,600,ARTICLE123-DAY85-STUDY123-3506,,,ARCLE123,ARTICLE123,ANALYTE,,5.05,ug/mL,5.05,5.05,ug/mL,,,,PLASMA,,LC/MS-MS,,,,5,,,85,,,86,,DAY 85 24H,850024,PT24H,,,
STUDY123,PC,STUDY123-4001,,601,ARTICLE123-DAY85-STUDY123-4001,,,ARCLE123,ARTICLE123,ANALYTE,,23.7,ug/mL,23.7,23.7,ug/mL,,,,PLASMA,,LC/MS-MS,,,,5,,,85,,,85,,DAY 85 1H,850001,PT1H,,,
STUDY123,PC,STUDY123-4001,,602,ARTICLE123-DAY85-STUDY123-4001,,,ARCLE123,ARTICLE123,ANALYTE,,24.9,ug/mL,24.9,24.9,ug/mL,,,,PLASMA,,LC/MS-MS,,,,5,,,85,,,85,,DAY 85 2H,850002,PT2H,,,
STUDY123,PC,STUDY123-4001,,603,ARTICLE123-DAY85-STUDY123-4001,,,ARCLE123,ARTICLE123,ANALYTE,,23.4,ug/mL,23.4,23.4,ug/mL,,,,PLASMA,,LC/MS-MS,,,,5,,,85,,,85,,DAY 85 4H,850004,PT4H,,,
STUDY123,PC,STUDY123-4001,,604,ARTICLE123-DAY85-STUDY123-4001,,,ARCLE123,ARTICLE123,ANALYTE,,20.2,ug/mL,20.2,20.2,ug/mL,,,,PLASMA,,LC/MS-MS,,,,5,,,85,,,85,,DAY 85 8H,850008,PT8H,,,
STUDY123,PC,STUDY123-4001,,605,ARTICLE123-DAY85-STUDY123-4001,,,ARCLE123,ARTICLE123,ANALYTE,,16.1,ug/mL,16.1,16.1,ug/mL,,,,PLASMA,,LC/MS-MS,,,,5,,,85,,,86,,DAY 85 24H,850024,PT24H,,,
STUDY123,PC,STUDY123-4002,,606,ARTICLE123-DAY85-STUDY123-4002,,,ARCLE123,ARTICLE123,ANALYTE,,23.7,ug/mL,23.7,23.7,ug/mL,,,,PLASMA,,LC/MS-MS,,,,5,,,85,,,85,,DAY 85 1H,850001,PT1H,,,
STUDY123,PC,STUDY123-4002,,607,ARTICLE123-DAY85-STUDY123-4002,,,ARCLE123,ARTICLE123,ANALYTE,,25.0,ug/mL,25.0,25.0,ug/mL,,,,PLASMA,,LC/MS-MS,,,,5,,,85,,,85,,DAY 85 2H,850002,PT2H,,,
STUDY123,PC,STUDY123-4002,,608,ARTICLE123-DAY85-STUDY123-4002,,,ARCLE123,ARTICLE123,ANALYTE,,24.7,ug/mL,24.7,24.7,ug/mL,,,,PLASMA,,LC/MS-MS,,,,5,,,85,,,85,,DAY 85 4H,850004,PT4H,,,
STUDY123,PC,STUDY123-4002,,609,ARTICLE123-DAY85-STUDY123-4002,,,ARCLE123,ARTICLE123,ANALYTE,,24.1,ug/mL,24.1,24.1,ug/mL,,,,PLASMA,,LC/MS-MS,,,,5,,,85,,,85,,DAY 85 8H,850008,PT8H,,,
STUDY123,PC,STUDY123-4002,,610,ARTICLE123-DAY85-STUDY123-4002,,,ARCLE123,ARTICLE123,ANALYTE,,18.9,ug/mL,18.9,18.9,ug/mL,,,,PLASMA,,LC/MS-MS,,,,5,,,85,,,86,,DAY 85 24H,850024,PT24H,,,
STUDY123,PC,STUDY123-4004,,611,ARTICLE123-DAY85-STUDY123-4004,,,ARCLE123,ARTICLE123,ANALYTE,,17.5,ug/mL,17.5,17.5,ug/mL,,,,PLASMA,,LC/MS-MS,,,,5,,,85,,,85,,DAY 85 1H,850001,PT1H,,,
STUDY123,PC,STUDY123-4004,,612,ARTICLE123-DAY85-STUDY123-4004,,,ARCLE123,ARTICLE123,ANALYTE,,15.6,ug/mL,15.6,15.6,ug/mL,,,,PLASMA,,LC/MS-MS,,,,5,,,85,,,85,,DAY 85 2H,850002,PT2H,,,
STUDY123,PC,STUDY123-4004,,613,ARTICLE123-DAY85-STUDY123-4004,,,ARCLE123,ARTICLE123,ANALYTE,,19.6,ug/mL,19.6,19.6,ug/mL,,,,PLASMA,,LC/MS-MS,,,,5,,,85,,,85,,DAY 85 4H,850004,PT4H,,,
STUDY123,PC,STUDY123-4004,,614,ARTICLE123-DAY85-STUDY123-4004,,,ARCLE123,ARTICLE123,ANALYTE,,20.8,ug/mL,20.8,20.8,ug/mL,,,,PLASMA,,LC/MS-MS,,,,5,,,85,,,85,,DAY 85 8H,850008,PT8H,,,
STUDY123,PC,STUDY123-4004,,615,ARTICLE123-DAY85-STUDY123-4004,,,ARCLE123,ARTICLE123,ANALYTE,,14.8,ug/mL,14.8,14.8,ug/mL,,,,PLASMA,,LC/MS-MS,,,,5,,,85,,,86,,DAY 85 24H,850024,PT24H,,,
STUDY123,PC,STUDY123-4005,,616,ARTICLE123-DAY85-STUDY123-4005,,,ARCLE123,ARTICLE123,ANALYTE,,14.3,ug/mL,14.3,14.3,ug/mL,,,,PLASMA,,LC/MS-MS,,,,5,,,85,,,85,,DAY 85 1H,850001,PT1H,,,
STUDY123,PC,STUDY123-4005,,617,ARTICLE123-DAY85-STUDY123-4005,,,ARCLE123,ARTICLE123,ANALYTE,,17.9,ug/mL,17.9,17.9,ug/mL,,,,PLASMA,,LC/MS-MS,,,,5,,,85,,,85,,DAY 85 2H,850002,PT2H,,,
STUDY123,PC,STUDY123-4005,,618,ARTICLE123-DAY85-STUDY123-4005,,,ARCLE123,ARTICLE123,ANALYTE,,18.5,ug/mL,18.5,18.5,ug/mL,,,,PLASMA,,LC/MS-MS,,,,5,,,85,,,85,,DAY 85 4H,850004,PT4H,,,
STUDY123,PC,STUDY123-4005,,619,ARTICLE123-DAY85-STUDY123-4005,,,ARCLE123,ARTICLE123,ANALYTE,,13.5,ug/mL,13.5,13.5,ug/mL,,,,PLASMA,,LC/MS-MS,,,,5,,,85,,,85,,DAY 85 8H,850008,PT8H,,,
STUDY123,PC,STUDY123-4005,,620,ARTICLE123-DAY85-STUDY123-4005,,,ARCLE123,ARTICLE123,ANALYTE,,10.7,ug/mL,10.7,10.7,ug/mL,,,,PLASMA,,LC/MS-MS,,,,5,,,85,,,86,,DAY 85 24H,850024,PT24H,,,
STUDY123,PC,STUDY123-4006,,621,ARTICLE123-DAY85-STUDY123-4006,,,ARCLE123,ARTICLE123,ANALYTE,,11.0,ug/mL,11.0,11.0,ug/mL,,,,PLASMA,,LC/MS-MS,,,,5,,,85,,,85,,DAY 85 1H,850001,PT1H,,,
STUDY123,PC,STUDY123-4006,,622,ARTICLE123-DAY85-STUDY123-4006,,,ARCLE123,ARTICLE123,ANALYTE,,12.3,ug/mL,12.3,12.3,ug/mL,,,,PLASMA,,LC/MS-MS,,,,5,,,85,,,85,,DAY 85 2H,850002,PT2H,,,
STUDY123,PC,STUDY123-4006,,623,ARTICLE123-DAY85-STUDY123-4006,,,ARCLE123,ARTICLE123,ANALYTE,,13.6,ug/mL,13.6,13.6,ug/mL,,,,PLASMA,,LC/MS-MS,,,,5,,,85,,,85,,DAY 85 4H,850004,PT4H,,,
STUDY123,PC,STUDY123-4006,,624,ARTICLE123-DAY85-STUDY123-4006,,,ARCLE123,ARTICLE123,ANALYTE,,10.6,ug/mL,10.6,10.6,ug/mL,,,,PLASMA,,LC/MS-MS,,,,5,,,85,,,85,,DAY 85 8H,850008,PT8H,,,
STUDY123,PC,STUDY123-4006,,625,ARTICLE123-DAY85-STUDY123-4006,,,ARCLE123,ARTICLE123,ANALYTE,,7.72,ug/mL,7.72,7.72,ug/mL,,,,PLASMA,,LC/MS-MS,,,,5,,,85,,,86,,DAY 85 24H,850024,PT24H,,,
STUDY123,PC,STUDY123-4103,,626,ARTICLE123-DAY85-STUDY123-4103,,,ARCLE123,ARTICLE123,ANALYTE,,14.4,ug/mL,14.4,14.4,ug/mL,,,,PLASMA,,LC/MS-MS,,,,5,,,85,,,85,,DAY 85 1H,850001,PT1H,,,
STUDY123,PC,STUDY123-4103,,627,ARTICLE123-DAY85-STUDY123-4103,,,ARCLE123,ARTICLE123,ANALYTE,,17.8,ug/mL,17.8,17.8,ug/mL,,,,PLASMA,,LC/MS-MS,,,,5,,,85,,,85,,DAY 85 2H,850002,PT2H,,,
STUDY123,PC,STUDY123-4103,,628,ARTICLE123-DAY85-STUDY123-4103,,,ARCLE123,ARTICLE123,ANALYTE,,18.6,ug/mL,18.6,18.6,ug/mL,,,,PLASMA,,LC/MS-MS,,,,5,,,85,,,85,,DAY 85 4H,850004,PT4H,,,
STUDY123,PC,STUDY123-4103,,629,ARTICLE123-DAY85-STUDY123-4103,,,ARCLE123,ARTICLE123,ANALYTE,,14.1,ug/mL,14.1,14.1,ug/mL,,,,PLASMA,,LC/MS-MS,,,,5,,,85,,,85,,DAY 85 8H,850008,PT8H,,,
STUDY123,PC,STUDY123-4103,,630,ARTICLE123-DAY85-STUDY123-4103,,,ARCLE123,ARTICLE123,ANALYTE,,11.0,ug/mL,11.0,11.0,ug/mL,,,,PLASMA,,LC/MS-MS,,,,5,,,85,,,86,,DAY 85 24H,850024,PT24H,,,
STUDY123,PC,STUDY123-4501,,631,ARTICLE123-DAY85-STUDY123-4501,,,ARCLE123,ARTICLE123,ANALYTE,,8.49,ug/mL,8.49,8.49,ug/mL,,,,PLASMA,,LC/MS-MS,,,,5,,,85,,,85,,DAY 85 1H,850001,PT1H,,,
STUDY123,PC,STUDY123-4501,,632,ARTICLE123-DAY85-STUDY123-4501,,,ARCLE123,ARTICLE123,ANALYTE,,10.0,ug/mL,10.0,10.0,ug/mL,,,,PLASMA,,LC/MS-MS,,,,5,,,85,,,85,,DAY 85 2H,850002,PT2H,,,
STUDY123,PC,STUDY123-4501,,633,ARTICLE123-DAY85-STUDY123-4501,,,ARCLE123,ARTICLE123,ANALYTE,,12.6,ug/mL,12.6,12.6,ug/mL,,,,PLASMA,,LC/MS-MS,,,,5,,,85,,,85,,DAY 85 4H,850004,PT4H,,,
STUDY123,PC,STUDY123-4501,,634,ARTICLE123-DAY85-STUDY123-4501,,,ARCLE123,ARTICLE123,ANALYTE,,12.1,ug/mL,12.1,12.1,ug/mL,,,,PLASMA,,LC/MS-MS,,,,5,,,85,,,85,,DAY 85 8H,850008,PT8H,,,
STUDY123,PC,STUDY123-4501,,635,ARTICLE123-DAY85-STUDY123-4501,,,ARCLE123,ARTICLE123,ANALYTE,,9.14,ug/mL,9.14,9.14,ug/mL,,,,PLASMA,,LC/MS-MS,,,,5,,,85,,,86,,DAY 85 24H,850024,PT24H,,,
STUDY123,PC,STUDY123-4502,,636,ARTICLE123-DAY85-STUDY123-4502,,,ARCLE123,ARTICLE123,ANALYTE,,18.8,ug/mL,18.8,18.8,ug/mL,,,,PLASMA,,LC/MS-MS,,,,5,,,85,,,85,,DAY 85 1H,850001,PT1H,,,
STUDY123,PC,STUDY123-4502,,637,ARTICLE123-DAY85-STUDY123-4502,,,ARCLE123,ARTICLE123,ANALYTE,,19.9,ug/mL,19.9,19.9,ug/mL,,,,PLASMA,,LC/MS-MS,,,,5,,,85,,,85,,DAY 85 2H,850002,PT2H,,,
STUDY123,PC,STUDY123-4502,,638,ARTICLE123-DAY85-STUDY123-4502,,,ARCLE123,ARTICLE123,ANALYTE,,21.1,ug/mL,21.1,21.1,ug/mL,,,,PLASMA,,LC/MS-MS,,,,5,,,85,,,85,,DAY 85 4H,850004,PT4H,,,
STUDY123,PC,STUDY123-4502,,639,ARTICLE123-DAY85-STUDY123-4502,,,ARCLE123,ARTICLE123,ANALYTE,,19.0,ug/mL,19.0,19.0,ug/mL,,,,PLASMA,,LC/MS-MS,,,,5,,,85,,,85,,DAY 85 8H,850008,PT8H,,,
STUDY123,PC,STUDY123-4502,,640,ARTICLE123-DAY85-STUDY123-4502,,,ARCLE123,ARTICLE123,ANALYTE,,13.1,ug/mL,13.1,13.1,ug/mL,,,,PLASMA,,LC/MS-MS,,,,5,,,85,,,86,,DAY 85 24H,850024,PT24H,,,
STUDY123,PC,STUDY123-4503,,641,ARTICLE123-DAY85-STUDY123-4503,,,ARCLE123,ARTICLE123,ANALYTE,,10.1,ug/mL,10.1,10.1,ug/mL,,,,PLASMA,,LC/MS-MS,,,,5,,,85,,,85,,DAY 85 1H,850001,PT1H,,,
STUDY123,PC,STUDY123-4503,,642,ARTICLE123-DAY85-STUDY123-4503,,,ARCLE123,ARTICLE123,ANALYTE,,13.9,ug/mL,13.9,13.9,ug/mL,,,,PLASMA,,LC/MS-MS,,,,5,,,85,,,85,,DAY 85 2H,850002,PT2H,,,
STUDY123,PC,STUDY123-4503,,643,ARTICLE123-DAY85-STUDY123-4503,,,ARCLE123,ARTICLE123,ANALYTE,,16.2,ug/mL,16.2,16.2,ug/mL,,,,PLASMA,,LC/MS-MS,,,,5,,,85,,,85,,DAY 85 4H,850004,PT4H,,,
STUDY123,PC,STUDY123-4503,,644,ARTICLE123-DAY85-STUDY123-4503,,,ARCLE123,ARTICLE123,ANALYTE,,19.7,ug/mL,19.7,19.7,ug/mL,,,,PLASMA,,LC/MS-MS,,,,5,,,85,,,85,,DAY 85 8H,850008,PT8H,,,
STUDY123,PC,STUDY123-4503,,645,ARTICLE123-DAY85-STUDY123-4503,,,ARCLE123,ARTICLE123,ANALYTE,,14.5,ug/mL,14.5,14.5,ug/mL,,,,PLASMA,,LC/MS-MS,,,,5,,,85,,,86,,DAY 85 24H,850024,PT24H,,,
STUDY123,PC,STUDY123-4504,,646,ARTICLE123-DAY85-STUDY123-4504,,,ARCLE123,ARTICLE123,ANALYTE,,14.2,ug/mL,14.2,14.2,ug/mL,,,,PLASMA,,LC/MS-MS,,,,5,,,85,,,85,,DAY 85 1H,850001,PT1H,,,
STUDY123,PC,STUDY123-4504,,647,ARTICLE123-DAY85-STUDY123-4504,,,ARCLE123,ARTICLE123,ANALYTE,,15.1,ug/mL,15.1,15.1,ug/mL,,,,PLASMA,,LC/MS-MS,,,,5,,,85,,,85,,DAY 85 2H,850002,PT2H,,,
STUDY123,PC,STUDY123-4504,,648,ARTICLE123-DAY85-STUDY123-4504,,,ARCLE123,ARTICLE123,ANALYTE,,15.4,ug/mL,15.4,15.4,ug/mL,,,,PLASMA,,LC/MS-MS,,,,5,,,85,,,85,,DAY 85 4H,850004,PT4H,,,
STUDY123,PC,STUDY123-4504,,649,ARTICLE123-DAY85-STUDY123-4504,,,ARCLE123,ARTICLE123,ANALYTE,,12.0,ug/mL,12.0,12.0,ug/mL,,,,PLASMA,,LC/MS-MS,,,,5,,,85,,,85,,DAY 85 8H,850008,PT8H,,,
STUDY123,PC,STUDY123-4504,,650,ARTICLE123-DAY85-STUDY123-4504,,,ARCLE123,ARTICLE123,ANALYTE,,8.34,ug/mL,8.34,8.34,ug/mL,,,,PLASMA,,LC/MS-MS,,,,5,,,85,,,86,,DAY 85 24H,850024,PT24H,,,
STUDY123,PC,STUDY123-4506,,651,ARTICLE123-DAY85-STUDY123-4506,,,ARCLE123,ARTICLE123,ANALYTE,,14.8,ug/mL,14.8,14.8,ug/mL,,,,PLASMA,,LC/MS-MS,,,,5,,,85,,,85,,DAY 85 1H,850001,PT1H,,,
STUDY123,PC,STUDY123-4506,,652,ARTICLE123-DAY85-STUDY123-4506,,,ARCLE123,ARTICLE123,ANALYTE,,17.0,ug/mL,17.0,17.0,ug/mL,,,,PLASMA,,LC/MS-MS,,,,5,,,85,,,85,,DAY 85 2H,850002,PT2H,,,
STUDY123,PC,STUDY123-4506,,653,ARTICLE123-DAY85-STUDY123-4506,,,ARCLE123,ARTICLE123,ANALYTE,,12.3,ug/mL,12.3,12.3,ug/mL,,,,PLASMA,,LC/MS-MS,,,,5,,,85,,,85,,DAY 85 4H,850004,PT4H,,,
STUDY123,PC,STUDY123-4506,,654,ARTICLE123-DAY85-STUDY123-4506,,,ARCLE123,ARTICLE123,ANALYTE,,16.2,ug/mL,16.2,16.2,ug/mL,,,,PLASMA,,LC/MS-MS,,,,5,,,85,,,85,,DAY 85 8H,850008,PT8H,,,
STUDY123,PC,STUDY123-4506,,655,ARTICLE123-DAY85-STUDY123-4506,,,ARCLE123,ARTICLE123,ANALYTE,,12.1,ug/mL,12.1,12.1,ug/mL,,,,PLASMA,,LC/MS-MS,,,,5,,,85,,,86,,DAY 85 24H,850024,PT24H,,,
STUDY123,PC,STUDY123-4605,,656,ARTICLE123-DAY85-STUDY123-4605,,,ARCLE123,ARTICLE123,ANALYTE,,14.9,ug/mL,14.9,14.9,ug/mL,,,,PLASMA,,LC/MS-MS,,,,5,,,85,,,85,,DAY 85 1H,850001,PT1H,,,
STUDY123,PC,STUDY123-4605,,657,ARTICLE123-DAY85-STUDY123-4605,,,ARCLE123,ARTICLE123,ANALYTE,,16.5,ug/mL,16.5,16.5,ug/mL,,,,PLASMA,,LC/MS-MS,,,,5,,,85,,,85,,DAY 85 2H,850002,PT2H,,,
STUDY123,PC,STUDY123-4605,,658,ARTICLE123-DAY85-STUDY123-4605,,,ARCLE123,ARTICLE123,ANALYTE,,14.1,ug/mL,14.1,14.1,ug/mL,,,,PLASMA,,LC/MS-MS,,,,5,,,85,,,85,,DAY 85 4H,850004,PT4H,,,
STUDY123,PC,STUDY123-4605,,659,ARTICLE123-DAY85-STUDY123-4605,,,ARCLE123,ARTICLE123,ANALYTE,,17.5,ug/mL,17.5,17.5,ug/mL,,,,PLASMA,,LC/MS-MS,,,,5,,,85,,,85,,DAY 85 8H,850008,PT8H,,,
STUDY123,PC,STUDY123-4605,,660,ARTICLE123-DAY85-STUDY123-4605,,,ARCLE123,ARTICLE123,ANALYTE,,9.70,ug/mL,9.70,9.70,ug/mL,,,,PLASMA,,LC/MS-MS,,,,5,,,85,,,86,,DAY 85 24H,850024,PT24H,,,
