KeyWords: DM, Demographic
Script: 
  Desc   : > 
    The Demographic Analysis Panel provides the user with an overview of 
	the number and percent of subjects that correspond to many of the 
	variables in the Demographics dataset.  It looks at the frequency 
	of variables such as Race, Ethnicity, Sex, Country, Site and a derived 
	variable for Age Groups, as well as descriptive statistics of the 
	variable Age. This is done by total study population, treatment 
	arm and disposition categories. 
  Name   : demographics_v1.sas 
  GCR    : r135
  SRV    : 12345
  Source : FDA JumpStart
  Target : https://github.com/phuse-org/phuse-scripts/blob/master/tested/SAS/SpecDocs/Analysis%20Panel%20Instructions.doc
  Title  : Demographic Analysis Panel
  Topic  : Demographic Analysis
  Type   : Analysis
  Subtype: TFL
Package:
  name : SAS Analysis Panels
  title: FDA JumpStart analysis package
Language: 
  name   : SAS
  version: 9.2.x, 9.4.x
Comments: >
  The Demographics Analysis Panel contains the 15 analyses. For the 
  demographic variables, the denominator for percent calculations is 
  automatically defined by the DM dataset using the actual arm (ACTARM) or 
  planned treatment arm variable (ARM), excluding cases labeled as Screen
  Failures or Not Assigned. For the demographic variables by disposition
  categories, the denominator for percent calculations is the demographic 
  variable total by arm and overall study population.
  Dataset Requirements:
	Demographics	(DM)
	Disposition	 	(DS)
  Variable Requirements:
	DM  - Actual Arm 				(ACTARM)
		- Planned Treatment Arm		(ARM)
		- Subject ID				(USUBJID
		- Planned Arm Code			(ARMCD)
		- Age Units					(AGEU)
		- Age in AGEU at RFSTDTC	(AGE)
		- Race						(RACE)
		- Ethnic					(ETHNIC)
		- Sex						(SEX)
		- Country					(COUNTRY)
		- Study Cite Identifier		(SITEID)
	DS	- Subject ID				(USUBJID)
		- Standardized Disposition Term	(DSDECOD)
		- Toxicity Grade			(AETOXGR)
		-Adverse Event Start Date/Time	(AESTDTC)
Inputs:
  datasets: dat1, dat2, dat3
  P1: String - dataset name
  P2: Number - depart id
  P3: String - subject id
Outputs:
  datasets: out1, out2, out3
  O1:
  O2:
Authors: 
  - name   : Shannon Dennis
    email  : shannon.dennis@fda.hhs.gov
    company: FDA/IBM
	date   : 12/29/2009
  - name   : David Kretch
    email  : david.kretch@us.ibm.com
    company: FDA/IBM
	date   : 02/07/2011
Qualification: 
  LastQualDate: MM/DD/YYYY 
  LastQualBy: FirstName LastName
  Stage: T
  Document: a link to latest documentation 
  Note: C - Contributed; D - Development; T - Testing; Q - Qualified
Stages: 
  - Date: 02/02/2016
    Name: Austin Taylor <Austin.Taylor@fda.hhs.gov>
    Stage: C 
    Docs: https://github.com/phuse-org/phuse-scripts/blob/master/tested/SAS/SpecDocs/Demographics%20Analysis%20Specifications%20(3-24-2015).doc
  - Date: 03/08/2016
    Name: Alfredo Rojas
    Stage: T
    Docs: https://github.com/phuse-org/phuse-scripts/blob/master/tested/SAS/DM/demographics_v1.docx
  - Date: 03/08/2016
    Name: Cheick Omar Lelenta
    Stage: T
    Docs: https://github.com/phuse-org/phuse-scripts/blob/master/tested/SAS/DM/demographics_v1.docx
Rating: 
  - User: Alfredo Rojas
    Date: 03/08/2016
    Association: Accenture 
    Stars: 4.5
  - User: htu 
    Date: 03/10/2016 
    Association: Accenture
    Stars: 4.5
	
