{"creationDateTime":"2023-08-01T10:34:31","datasetJSONVersion":"1.0.0","fileOID":"www.cdisc.org/StudyMSGv2/1/Define-XML_2.0.0/2023-08-01/bw","originator":"CDISC SEND Team","sourceSystem":"Sponsor System","sourceSystemVersion":"1.0","clinicalData":{"studyOID":"VECTORSTUDYU1.SEND-IG.3.1","metaDataVersionOID":"MDV.VECTORSTUDYU1.SEND-IG.3.1","metaDataRef":"https://metadata.location.org/TDF_SEND_SENDIG31/define.xml","itemGroupData":{"IG.BW":{"records":198,"name":"BW","label":"BODY WEIGHT","items":[{"OID":"ITEMGROUPDATASEQ","name":"ITEMGROUPDATASEQ","label":"Record Identifier","type":"integer"},{"OID":"IT.BW.STUDYID","name":"STUDYID","label":"Study Identifier","type":"string","length":13,"keySequence":1},{"OID":"IT.BW.DOMAIN","name":"DOMAIN","label":"Domain Abbreviation","type":"string","length":2,"displayFormat":"$2"},{"OID":"IT.BW.USUBJID","name":"USUBJID","label":"Unique Subject Identifier","type":"string","length":19,"keySequence":2},{"OID":"IT.BW.BWSEQ","name":"BWSEQ","label":"Sequence Number","type":"integer","length":8},{"OID":"IT.BW.BWTESTCD","name":"BWTESTCD","label":"Test Short Name","type":"string","length":6,"keySequence":3},{"OID":"IT.BW.BWTEST","name":"BWTEST","label":"Test Name","type":"string","length":20},{"OID":"IT.BW.BWORRES","name":"BWORRES","label":"Result or Findings as Collected","type":"string","length":4},{"OID":"IT.BW.BWORRESU","name":"BWORRESU","label":"Unit of the Original Result","type":"string","length":1},{"OID":"IT.BW.BWSTRESC","name":"BWSTRESC","label":"Standardized Result in Character Format","type":"string","length":4},{"OID":"IT.BW.BWSTRESN","name":"BWSTRESN","label":"Standardized Result in Numeric Format","type":"integer","length":8},{"OID":"IT.BW.BWSTRESU","name":"BWSTRESU","label":"Unit of the Standardized Result","type":"string","length":1},{"OID":"IT.BW.BWSTAT","name":"BWSTAT","label":"Completion Status","type":"string","length":1},{"OID":"IT.BW.BWREASND","name":"BWREASND","label":"Reason Not Done","type":"string","length":1},{"OID":"IT.BW.BWBLFL","name":"BWBLFL","label":"Baseline Flag","type":"string","length":1},{"OID":"IT.BW.BWFAST","name":"BWFAST","label":"Fasting Status","type":"string","length":1},{"OID":"IT.BW.BWEXCLFL","name":"BWEXCLFL","label":"Exclusion Flag","type":"string","length":1},{"OID":"IT.BW.BWREASEX","name":"BWREASEX","label":"Reason for Exclusion","type":"string","length":1},{"OID":"IT.BW.BWUSCHFL","name":"BWUSCHFL","label":"Unscheduled Flag","type":"string","length":1},{"OID":"IT.BW.VISITDY","name":"VISITDY","label":"Planned Study Day of Collection","type":"integer","length":8},{"OID":"IT.BW.BWDTC","name":"BWDTC","label":"Date/Time Animal Weighed","type":"string","keySequence":4},{"OID":"IT.BW.BWDY","name":"BWDY","label":"Study Day Animal Weighed","type":"integer","length":8},{"OID":"IT.BW.BWNOMDY","name":"BWNOMDY","label":"Nominal Study Day for Tabulations","type":"integer","length":8},{"OID":"IT.BW.BWNOMLBL","name":"BWNOMLBL","label":"Label for Nominal Study Day","type":"string","length":1}],"itemData":[[1,"VECTORSTUDYU1","BW","VECTORSTUDYU1-P0001",1,"BW","Body Weight","2700","g","2700",2700,"g","","","","","","","",-53,"2018-06-07T00:00:00",-53,-53,""],[2,"VECTORSTUDYU1","BW","VECTORSTUDYU1-P0002",2,"BW","Body Weight","2600","g","2600",2600,"g","","","","","","","",-53,"2018-06-07T00:00:00",-53,-53,""],[3,"VECTORSTUDYU1","BW","VECTORSTUDYU1-P0003",3,"BW","Body Weight","3000","g","3000",3000,"g","","","","","","","",-53,"2018-06-07T00:00:00",-53,-53,""],[4,"VECTORSTUDYU1","BW","VECTORSTUDYU1-P0401",4,"BW","Body Weight","2900","g","2900",2900,"g","","","","","","","",-53,"2018-06-07T00:00:00",-53,-53,""],[5,"VECTORSTUDYU1","BW","VECTORSTUDYU1-P0402",5,"BW","Body Weight","2800","g","2800",2800,"g","","","","","","","",-53,"2018-06-07T00:00:00",-53,-53,""],[6,"VECTORSTUDYU1","BW","VECTORSTUDYU1-P0403",6,"BW","Body Weight","2800","g","2800",2800,"g","","","","","","","",-53,"2018-06-07T00:00:00",-53,-53,""],[7,"VECTORSTUDYU1","BW","VECTORSTUDYU1-P0001",7,"BW","Body Weight","2500","g","2500",2500,"g","","","","","","","",-46,"2018-06-14T00:00:00",-46,-46,""],[8,"VECTORSTUDYU1","BW","VECTORSTUDYU1-P0002",8,"BW","Body Weight","2600","g","2600",2600,"g","","","","","","","",-46,"2018-06-14T00:00:00",-46,-46,""],[9,"VECTORSTUDYU1","BW","VECTORSTUDYU1-P0003",9,"BW","Body Weight","2900","g","2900",2900,"g","","","","","","","",-46,"2018-06-14T00:00:00",-46,-46,""],[10,"VECTORSTUDYU1","BW","VECTORSTUDYU1-P0401",10,"BW","Body Weight","2900","g","2900",2900,"g","","","","","","","",-46,"2018-06-14T00:00:00",-46,-46,""],[11,"VECTORSTUDYU1","BW","VECTORSTUDYU1-P0402",11,"BW","Body Weight","2800","g","2800",2800,"g","","","","","","","",-46,"2018-06-14T00:00:00",-46,-46,""],[12,"VECTORSTUDYU1","BW","VECTORSTUDYU1-P0403",12,"BW","Body Weight","2700","g","2700",2700,"g","","","","","","","",-46,"2018-06-14T00:00:00",-46,-46,""],[13,"VECTORSTUDYU1","BW","VECTORSTUDYU1-P0001",13,"BW","Body Weight","2300","g","2300",2300,"g","","","","","","","",-39,"2018-06-21T00:00:00",-39,-39,""],[14,"VECTORSTUDYU1","BW","VECTORSTUDYU1-P0002",14,"BW","Body Weight","2600","g","2600",2600,"g","","","","","","","",-39,"2018-06-21T00:00:00",-39,-39,""],[15,"VECTORSTUDYU1","BW","VECTORSTUDYU1-P0003",15,"BW","Body Weight","3200","g","3200",3200,"g","","","","","","","",-39,"2018-06-21T00:00:00",-39,-39,""],[16,"VECTORSTUDYU1","BW","VECTORSTUDYU1-P0401",16,"BW","Body Weight","3100","g","3100",3100,"g","","","","","","","",-39,"2018-06-21T00:00:00",-39,-39,""],[17,"VECTORSTUDYU1","BW","VECTORSTUDYU1-P0402",17,"BW","Body Weight","2900","g","2900",2900,"g","","","","","","","",-39,"2018-06-21T00:00:00",-39,-39,""],[18,"VECTORSTUDYU1","BW","VECTORSTUDYU1-P0403",18,"BW","Body Weight","2800","g","2800",2800,"g","","","","","","","",-39,"2018-06-21T00:00:00",-39,-39,""],[19,"VECTORSTUDYU1","BW","VECTORSTUDYU1-P0001",19,"BW","Body Weight","2700","g","2700",2700,"g","","","","","","","",-32,"2018-06-28T00:00:00",-32,-32,""],[20,"VECTORSTUDYU1","BW","VECTORSTUDYU1-P0002",20,"BW","Body Weight","2700","g","2700",2700,"g","","","","","","","",-32,"2018-06-28T00:00:00",-32,-32,""],[21,"VECTORSTUDYU1","BW","VECTORSTUDYU1-P0003",21,"BW","Body Weight","3000","g","3000",3000,"g","","","","","","","",-32,"2018-06-28T00:00:00",-32,-32,""],[22,"VECTORSTUDYU1","BW","VECTORSTUDYU1-P0401",22,"BW","Body Weight","3000","g","3000",3000,"g","","","","","","","",-32,"2018-06-28T00:00:00",-32,-32,""],[23,"VECTORSTUDYU1","BW","VECTORSTUDYU1-P0402",23,"BW","Body Weight","2800","g","2800",2800,"g","","","","","","","",-32,"2018-06-28T00:00:00",-32,-32,""],[24,"VECTORSTUDYU1","BW","VECTORSTUDYU1-P0403",24,"BW","Body Weight","2700","g","2700",2700,"g","","","","","","","",-32,"2018-06-28T00:00:00",-32,-32,""],[25,"VECTORSTUDYU1","BW","VECTORSTUDYU1-P0001",25,"BW","Body Weight","2900","g","2900",2900,"g","","","","","","","",-25,"2018-07-05T00:00:00",-25,-25,""],[26,"VECTORSTUDYU1","BW","VECTORSTUDYU1-P0002",26,"BW","Body Weight","2600","g","2600",2600,"g","","","","","","","",-25,"2018-07-05T00:00:00",-25,-25,""],[27,"VECTORSTUDYU1","BW","VECTORSTUDYU1-P0003",27,"BW","Body Weight","2900","g","2900",2900,"g","","","","","","","",-25,"2018-07-05T00:00:00",-25,-25,""],[28,"VECTORSTUDYU1","BW","VECTORSTUDYU1-P0401",28,"BW","Body Weight","3000","g","3000",3000,"g","","","","","","","",-25,"2018-07-05T00:00:00",-25,-25,""],[29,"VECTORSTUDYU1","BW","VECTORSTUDYU1-P0402",29,"BW","Body Weight","2800","g","2800",2800,"g","","","","","","","",-25,"2018-07-05T00:00:00",-25,-25,""],[30,"VECTORSTUDYU1","BW","VECTORSTUDYU1-P0403",30,"BW","Body Weight","2600","g","2600",2600,"g","","","","","","","",-25,"2018-07-05T00:00:00",-25,-25,""],[31,"VECTORSTUDYU1","BW","VECTORSTUDYU1-P0001",31,"BW","Body Weight","3000","g","3000",3000,"g","","","","","","","",-18,"2018-07-12T00:00:00",-18,-18,""],[32,"VECTORSTUDYU1","BW","VECTORSTUDYU1-P0002",32,"BW","Body Weight","2600","g","2600",2600,"g","","","","","","","",-18,"2018-07-12T00:00:00",-18,-18,""],[33,"VECTORSTUDYU1","BW","VECTORSTUDYU1-P0003",33,"BW","Body Weight","3000","g","3000",3000,"g","","","","","","","",-18,"2018-07-12T00:00:00",-18,-18,""],[34,"VECTORSTUDYU1","BW","VECTORSTUDYU1-P0401",34,"BW","Body Weight","3100","g","3100",3100,"g","","","","","","","",-18,"2018-07-12T00:00:00",-18,-18,""],[35,"VECTORSTUDYU1","BW","VECTORSTUDYU1-P0402",35,"BW","Body Weight","2900","g","2900",2900,"g","","","","","","","",-18,"2018-07-12T00:00:00",-18,-18,""],[36,"VECTORSTUDYU1","BW","VECTORSTUDYU1-P0403",36,"BW","Body Weight","2600","g","2600",2600,"g","","","","","","","",-18,"2018-07-12T00:00:00",-18,-18,""],[37,"VECTORSTUDYU1","BW","VECTORSTUDYU1-P0001",37,"BW","Body Weight","2900","g","2900",2900,"g","","","","","","","",-11,"2018-07-19T00:00:00",-11,-11,""],[38,"VECTORSTUDYU1","BW","VECTORSTUDYU1-P0002",38,"BW","Body Weight","2500","g","2500",2500,"g","","","","","","","",-11,"2018-07-19T00:00:00",-11,-11,""],[39,"VECTORSTUDYU1","BW","VECTORSTUDYU1-P0003",39,"BW","Body Weight","3100","g","3100",3100,"g","","","","","","","",-11,"2018-07-19T00:00:00",-11,-11,""],[40,"VECTORSTUDYU1","BW","VECTORSTUDYU1-P0401",40,"BW","Body Weight","2900","g","2900",2900,"g","","","","","","","",-11,"2018-07-19T00:00:00",-11,-11,""],[41,"VECTORSTUDYU1","BW","VECTORSTUDYU1-P0402",41,"BW","Body Weight","2900","g","2900",2900,"g","","","","","","","",-11,"2018-07-19T00:00:00",-11,-11,""],[42,"VECTORSTUDYU1","BW","VECTORSTUDYU1-P0403",42,"BW","Body Weight","2700","g","2700",2700,"g","","","","","","","",-11,"2018-07-19T00:00:00",-11,-11,""],[43,"VECTORSTUDYU1","BW","VECTORSTUDYU1-P0001",43,"BW","Body Weight","2900","g","2900",2900,"g","","","","","","","",-4,"2018-07-26T00:00:00",-4,-4,""],[44,"VECTORSTUDYU1","BW","VECTORSTUDYU1-P0002",44,"BW","Body Weight","2500","g","2500",2500,"g","","","","","","","",-4,"2018-07-26T00:00:00",-4,-4,""],[45,"VECTORSTUDYU1","BW","VECTORSTUDYU1-P0003",45,"BW","Body Weight","3100","g","3100",3100,"g","","","","","","","",-4,"2018-07-26T00:00:00",-4,-4,""],[46,"VECTORSTUDYU1","BW","VECTORSTUDYU1-P0401",46,"BW","Body Weight","2900","g","2900",2900,"g","","","","","","","",-4,"2018-07-26T00:00:00",-4,-4,""],[47,"VECTORSTUDYU1","BW","VECTORSTUDYU1-P0402",47,"BW","Body Weight","2800","g","2800",2800,"g","","","","","","","",-4,"2018-07-26T00:00:00",-4,-4,""],[48,"VECTORSTUDYU1","BW","VECTORSTUDYU1-P0403",48,"BW","Body Weight","2700","g","2700",2700,"g","","","","","","","",-4,"2018-07-26T00:00:00",-4,-4,""],[49,"VECTORSTUDYU1","BW","VECTORSTUDYU1-P0001",49,"BW","Body Weight","2900","g","2900",2900,"g","","","Y","","","","",1,"2018-07-30T00:00:00",1,1,""],[50,"VECTORSTUDYU1","BW","VECTORSTUDYU1-P0002",50,"BW","Body Weight","2600","g","2600",2600,"g","","","Y","","","","",1,"2018-07-30T00:00:00",1,1,""],[51,"VECTORSTUDYU1","BW","VECTORSTUDYU1-P0003",51,"BW","Body Weight","3000","g","3000",3000,"g","","","Y","","","","",1,"2018-07-30T00:00:00",1,1,""],[52,"VECTORSTUDYU1","BW","VECTORSTUDYU1-P0401",52,"BW","Body Weight","2800","g","2800",2800,"g","","","Y","","","","",1,"2018-07-30T00:00:00",1,1,""],[53,"VECTORSTUDYU1","BW","VECTORSTUDYU1-P0402",53,"BW","Body Weight","2900","g","2900",2900,"g","","","Y","","","","",1,"2018-07-30T00:00:00",1,1,""],[54,"VECTORSTUDYU1","BW","VECTORSTUDYU1-P0403",54,"BW","Body Weight","2600","g","2600",2600,"g","","","Y","","","","",1,"2018-07-30T00:00:00",1,1,""],[55,"VECTORSTUDYU1","BW","VECTORSTUDYU1-P0001",55,"BW","Body Weight","2900","g","2900",2900,"g","","","","","","","",8,"2018-08-06T00:00:00",8,8,""],[56,"VECTORSTUDYU1","BW","VECTORSTUDYU1-P0002",56,"BW","Body Weight","2700","g","2700",2700,"g","","","","","","","",8,"2018-08-06T00:00:00",8,8,""],[57,"VECTORSTUDYU1","BW","VECTORSTUDYU1-P0003",57,"BW","Body Weight","3300","g","3300",3300,"g","","","","","","","",8,"2018-08-06T00:00:00",8,8,""],[58,"VECTORSTUDYU1","BW","VECTORSTUDYU1-P0401",58,"BW","Body Weight","2900","g","2900",2900,"g","","","","","","","",8,"2018-08-06T00:00:00",8,8,""],[59,"VECTORSTUDYU1","BW","VECTORSTUDYU1-P0402",59,"BW","Body Weight","2900","g","2900",2900,"g","","","","","","","",8,"2018-08-06T00:00:00",8,8,""],[60,"VECTORSTUDYU1","BW","VECTORSTUDYU1-P0403",60,"BW","Body Weight","2600","g","2600",2600,"g","","","","","","","",8,"2018-08-06T00:00:00",8,8,""],[61,"VECTORSTUDYU1","BW","VECTORSTUDYU1-P0001",61,"BW","Body Weight","2800","g","2800",2800,"g","","","","","","","",15,"2018-08-13T00:00:00",15,15,""],[62,"VECTORSTUDYU1","BW","VECTORSTUDYU1-P0002",62,"BW","Body Weight","2500","g","2500",2500,"g","","","","","","","",15,"2018-08-13T00:00:00",15,15,""],[63,"VECTORSTUDYU1","BW","VECTORSTUDYU1-P0003",63,"BW","Body Weight","3100","g","3100",3100,"g","","","","","","","",15,"2018-08-13T00:00:00",15,15,""],[64,"VECTORSTUDYU1","BW","VECTORSTUDYU1-P0401",64,"BW","Body Weight","2900","g","2900",2900,"g","","","","","","","",15,"2018-08-13T00:00:00",15,15,""],[65,"VECTORSTUDYU1","BW","VECTORSTUDYU1-P0402",65,"BW","Body Weight","2900","g","2900",2900,"g","","","","","","","",15,"2018-08-13T00:00:00",15,15,""],[66,"VECTORSTUDYU1","BW","VECTORSTUDYU1-P0403",66,"BW","Body Weight","2600","g","2600",2600,"g","","","","","","","",15,"2018-08-13T00:00:00",15,15,""],[67,"VECTORSTUDYU1","BW","VECTORSTUDYU1-P0001",67,"BW","Body Weight","2700","g","2700",2700,"g","","","","","","","",22,"2018-08-20T00:00:00",22,22,""],[68,"VECTORSTUDYU1","BW","VECTORSTUDYU1-P0002",68,"BW","Body Weight","2700","g","2700",2700,"g","","","","","","","",22,"2018-08-20T00:00:00",22,22,""],[69,"VECTORSTUDYU1","BW","VECTORSTUDYU1-P0003",69,"BW","Body Weight","3200","g","3200",3200,"g","","","","","","","",22,"2018-08-20T00:00:00",22,22,""],[70,"VECTORSTUDYU1","BW","VECTORSTUDYU1-P0401",70,"BW","Body Weight","3100","g","3100",3100,"g","","","","","","","",22,"2018-08-20T00:00:00",22,22,""],[71,"VECTORSTUDYU1","BW","VECTORSTUDYU1-P0402",71,"BW","Body Weight","3000","g","3000",3000,"g","","","","","","","",22,"2018-08-20T00:00:00",22,22,""],[72,"VECTORSTUDYU1","BW","VECTORSTUDYU1-P0403",72,"BW","Body Weight","2700","g","2700",2700,"g","","","","","","","",22,"2018-08-20T00:00:00",22,22,""],[73,"VECTORSTUDYU1","BW","VECTORSTUDYU1-P0001",73,"BW","Body Weight","2700","g","2700",2700,"g","","","","","","","",29,"2018-08-27T00:00:00",29,29,""],[74,"VECTORSTUDYU1","BW","VECTORSTUDYU1-P0002",74,"BW","Body Weight","2500","g","2500",2500,"g","","","","","","","",29,"2018-08-27T00:00:00",29,29,""],[75,"VECTORSTUDYU1","BW","VECTORSTUDYU1-P0003",75,"BW","Body Weight","3100","g","3100",3100,"g","","","","","","","",29,"2018-08-27T00:00:00",29,29,""],[76,"VECTORSTUDYU1","BW","VECTORSTUDYU1-P0401",76,"BW","Body Weight","3000","g","3000",3000,"g","","","","","","","",29,"2018-08-27T00:00:00",29,29,""],[77,"VECTORSTUDYU1","BW","VECTORSTUDYU1-P0402",77,"BW","Body Weight","3000","g","3000",3000,"g","","","","","","","",29,"2018-08-27T00:00:00",29,29,""],[78,"VECTORSTUDYU1","BW","VECTORSTUDYU1-P0403",78,"BW","Body Weight","2600","g","2600",2600,"g","","","","","","","",29,"2018-08-27T00:00:00",29,29,""],[79,"VECTORSTUDYU1","BW","VECTORSTUDYU1-P0001",79,"BW","Body Weight","2800","g","2800",2800,"g","","","","","","","",36,"2018-09-03T00:00:00",36,36,""],[80,"VECTORSTUDYU1","BW","VECTORSTUDYU1-P0002",80,"BW","Body Weight","2700","g","2700",2700,"g","","","","","","","",36,"2018-09-03T00:00:00",36,36,""],[81,"VECTORSTUDYU1","BW","VECTORSTUDYU1-P0003",81,"BW","Body Weight","3400","g","3400",3400,"g","","","","","","","",36,"2018-09-03T00:00:00",36,36,""],[82,"VECTORSTUDYU1","BW","VECTORSTUDYU1-P0401",82,"BW","Body Weight","3100","g","3100",3100,"g","","","","","","","",36,"2018-09-03T00:00:00",36,36,""],[83,"VECTORSTUDYU1","BW","VECTORSTUDYU1-P0402",83,"BW","Body Weight","3100","g","3100",3100,"g","","","","","","","",36,"2018-09-03T00:00:00",36,36,""],[84,"VECTORSTUDYU1","BW","VECTORSTUDYU1-P0403",84,"BW","Body Weight","2600","g","2600",2600,"g","","","","","","","",36,"2018-09-03T00:00:00",36,36,""],[85,"VECTORSTUDYU1","BW","VECTORSTUDYU1-P0001",85,"BW","Body Weight","2600","g","2600",2600,"g","","","","","","","",43,"2018-09-10T00:00:00",43,43,""],[86,"VECTORSTUDYU1","BW","VECTORSTUDYU1-P0002",86,"BW","Body Weight","2600","g","2600",2600,"g","","","","","","","",43,"2018-09-10T00:00:00",43,43,""],[87,"VECTORSTUDYU1","BW","VECTORSTUDYU1-P0003",87,"BW","Body Weight","3100","g","3100",3100,"g","","","","","","","",43,"2018-09-10T00:00:00",43,43,""],[88,"VECTORSTUDYU1","BW","VECTORSTUDYU1-P0401",88,"BW","Body Weight","3100","g","3100",3100,"g","","","","","","","",43,"2018-09-10T00:00:00",43,43,""],[89,"VECTORSTUDYU1","BW","VECTORSTUDYU1-P0402",89,"BW","Body Weight","2900","g","2900",2900,"g","","","","","","","",43,"2018-09-10T00:00:00",43,43,""],[90,"VECTORSTUDYU1","BW","VECTORSTUDYU1-P0403",90,"BW","Body Weight","2600","g","2600",2600,"g","","","","","","","",43,"2018-09-10T00:00:00",43,43,""],[91,"VECTORSTUDYU1","BW","VECTORSTUDYU1-P0001",91,"BW","Body Weight","2700","g","2700",2700,"g","","","","","","","",50,"2018-09-17T00:00:00",50,50,""],[92,"VECTORSTUDYU1","BW","VECTORSTUDYU1-P0002",92,"BW","Body Weight","2700","g","2700",2700,"g","","","","","","","",50,"2018-09-17T00:00:00",50,50,""],[93,"VECTORSTUDYU1","BW","VECTORSTUDYU1-P0003",93,"BW","Body Weight","3200","g","3200",3200,"g","","","","","","","",50,"2018-09-17T00:00:00",50,50,""],[94,"VECTORSTUDYU1","BW","VECTORSTUDYU1-P0401",94,"BW","Body Weight","3100","g","3100",3100,"g","","","","","","","",50,"2018-09-17T00:00:00",50,50,""],[95,"VECTORSTUDYU1","BW","VECTORSTUDYU1-P0402",95,"BW","Body Weight","3200","g","3200",3200,"g","","","","","","","",50,"2018-09-17T00:00:00",50,50,""],[96,"VECTORSTUDYU1","BW","VECTORSTUDYU1-P0403",96,"BW","Body Weight","2700","g","2700",2700,"g","","","","","","","",50,"2018-09-17T00:00:00",50,50,""],[97,"VECTORSTUDYU1","BW","VECTORSTUDYU1-P0001",97,"BW","Body Weight","2800","g","2800",2800,"g","","","","","","","",57,"2018-09-24T00:00:00",57,57,""],[98,"VECTORSTUDYU1","BW","VECTORSTUDYU1-P0002",98,"BW","Body Weight","2600","g","2600",2600,"g","","","","","","","",57,"2018-09-24T00:00:00",57,57,""],[99,"VECTORSTUDYU1","BW","VECTORSTUDYU1-P0003",99,"BW","Body Weight","3100","g","3100",3100,"g","","","","","","","",57,"2018-09-24T00:00:00",57,57,""],[100,"VECTORSTUDYU1","BW","VECTORSTUDYU1-P0401",100,"BW","Body Weight","3000","g","3000",3000,"g","","","","","","","",57,"2018-09-24T00:00:00",57,57,""],[101,"VECTORSTUDYU1","BW","VECTORSTUDYU1-P0402",101,"BW","Body Weight","3100","g","3100",3100,"g","","","","","","","",57,"2018-09-24T00:00:00",57,57,""],[102,"VECTORSTUDYU1","BW","VECTORSTUDYU1-P0403",102,"BW","Body Weight","2600","g","2600",2600,"g","","","","","","","",57,"2018-09-24T00:00:00",57,57,""],[103,"VECTORSTUDYU1","BW","VECTORSTUDYU1-P0001",103,"BW","Body Weight","2700","g","2700",2700,"g","","","","","","","",64,"2018-10-01T00:00:00",64,64,""],[104,"VECTORSTUDYU1","BW","VECTORSTUDYU1-P0002",104,"BW","Body Weight","2800","g","2800",2800,"g","","","","","","","",64,"2018-10-01T00:00:00",64,64,""],[105,"VECTORSTUDYU1","BW","VECTORSTUDYU1-P0003",105,"BW","Body Weight","3400","g","3400",3400,"g","","","","","","","",64,"2018-10-01T00:00:00",64,64,""],[106,"VECTORSTUDYU1","BW","VECTORSTUDYU1-P0401",106,"BW","Body Weight","3200","g","3200",3200,"g","","","","","","","",64,"2018-10-01T00:00:00",64,64,""],[107,"VECTORSTUDYU1","BW","VECTORSTUDYU1-P0402",107,"BW","Body Weight","3300","g","3300",3300,"g","","","","","","","",64,"2018-10-01T00:00:00",64,64,""],[108,"VECTORSTUDYU1","BW","VECTORSTUDYU1-P0403",108,"BW","Body Weight","2700","g","2700",2700,"g","","","","","","","",64,"2018-10-01T00:00:00",64,64,""],[109,"VECTORSTUDYU1","BW","VECTORSTUDYU1-P0001",109,"BW","Body Weight","2700","g","2700",2700,"g","","","","","","","",71,"2018-10-08T00:00:00",71,71,""],[110,"VECTORSTUDYU1","BW","VECTORSTUDYU1-P0002",110,"BW","Body Weight","2700","g","2700",2700,"g","","","","","","","",71,"2018-10-08T00:00:00",71,71,""],[111,"VECTORSTUDYU1","BW","VECTORSTUDYU1-P0003",111,"BW","Body Weight","3100","g","3100",3100,"g","","","","","","","",71,"2018-10-08T00:00:00",71,71,""],[112,"VECTORSTUDYU1","BW","VECTORSTUDYU1-P0401",112,"BW","Body Weight","3100","g","3100",3100,"g","","","","","","","",71,"2018-10-08T00:00:00",71,71,""],[113,"VECTORSTUDYU1","BW","VECTORSTUDYU1-P0402",113,"BW","Body Weight","3100","g","3100",3100,"g","","","","","","","",71,"2018-10-08T00:00:00",71,71,""],[114,"VECTORSTUDYU1","BW","VECTORSTUDYU1-P0403",114,"BW","Body Weight","2600","g","2600",2600,"g","","","","","","","",71,"2018-10-08T00:00:00",71,71,""],[115,"VECTORSTUDYU1","BW","VECTORSTUDYU1-P0001",115,"BW","Body Weight","2600","g","2600",2600,"g","","","","","","","",78,"2018-10-15T00:00:00",78,78,""],[116,"VECTORSTUDYU1","BW","VECTORSTUDYU1-P0002",116,"BW","Body Weight","2800","g","2800",2800,"g","","","","","","","",78,"2018-10-15T00:00:00",78,78,""],[117,"VECTORSTUDYU1","BW","VECTORSTUDYU1-P0003",117,"BW","Body Weight","3500","g","3500",3500,"g","","","","","","","",78,"2018-10-15T00:00:00",78,78,""],[118,"VECTORSTUDYU1","BW","VECTORSTUDYU1-P0401",118,"BW","Body Weight","3100","g","3100",3100,"g","","","","","","","",78,"2018-10-15T00:00:00",78,78,""],[119,"VECTORSTUDYU1","BW","VECTORSTUDYU1-P0402",119,"BW","Body Weight","3200","g","3200",3200,"g","","","","","","","",78,"2018-10-15T00:00:00",78,78,""],[120,"VECTORSTUDYU1","BW","VECTORSTUDYU1-P0403",120,"BW","Body Weight","2700","g","2700",2700,"g","","","","","","","",78,"2018-10-15T00:00:00",78,78,""],[121,"VECTORSTUDYU1","BW","VECTORSTUDYU1-P0001",121,"BW","Body Weight","2600","g","2600",2600,"g","","","","","","","",85,"2018-10-22T00:00:00",85,85,""],[122,"VECTORSTUDYU1","BW","VECTORSTUDYU1-P0002",122,"BW","Body Weight","2600","g","2600",2600,"g","","","","","","","",85,"2018-10-22T00:00:00",85,85,""],[123,"VECTORSTUDYU1","BW","VECTORSTUDYU1-P0003",123,"BW","Body Weight","3200","g","3200",3200,"g","","","","","","","",85,"2018-10-22T00:00:00",85,85,""],[124,"VECTORSTUDYU1","BW","VECTORSTUDYU1-P0401",124,"BW","Body Weight","3100","g","3100",3100,"g","","","","","","","",85,"2018-10-22T00:00:00",85,85,""],[125,"VECTORSTUDYU1","BW","VECTORSTUDYU1-P0402",125,"BW","Body Weight","3100","g","3100",3100,"g","","","","","","","",85,"2018-10-22T00:00:00",85,85,""],[126,"VECTORSTUDYU1","BW","VECTORSTUDYU1-P0403",126,"BW","Body Weight","2600","g","2600",2600,"g","","","","","","","",85,"2018-10-22T00:00:00",85,85,""],[127,"VECTORSTUDYU1","BW","VECTORSTUDYU1-P0001",127,"BW","Body Weight","2500","g","2500",2500,"g","","","","","","","",92,"2018-10-29T00:00:00",92,92,""],[128,"VECTORSTUDYU1","BW","VECTORSTUDYU1-P0002",128,"BW","Body Weight","2700","g","2700",2700,"g","","","","","","","",92,"2018-10-29T00:00:00",92,92,""],[129,"VECTORSTUDYU1","BW","VECTORSTUDYU1-P0003",129,"BW","Body Weight","3500","g","3500",3500,"g","","","","","","","",92,"2018-10-29T00:00:00",92,92,""],[130,"VECTORSTUDYU1","BW","VECTORSTUDYU1-P0401",130,"BW","Body Weight","3200","g","3200",3200,"g","","","","","","","",92,"2018-10-29T00:00:00",92,92,""],[131,"VECTORSTUDYU1","BW","VECTORSTUDYU1-P0402",131,"BW","Body Weight","3300","g","3300",3300,"g","","","","","","","",92,"2018-10-29T00:00:00",92,92,""],[132,"VECTORSTUDYU1","BW","VECTORSTUDYU1-P0403",132,"BW","Body Weight","2700","g","2700",2700,"g","","","","","","","",92,"2018-10-29T00:00:00",92,92,""],[133,"VECTORSTUDYU1","BW","VECTORSTUDYU1-P0001",133,"BW","Body Weight","2500","g","2500",2500,"g","","","","","","","",99,"2018-11-05T00:00:00",99,99,""],[134,"VECTORSTUDYU1","BW","VECTORSTUDYU1-P0002",134,"BW","Body Weight","2700","g","2700",2700,"g","","","","","","","",99,"2018-11-05T00:00:00",99,99,""],[135,"VECTORSTUDYU1","BW","VECTORSTUDYU1-P0003",135,"BW","Body Weight","3500","g","3500",3500,"g","","","","","","","",99,"2018-11-05T00:00:00",99,99,""],[136,"VECTORSTUDYU1","BW","VECTORSTUDYU1-P0401",136,"BW","Body Weight","3200","g","3200",3200,"g","","","","","","","",99,"2018-11-05T00:00:00",99,99,""],[137,"VECTORSTUDYU1","BW","VECTORSTUDYU1-P0402",137,"BW","Body Weight","3300","g","3300",3300,"g","","","","","","","",99,"2018-11-05T00:00:00",99,99,""],[138,"VECTORSTUDYU1","BW","VECTORSTUDYU1-P0403",138,"BW","Body Weight","2700","g","2700",2700,"g","","","","","","","",99,"2018-11-05T00:00:00",99,99,""],[139,"VECTORSTUDYU1","BW","VECTORSTUDYU1-P0001",139,"BW","Body Weight","2600","g","2600",2600,"g","","","","","","","",106,"2018-11-12T00:00:00",106,106,""],[140,"VECTORSTUDYU1","BW","VECTORSTUDYU1-P0002",140,"BW","Body Weight","2700","g","2700",2700,"g","","","","","","","",106,"2018-11-12T00:00:00",106,106,""],[141,"VECTORSTUDYU1","BW","VECTORSTUDYU1-P0003",141,"BW","Body Weight","3400","g","3400",3400,"g","","","","","","","",106,"2018-11-12T00:00:00",106,106,""],[142,"VECTORSTUDYU1","BW","VECTORSTUDYU1-P0401",142,"BW","Body Weight","3100","g","3100",3100,"g","","","","","","","",106,"2018-11-12T00:00:00",106,106,""],[143,"VECTORSTUDYU1","BW","VECTORSTUDYU1-P0402",143,"BW","Body Weight","3200","g","3200",3200,"g","","","","","","","",106,"2018-11-12T00:00:00",106,106,""],[144,"VECTORSTUDYU1","BW","VECTORSTUDYU1-P0403",144,"BW","Body Weight","2700","g","2700",2700,"g","","","","","","","",106,"2018-11-12T00:00:00",106,106,""],[145,"VECTORSTUDYU1","BW","VECTORSTUDYU1-P0001",145,"BW","Body Weight","2700","g","2700",2700,"g","","","","","","","",113,"2018-11-19T00:00:00",113,113,""],[146,"VECTORSTUDYU1","BW","VECTORSTUDYU1-P0002",146,"BW","Body Weight","2600","g","2600",2600,"g","","","","","","","",113,"2018-11-19T00:00:00",113,113,""],[147,"VECTORSTUDYU1","BW","VECTORSTUDYU1-P0003",147,"BW","Body Weight","3200","g","3200",3200,"g","","","","","","","",113,"2018-11-19T00:00:00",113,113,""],[148,"VECTORSTUDYU1","BW","VECTORSTUDYU1-P0401",148,"BW","Body Weight","3100","g","3100",3100,"g","","","","","","","",113,"2018-11-19T00:00:00",113,113,""],[149,"VECTORSTUDYU1","BW","VECTORSTUDYU1-P0402",149,"BW","Body Weight","3200","g","3200",3200,"g","","","","","","","",113,"2018-11-19T00:00:00",113,113,""],[150,"VECTORSTUDYU1","BW","VECTORSTUDYU1-P0403",150,"BW","Body Weight","2600","g","2600",2600,"g","","","","","","","",113,"2018-11-19T00:00:00",113,113,""],[151,"VECTORSTUDYU1","BW","VECTORSTUDYU1-P0001",151,"BW","Body Weight","2900","g","2900",2900,"g","","","","","","","",120,"2018-11-26T00:00:00",120,120,""],[152,"VECTORSTUDYU1","BW","VECTORSTUDYU1-P0002",152,"BW","Body Weight","2900","g","2900",2900,"g","","","","","","","",120,"2018-11-26T00:00:00",120,120,""],[153,"VECTORSTUDYU1","BW","VECTORSTUDYU1-P0003",153,"BW","Body Weight","3500","g","3500",3500,"g","","","","","","","",120,"2018-11-26T00:00:00",120,120,""],[154,"VECTORSTUDYU1","BW","VECTORSTUDYU1-P0401",154,"BW","Body Weight","3200","g","3200",3200,"g","","","","","","","",120,"2018-11-26T00:00:00",120,120,""],[155,"VECTORSTUDYU1","BW","VECTORSTUDYU1-P0402",155,"BW","Body Weight","3200","g","3200",3200,"g","","","","","","","",120,"2018-11-26T00:00:00",120,120,""],[156,"VECTORSTUDYU1","BW","VECTORSTUDYU1-P0403",156,"BW","Body Weight","2800","g","2800",2800,"g","","","","","","","",120,"2018-11-26T00:00:00",120,120,""],[157,"VECTORSTUDYU1","BW","VECTORSTUDYU1-P0001",157,"BW","Body Weight","2900","g","2900",2900,"g","","","","","","","",127,"2018-12-03T00:00:00",127,127,""],[158,"VECTORSTUDYU1","BW","VECTORSTUDYU1-P0002",158,"BW","Body Weight","2800","g","2800",2800,"g","","","","","","","",127,"2018-12-03T00:00:00",127,127,""],[159,"VECTORSTUDYU1","BW","VECTORSTUDYU1-P0003",159,"BW","Body Weight","3500","g","3500",3500,"g","","","","","","","",127,"2018-12-03T00:00:00",127,127,""],[160,"VECTORSTUDYU1","BW","VECTORSTUDYU1-P0401",160,"BW","Body Weight","3400","g","3400",3400,"g","","","","","","","",127,"2018-12-03T00:00:00",127,127,""],[161,"VECTORSTUDYU1","BW","VECTORSTUDYU1-P0402",161,"BW","Body Weight","3400","g","3400",3400,"g","","","","","","","",127,"2018-12-03T00:00:00",127,127,""],[162,"VECTORSTUDYU1","BW","VECTORSTUDYU1-P0403",162,"BW","Body Weight","3000","g","3000",3000,"g","","","","","","","",127,"2018-12-03T00:00:00",127,127,""],[163,"VECTORSTUDYU1","BW","VECTORSTUDYU1-P0001",163,"BW","Body Weight","3000","g","3000",3000,"g","","","","","","","",134,"2018-12-10T00:00:00",134,134,""],[164,"VECTORSTUDYU1","BW","VECTORSTUDYU1-P0002",164,"BW","Body Weight","2800","g","2800",2800,"g","","","","","","","",134,"2018-12-10T00:00:00",134,134,""],[165,"VECTORSTUDYU1","BW","VECTORSTUDYU1-P0003",165,"BW","Body Weight","3400","g","3400",3400,"g","","","","","","","",134,"2018-12-10T00:00:00",134,134,""],[166,"VECTORSTUDYU1","BW","VECTORSTUDYU1-P0401",166,"BW","Body Weight","3300","g","3300",3300,"g","","","","","","","",134,"2018-12-10T00:00:00",134,134,""],[167,"VECTORSTUDYU1","BW","VECTORSTUDYU1-P0402",167,"BW","Body Weight","3400","g","3400",3400,"g","","","","","","","",134,"2018-12-10T00:00:00",134,134,""],[168,"VECTORSTUDYU1","BW","VECTORSTUDYU1-P0403",168,"BW","Body Weight","2900","g","2900",2900,"g","","","","","","","",134,"2018-12-10T00:00:00",134,134,""],[169,"VECTORSTUDYU1","BW","VECTORSTUDYU1-P0001",169,"BW","Body Weight","2900","g","2900",2900,"g","","","","","","","",141,"2018-12-17T00:00:00",141,141,""],[170,"VECTORSTUDYU1","BW","VECTORSTUDYU1-P0002",170,"BW","Body Weight","3100","g","3100",3100,"g","","","","","","","",141,"2018-12-17T00:00:00",141,141,""],[171,"VECTORSTUDYU1","BW","VECTORSTUDYU1-P0003",171,"BW","Body Weight","3900","g","3900",3900,"g","","","","","","","",141,"2018-12-17T00:00:00",141,141,""],[172,"VECTORSTUDYU1","BW","VECTORSTUDYU1-P0401",172,"BW","Body Weight","3200","g","3200",3200,"g","","","","","","","",141,"2018-12-17T00:00:00",141,141,""],[173,"VECTORSTUDYU1","BW","VECTORSTUDYU1-P0402",173,"BW","Body Weight","3200","g","3200",3200,"g","","","","","","","",141,"2018-12-17T00:00:00",141,141,""],[174,"VECTORSTUDYU1","BW","VECTORSTUDYU1-P0403",174,"BW","Body Weight","2800","g","2800",2800,"g","","","","","","","",141,"2018-12-17T00:00:00",141,141,""],[175,"VECTORSTUDYU1","BW","VECTORSTUDYU1-P0001",175,"BW","Body Weight","3000","g","3000",3000,"g","","","","","","","",148,"2018-12-24T00:00:00",148,148,""],[176,"VECTORSTUDYU1","BW","VECTORSTUDYU1-P0002",176,"BW","Body Weight","2700","g","2700",2700,"g","","","","","","","",148,"2018-12-24T00:00:00",148,148,""],[177,"VECTORSTUDYU1","BW","VECTORSTUDYU1-P0003",177,"BW","Body Weight","3400","g","3400",3400,"g","","","","","","","",148,"2018-12-24T00:00:00",148,148,""],[178,"VECTORSTUDYU1","BW","VECTORSTUDYU1-P0401",178,"BW","Body Weight","3200","g","3200",3200,"g","","","","","","","",148,"2018-12-24T00:00:00",148,148,""],[179,"VECTORSTUDYU1","BW","VECTORSTUDYU1-P0402",179,"BW","Body Weight","3200","g","3200",3200,"g","","","","","","","",148,"2018-12-24T00:00:00",148,148,""],[180,"VECTORSTUDYU1","BW","VECTORSTUDYU1-P0403",180,"BW","Body Weight","2800","g","2800",2800,"g","","","","","","","",148,"2018-12-24T00:00:00",148,148,""],[181,"VECTORSTUDYU1","BW","VECTORSTUDYU1-P0001",181,"BW","Body Weight","2900","g","2900",2900,"g","","","","","","","",155,"2018-12-31T00:00:00",155,155,""],[182,"VECTORSTUDYU1","BW","VECTORSTUDYU1-P0002",182,"BW","Body Weight","2800","g","2800",2800,"g","","","","","","","",155,"2018-12-31T00:00:00",155,155,""],[183,"VECTORSTUDYU1","BW","VECTORSTUDYU1-P0003",183,"BW","Body Weight","3500","g","3500",3500,"g","","","","","","","",155,"2018-12-31T00:00:00",155,155,""],[184,"VECTORSTUDYU1","BW","VECTORSTUDYU1-P0401",184,"BW","Body Weight","3200","g","3200",3200,"g","","","","","","","",155,"2018-12-31T00:00:00",155,155,""],[185,"VECTORSTUDYU1","BW","VECTORSTUDYU1-P0402",185,"BW","Body Weight","3200","g","3200",3200,"g","","","","","","","",155,"2018-12-31T00:00:00",155,155,""],[186,"VECTORSTUDYU1","BW","VECTORSTUDYU1-P0403",186,"BW","Body Weight","2800","g","2800",2800,"g","","","","","","","",155,"2018-12-31T00:00:00",155,155,""],[187,"VECTORSTUDYU1","BW","VECTORSTUDYU1-P0001",187,"BW","Body Weight","2900","g","2900",2900,"g","","","","","","","",162,"2019-01-07T00:00:00",162,162,""],[188,"VECTORSTUDYU1","BW","VECTORSTUDYU1-P0002",188,"BW","Body Weight","2700","g","2700",2700,"g","","","","","","","",162,"2019-01-07T00:00:00",162,162,""],[189,"VECTORSTUDYU1","BW","VECTORSTUDYU1-P0003",189,"BW","Body Weight","3500","g","3500",3500,"g","","","","","","","",162,"2019-01-07T00:00:00",162,162,""],[190,"VECTORSTUDYU1","BW","VECTORSTUDYU1-P0401",190,"BW","Body Weight","3200","g","3200",3200,"g","","","","","","","",162,"2019-01-07T00:00:00",162,162,""],[191,"VECTORSTUDYU1","BW","VECTORSTUDYU1-P0402",191,"BW","Body Weight","3200","g","3200",3200,"g","","","","","","","",162,"2019-01-07T00:00:00",162,162,""],[192,"VECTORSTUDYU1","BW","VECTORSTUDYU1-P0403",192,"BW","Body Weight","2800","g","2800",2800,"g","","","","","","","",162,"2019-01-07T00:00:00",162,162,""],[193,"VECTORSTUDYU1","BW","VECTORSTUDYU1-P0001",193,"TERMBW","Terminal Body Weight","2900","g","2900",2900,"g","","","","","","","",169,"2019-01-14T00:00:00",169,169,""],[194,"VECTORSTUDYU1","BW","VECTORSTUDYU1-P0002",194,"TERMBW","Terminal Body Weight","2600","g","2600",2600,"g","","","","","","","",169,"2019-01-14T00:00:00",169,169,""],[195,"VECTORSTUDYU1","BW","VECTORSTUDYU1-P0003",195,"TERMBW","Terminal Body Weight","3400","g","3400",3400,"g","","","","","","","",169,"2019-01-14T00:00:00",169,169,""],[196,"VECTORSTUDYU1","BW","VECTORSTUDYU1-P0401",196,"TERMBW","Terminal Body Weight","3200","g","3200",3200,"g","","","","","","","",169,"2019-01-14T00:00:00",169,169,""],[197,"VECTORSTUDYU1","BW","VECTORSTUDYU1-P0402",197,"TERMBW","Terminal Body Weight","3000","g","3000",3000,"g","","","","","","","",169,"2019-01-14T00:00:00",169,169,""],[198,"VECTORSTUDYU1","BW","VECTORSTUDYU1-P0403",198,"TERMBW","Terminal Body Weight","2700","g","2700",2700,"g","","","","","","","",169,"2019-01-14T00:00:00",169,169,""]]}}}}