{"creationDateTime":"2023-08-01T10:34:31","datasetJSONVersion":"1.0.0","fileOID":"www.cdisc.org/StudyMSGv2/1/Define-XML_2.0.0/2023-08-01/dm","originator":"CDISC SEND Team","sourceSystem":"Sponsor System","sourceSystemVersion":"1.0","clinicalData":{"studyOID":"VECTORSTUDYU1.SEND-IG.3.1","metaDataVersionOID":"MDV.VECTORSTUDYU1.SEND-IG.3.1","metaDataRef":"https://metadata.location.org/TDF_SEND_SENDIG31/define.xml","itemGroupData":{"IG.DM":{"records":6,"name":"DM","label":"DEMOGRAPHICS","items":[{"OID":"ITEMGROUPDATASEQ","name":"ITEMGROUPDATASEQ","label":"Record Identifier","type":"integer"},{"OID":"IT.DM.STUDYID","name":"STUDYID","label":"Study Identifier","type":"string","length":13,"keySequence":1},{"OID":"IT.DM.DOMAIN","name":"DOMAIN","label":"Domain Abbreviation","type":"string","length":2,"displayFormat":"$2"},{"OID":"IT.DM.USUBJID","name":"USUBJID","label":"Unique Subject Identifier","type":"string","length":19,"keySequence":2},{"OID":"IT.DM.SUBJID","name":"SUBJID","label":"Subject Identifier for the Study","type":"string","length":5},{"OID":"IT.DM.RFSTDTC","name":"RFSTDTC","label":"Subject Reference Start Date/Time","type":"string"},{"OID":"IT.DM.RFENDTC","name":"RFENDTC","label":"Subject Reference End Date/Time","type":"string"},{"OID":"IT.DM.SITEID","name":"SITEID","label":"Study Site Identifier","type":"string","length":1},{"OID":"IT.DM.BRTHDTC","name":"BRTHDTC","label":"Date/Time of Birth","type":"string","length":1},{"OID":"IT.DM.AGE","name":"AGE","label":"Age","type":"integer","length":1},{"OID":"IT.DM.AGETXT","name":"AGETXT","label":"Age Range","type":"string","length":5},{"OID":"IT.DM.AGEU","name":"AGEU","label":"Age Unit","type":"string","length":6},{"OID":"IT.DM.SEX","name":"SEX","label":"Sex","type":"string","length":1},{"OID":"IT.DM.SPECIES","name":"SPECIES","label":"Species","type":"string","length":6},{"OID":"IT.DM.STRAIN","name":"STRAIN","label":"Strain/Substrain","type":"string","length":10},{"OID":"IT.DM.SBSTRAIN","name":"SBSTRAIN","label":"Strain/Substrain Details","type":"string","length":1},{"OID":"IT.DM.ARMCD","name":"ARMCD","label":"Planned Arm Code","type":"string","length":2},{"OID":"IT.DM.ARM","name":"ARM","label":"Description of Planned Arm","type":"string","length":57},{"OID":"IT.DM.SETCD","name":"SETCD","label":"Set Code","type":"string","length":2}],"itemData":[[1,"VECTORSTUDYU1","DM","VECTORSTUDYU1-P0001","P0001","2018-07-30T00:00:00","2019-01-14","","",null,"36-48","MONTHS","M","MONKEY","CYNOMOLGUS","","A1","1E13 vg/kg, Vector A, Single injection, intravenous bolus","S1"],[2,"VECTORSTUDYU1","DM","VECTORSTUDYU1-P0002","P0002","2018-07-30T00:00:00","2019-01-14","","",null,"36-48","MONTHS","M","MONKEY","CYNOMOLGUS","","A1","1E13 vg/kg, Vector A, Single injection, intravenous bolus","S1"],[3,"VECTORSTUDYU1","DM","VECTORSTUDYU1-P0003","P0003","2018-07-30T00:00:00","2019-01-14","","",null,"36-48","MONTHS","M","MONKEY","CYNOMOLGUS","","A1","1E13 vg/kg, Vector A, Single injection, intravenous bolus","S1"],[4,"VECTORSTUDYU1","DM","VECTORSTUDYU1-P0401","P0401","2018-07-30T00:00:00","2019-01-14","","",null,"36-48","MONTHS","M","MONKEY","CYNOMOLGUS","","A2","1E13 vg/kg, Vector B, Single injection, intravenous bolus","S2"],[5,"VECTORSTUDYU1","DM","VECTORSTUDYU1-P0402","P0402","2018-07-30T00:00:00","2019-01-14","","",null,"36-48","MONTHS","M","MONKEY","CYNOMOLGUS","","A2","1E13 vg/kg, Vector B, Single injection, intravenous bolus","S2"],[6,"VECTORSTUDYU1","DM","VECTORSTUDYU1-P0403","P0403","2018-07-30T00:00:00","2019-01-14","","",null,"36-48","MONTHS","M","MONKEY","CYNOMOLGUS","","A2","1E13 vg/kg, Vector B, Single injection, intravenous bolus","S2"]]}}}}