{"creationDateTime":"2023-08-01T10:34:32","datasetJSONVersion":"1.0.0","fileOID":"www.cdisc.org/StudyMSGv2/1/Define-XML_2.0.0/2023-08-01/ds","originator":"CDISC SEND Team","sourceSystem":"Sponsor System","sourceSystemVersion":"1.0","clinicalData":{"studyOID":"VECTORSTUDYU1.SEND-IG.3.1","metaDataVersionOID":"MDV.VECTORSTUDYU1.SEND-IG.3.1","metaDataRef":"https://metadata.location.org/TDF_SEND_SENDIG31/define.xml","itemGroupData":{"IG.DS":{"records":6,"name":"DS","label":"DISPOSITION","items":[{"OID":"ITEMGROUPDATASEQ","name":"ITEMGROUPDATASEQ","label":"Record Identifier","type":"integer"},{"OID":"IT.DS.STUDYID","name":"STUDYID","label":"Study Identifier","type":"string","length":13,"keySequence":1},{"OID":"IT.DS.DOMAIN","name":"DOMAIN","label":"Domain Abbreviation","type":"string","length":2,"displayFormat":"$2"},{"OID":"IT.DS.USUBJID","name":"USUBJID","label":"Unique Subject Identifier","type":"string","length":19,"keySequence":2},{"OID":"IT.DS.DSSEQ","name":"DSSEQ","label":"Sequence Number","type":"integer","length":8},{"OID":"IT.DS.DSTERM","name":"DSTERM","label":"Reported Term for the Disposition Event","type":"string","length":19},{"OID":"IT.DS.DSDECOD","name":"DSDECOD","label":"Standardized Disposition Term","type":"string","length":18},{"OID":"IT.DS.DSUSCHFL","name":"DSUSCHFL","label":"Unscheduled Flag","type":"string","length":1},{"OID":"IT.DS.VISITDY","name":"VISITDY","label":"Planned Study Day of Disposition","type":"integer","length":8},{"OID":"IT.DS.DSSTDTC","name":"DSSTDTC","label":"Date/Time of Disposition","type":"string"},{"OID":"IT.DS.DSSTDY","name":"DSSTDY","label":"Study Day of Disposition","type":"integer","length":8},{"OID":"IT.DS.DSNOMDY","name":"DSNOMDY","label":"Nominal Study Day for Tabulations","type":"integer","length":8},{"OID":"IT.DS.DSNOMLBL","name":"DSNOMLBL","label":"Label for Nominal Study Day","type":"string","length":1}],"itemData":[[1,"VECTORSTUDYU1","DS","VECTORSTUDYU1-P0001",1,"Terminal Euthanasia","TERMINAL SACRIFICE","",169,"2019-01-14T00:00:00",169,169,""],[2,"VECTORSTUDYU1","DS","VECTORSTUDYU1-P0002",2,"Terminal Euthanasia","TERMINAL SACRIFICE","",169,"2019-01-14T00:00:00",169,169,""],[3,"VECTORSTUDYU1","DS","VECTORSTUDYU1-P0003",3,"Terminal Euthanasia","TERMINAL SACRIFICE","",169,"2019-01-14T00:00:00",169,169,""],[4,"VECTORSTUDYU1","DS","VECTORSTUDYU1-P0401",4,"Terminal Euthanasia","TERMINAL SACRIFICE","",169,"2019-01-14T00:00:00",169,169,""],[5,"VECTORSTUDYU1","DS","VECTORSTUDYU1-P0402",5,"Terminal Euthanasia","TERMINAL SACRIFICE","",169,"2019-01-14T00:00:00",169,169,""],[6,"VECTORSTUDYU1","DS","VECTORSTUDYU1-P0403",6,"Terminal Euthanasia","TERMINAL SACRIFICE","",169,"2019-01-14T00:00:00",169,169,""]]}}}}