{"creationDateTime":"2023-08-01T10:34:32","datasetJSONVersion":"1.0.0","fileOID":"www.cdisc.org/StudyMSGv2/1/Define-XML_2.0.0/2023-08-01/ex","originator":"CDISC SEND Team","sourceSystem":"Sponsor System","sourceSystemVersion":"1.0","clinicalData":{"studyOID":"VECTORSTUDYU1.SEND-IG.3.1","metaDataVersionOID":"MDV.VECTORSTUDYU1.SEND-IG.3.1","metaDataRef":"https://metadata.location.org/TDF_SEND_SENDIG31/define.xml","itemGroupData":{"IG.EX":{"records":6,"name":"EX","label":"EXPOSURE","items":[{"OID":"ITEMGROUPDATASEQ","name":"ITEMGROUPDATASEQ","label":"Record Identifier","type":"integer"},{"OID":"IT.EX.STUDYID","name":"STUDYID","label":"Study Identifier","type":"string","length":13,"keySequence":1},{"OID":"IT.EX.DOMAIN","name":"DOMAIN","label":"Domain Abbreviation","type":"string","length":2,"displayFormat":"$2"},{"OID":"IT.EX.USUBJID","name":"USUBJID","label":"Unique Subject Identifier","type":"string","length":19,"keySequence":2},{"OID":"IT.EX.POOLID","name":"POOLID","label":"Pool Identifier","type":"string","length":1,"keySequence":3},{"OID":"IT.EX.FOCID","name":"FOCID","label":"Focus of Study-Specific Interest","type":"string","length":1},{"OID":"IT.EX.EXSEQ","name":"EXSEQ","label":"Sequence Number","type":"integer","length":8},{"OID":"IT.EX.EXTRT","name":"EXTRT","label":"Name of Actual Treatment","type":"string","length":8,"keySequence":4},{"OID":"IT.EX.EXDOSE","name":"EXDOSE","label":"Dose per Administration","type":"integer","length":8},{"OID":"IT.EX.EXDOSTXT","name":"EXDOSTXT","label":"Dose Description","type":"string","length":1},{"OID":"IT.EX.EXDOSU","name":"EXDOSU","label":"Dose Units","type":"string","length":5},{"OID":"IT.EX.EXDOSFRM","name":"EXDOSFRM","label":"Dose Form","type":"string","length":1},{"OID":"IT.EX.EXDOSFRQ","name":"EXDOSFRQ","label":"Dosing Frequency Per Interval","type":"string","length":4},{"OID":"IT.EX.EXROUTE","name":"EXROUTE","label":"Route of Administration","type":"string","length":11},{"OID":"IT.EX.EXLOT","name":"EXLOT","label":"Lot Number","type":"string","length":10},{"OID":"IT.EX.EXLOC","name":"EXLOC","label":"Location of Dose Administration","type":"string","length":1},{"OID":"IT.EX.EXMETHOD","name":"EXMETHOD","label":"Method of Administration","type":"string","length":1},{"OID":"IT.EX.EXTRTV","name":"EXTRTV","label":"Treatment Vehicle","type":"string","length":26},{"OID":"IT.EX.EXVAMT","name":"EXVAMT","label":"Amount Administered","type":"float","length":3},{"OID":"IT.EX.EXVAMTU","name":"EXVAMTU","label":"Amount Administered Units","type":"string","length":2},{"OID":"IT.EX.EXADJ","name":"EXADJ","label":"Reason for Dose Adjustment","type":"string","length":1},{"OID":"IT.EX.EXSTDTC","name":"EXSTDTC","label":"Start Date/Time of Treatment","type":"string","keySequence":5},{"OID":"IT.EX.EXENDTC","name":"EXENDTC","label":"End Date/Time of Treatment","type":"string"},{"OID":"IT.EX.EXSTDY","name":"EXSTDY","label":"Study Day of Start of Treatment","type":"integer","length":8},{"OID":"IT.EX.EXENDY","name":"EXENDY","label":"Study Day of End of Treatment","type":"integer","length":8},{"OID":"IT.EX.EXDUR","name":"EXDUR","label":"Duration of Treatment","type":"string"},{"OID":"IT.EX.EXTPT","name":"EXTPT","label":"Planned Time Point Name","type":"string","length":1},{"OID":"IT.EX.EXTPTNUM","name":"EXTPTNUM","label":"Planned Time Point Number","type":"integer","length":8},{"OID":"IT.EX.EXELTM","name":"EXELTM","label":"Planned Elapsed Time from Time Point Ref","type":"string"},{"OID":"IT.EX.EXTPTREF","name":"EXTPTREF","label":"Time Point Reference","type":"string","length":1},{"OID":"IT.EX.EXRFTDTC","name":"EXRFTDTC","label":"Date/Time of Reference Time Point","type":"string"}],"itemData":[[1,"VECTORSTUDYU1","EX","VECTORSTUDYU1-P0001","","",1,"Vector A",1.024,"","10^13 vg/kg","","ONCE","INTRAVENOUS","VectorLotA","","","PBS + 0.001% Pluronic F-68",2.32,"mL","","2018-07-30T00:00:00","",1,null,"","",null,"","",""],[2,"VECTORSTUDYU1","EX","VECTORSTUDYU1-P0002","","",2,"Vector A",1.024,"","10^13 vg/kg","","ONCE","INTRAVENOUS","VectorLotA","","","PBS + 0.001% Pluronic F-68",2.08,"mL","","2018-07-30T00:00:00","",1,null,"","",null,"","",""],[3,"VECTORSTUDYU1","EX","VECTORSTUDYU1-P0003","","",3,"Vector A",1.024,"","10^13 vg/kg","","ONCE","INTRAVENOUS","VectorLotA","","","PBS + 0.001% Pluronic F-68",2.4,"mL","","2018-07-30T00:00:00","",1,null,"","",null,"","",""],[4,"VECTORSTUDYU1","EX","VECTORSTUDYU1-P0401","","",4,"Vector B",1.024,"","10^13 vg/kg","","ONCE","INTRAVENOUS","VectorLotB","","","PBS + 0.001% Pluronic F-68",2.24,"mL","","2018-07-30T00:00:00","",1,null,"","",null,"","",""],[5,"VECTORSTUDYU1","EX","VECTORSTUDYU1-P0403","","",5,"Vector B",1.024,"","10^13 vg/kg","","ONCE","INTRAVENOUS","VectorLotB","","","PBS + 0.001% Pluronic F-68",2.32,"mL","","2018-07-30T00:00:00","",1,null,"","",null,"","",""],[6,"VECTORSTUDYU1","EX","VECTORSTUDYU1-P0403","","",6,"Vector B",1.024,"","10^13 vg/kg","","ONCE","INTRAVENOUS","VectorLotB","","","PBS + 0.001% Pluronic F-68",2.08,"mL","","2018-07-30T00:00:00","",1,null,"","",null,"","",""]]}}}}