{"creationDateTime":"2023-08-01T10:34:32","datasetJSONVersion":"1.0.0","fileOID":"www.cdisc.org/StudyMSGv2/1/Define-XML_2.0.0/2023-08-01/is","originator":"CDISC SEND Team","sourceSystem":"Sponsor System","sourceSystemVersion":"1.0","clinicalData":{"studyOID":"VECTORSTUDYU1.SEND-IG.3.1","metaDataVersionOID":"MDV.VECTORSTUDYU1.SEND-IG.3.1","metaDataRef":"https://metadata.location.org/TDF_SEND_SENDIG31/define.xml","itemGroupData":{"IG.IS":{"records":60,"name":"IS","label":"IMMUNOGENICITY SPECIMENT ASSESSMENTS","items":[{"OID":"ITEMGROUPDATASEQ","name":"ITEMGROUPDATASEQ","label":"Record Identifier","type":"integer"},{"OID":"IT.IS.STUDYID","name":"STUDYID","label":"Study Identifier","type":"string","length":13,"keySequence":1},{"OID":"IT.IS.DOMAIN","name":"DOMAIN","label":"Domain Abbreviation","type":"string","length":2,"displayFormat":"$2"},{"OID":"IT.IS.USUBJID","name":"USUBJID","label":"Unique Subject Identifier","type":"string","length":19,"keySequence":2},{"OID":"IT.IS.POOLID","name":"POOLID","label":"Pool Identifier","type":"string","length":1},{"OID":"IT.IS.ISSEQ","name":"ISSEQ","label":"Sequence Number","type":"integer","length":8},{"OID":"IT.IS.ISGRPID","name":"ISGRPID","label":"Group Identifier","type":"string","length":1},{"OID":"IT.IS.ISREFID","name":"ISREFID","label":"Specimen Identifier","type":"string","length":1},{"OID":"IT.IS.ISSPID","name":"ISSPID","label":"Sponsor-Defined Identifier","type":"string","length":1},{"OID":"IT.IS.ISTESTCD","name":"ISTESTCD","label":"Immunogencity Test/Exam Short Name","type":"string","length":7,"keySequence":3},{"OID":"IT.IS.ISTEST","name":"ISTEST","label":"Immunogencity Test or Examination Name","type":"string","length":38},{"OID":"IT.IS.ISCAT","name":"ISCAT","label":"Category for Immunogencity Test","type":"string","length":19},{"OID":"IT.IS.ISSCAT","name":"ISSCAT","label":"Subcategory for Immunogencity Test","type":"string","length":37},{"OID":"IT.IS.ISORRES","name":"ISORRES","label":"Result or Findings as Collected","type":"string","length":3},{"OID":"IT.IS.ISORRESU","name":"ISORRESU","label":"Unit of the Original Result","type":"string","length":5},{"OID":"IT.IS.ISORNRLO","name":"ISORNRLO","label":"Reference Range Lower Limit-Orig Unit","type":"string","length":1},{"OID":"IT.IS.ISORNRHI","name":"ISORNRHI","label":"Reference Range Upper Limit-Orig Unit","type":"string","length":1},{"OID":"IT.IS.ISSTRESC","name":"ISSTRESC","label":"Standardized Result in Character Format","type":"string","length":3},{"OID":"IT.IS.ISSTRESN","name":"ISSTRESN","label":"Standardized Result in Numeric Format","type":"integer","length":8},{"OID":"IT.IS.ISSTRESU","name":"ISSTRESU","label":"Unit of the Standardized Result","type":"string","length":5},{"OID":"IT.IS.ISSTNRLO","name":"ISSTNRLO","label":"Reference Range Lower Limit-Std Unit","type":"integer","length":8},{"OID":"IT.IS.ISSTNRHI","name":"ISSTNRHI","label":"Reference Range Upper Limit-Std Unit","type":"integer","length":8},{"OID":"IT.IS.ISSTNRC","name":"ISSTNRC","label":"Reference Range for Char Rslt-Std Unit","type":"string","length":1},{"OID":"IT.IS.ISNRIND","name":"ISNRIND","label":"Reference Range Indicator","type":"string","length":1},{"OID":"IT.IS.ISSTAT","name":"ISSTAT","label":"Completion Status","type":"string","length":1},{"OID":"IT.IS.ISREASND","name":"ISREASND","label":"Reason Not Done","type":"string","length":1},{"OID":"IT.IS.ISNAM","name":"ISNAM","label":"Laboratory Name","type":"string","length":1},{"OID":"IT.IS.ISSPEC","name":"ISSPEC","label":"Specimen Material Type","type":"string","length":5},{"OID":"IT.IS.ISANTREG","name":"ISANTREG","label":"Anatomical Region of Specimen","type":"string","length":1},{"OID":"IT.IS.ISSPCCND","name":"ISSPCCND","label":"Specimen Condition","type":"string","length":1},{"OID":"IT.IS.ISSPCUFL","name":"ISSPCUFL","label":"Specimen Usability for the Test","type":"string","length":1},{"OID":"IT.IS.ISLOC","name":"ISLOC","label":"Specimen Collection Location","type":"string","length":1},{"OID":"IT.IS.ISLAT","name":"ISLAT","label":"Specimen Laterality within Subject","type":"string","length":1},{"OID":"IT.IS.ISDIR","name":"ISDIR","label":"Specimen Directionality within Subject","type":"string","length":1},{"OID":"IT.IS.ISPORTOT","name":"ISPORTOT","label":"Portion or Totality","type":"string","length":1},{"OID":"IT.IS.ISMETHOD","name":"ISMETHOD","label":"Method of Test or Examination","type":"string","length":14},{"OID":"IT.IS.ISLOBXFL","name":"ISLOBXFL","label":"Last Observation Before Exposure Flag","type":"string","length":1},{"OID":"IT.IS.ISBLFL","name":"ISBLFL","label":"Baseline Flag","type":"string","length":1},{"OID":"IT.IS.ISLLOQ","name":"ISLLOQ","label":"Lower Limit of Quantitation","type":"integer","length":8},{"OID":"IT.IS.ISFAST","name":"ISFAST","label":"Fasting Status","type":"string","length":1},{"OID":"IT.IS.ISDRVFL","name":"ISDRVFL","label":"Derived Flag","type":"string","length":1},{"OID":"IT.IS.ISTOX","name":"ISTOX","label":"Toxicity","type":"string","length":1},{"OID":"IT.IS.ISTOXGR","name":"ISTOXGR","label":"Standard Toxicity Grade","type":"string","length":1},{"OID":"IT.IS.ISEXCLFL","name":"ISEXCLFL","label":"Exclusion Flag","type":"string","length":1},{"OID":"IT.IS.ISREASEX","name":"ISREASEX","label":"Reason for Exclusion","type":"string","length":1},{"OID":"IT.IS.ISUSCHFL","name":"ISUSCHFL","label":"Unscheduled Flag","type":"string","length":1},{"OID":"IT.IS.VISITDY","name":"VISITDY","label":"Planned Study Day of Collection","type":"integer","length":8},{"OID":"IT.IS.ISDTC","name":"ISDTC","label":"Date/Time of Specimen Collection","type":"string","keySequence":4},{"OID":"IT.IS.ISENDTC","name":"ISENDTC","label":"End Date/Time of Specimen Collection","type":"string","length":1},{"OID":"IT.IS.ISDY","name":"ISDY","label":"Study Day of Specimen Collection","type":"integer","length":8},{"OID":"IT.IS.ISENDY","name":"ISENDY","label":"Study Day of End of Specimen Collection","type":"integer","length":8},{"OID":"IT.IS.ISNOMDY","name":"ISNOMDY","label":"Nominal Study Day for Tabulations","type":"integer","length":8},{"OID":"IT.IS.ISNOMLBL","name":"ISNOMLBL","label":"Label for Nominal Study Day","type":"string","length":1},{"OID":"IT.IS.ISTPT","name":"ISTPT","label":"Planned Time Point Name","type":"string","length":1},{"OID":"IT.IS.ISTPTNUM","name":"ISTPTNUM","label":"Planned Time Point Number","type":"integer","length":8,"keySequence":5},{"OID":"IT.IS.ISELTM","name":"ISELTM","label":"Planned Elapsed Time from Time Point Ref","type":"string","length":1},{"OID":"IT.IS.ISTPTREF","name":"ISTPTREF","label":"Time Point Reference","type":"string","length":1,"keySequence":6},{"OID":"IT.IS.ISRFTDTC","name":"ISRFTDTC","label":"Date/Time of Reference Time Point","type":"string","length":1}],"itemData":[[1,"VECTORSTUDYU1","IS","VECTORSTUDYU1-P0001","",1,"","","","ADA_NAB","Neutralizing Binding Antidrug Antibody","Antidrug antibodies","Capsid Neutrualizing Binding Antibody","10","titer","","","10",10,"titer",null,null,"","","","","","SERUM","","","","","","","","Reporter Assay","","",5,"","","","","","","",1,"2018-07-30","",1,null,1,"","",null,"","",""],[2,"VECTORSTUDYU1","IS","VECTORSTUDYU1-P0002","",2,"","","","ADA_NAB","Neutralizing Binding Antidrug Antibody","Antidrug antibodies","Capsid Neutrualizing Binding Antibody","<5","titer","","","BLQ",null,"titer",null,null,"","","","","","SERUM","","","","","","","","Reporter Assay","","",5,"","","","","","","",1,"2018-07-30","",1,null,1,"","",null,"","",""],[3,"VECTORSTUDYU1","IS","VECTORSTUDYU1-P0003","",3,"","","","ADA_NAB","Neutralizing Binding Antidrug Antibody","Antidrug antibodies","Capsid Neutrualizing Binding Antibody","10","titer","","","10",10,"titer",null,null,"","","","","","SERUM","","","","","","","","Reporter Assay","","",5,"","","","","","","",1,"2018-07-30","",1,null,1,"","",null,"","",""],[4,"VECTORSTUDYU1","IS","VECTORSTUDYU1-P0001","",4,"","","","ADA_NAB","Neutralizing Binding Antidrug Antibody","Antidrug antibodies","Capsid Neutrualizing Binding Antibody","320","titer","","","320",320,"titer",null,null,"","","","","","SERUM","","","","","","","","Reporter Assay","","",5,"","","","","","","",15,"2018-08-13","",15,null,15,"","",null,"","",""],[5,"VECTORSTUDYU1","IS","VECTORSTUDYU1-P0002","",5,"","","","ADA_NAB","Neutralizing Binding Antidrug Antibody","Antidrug antibodies","Capsid Neutrualizing Binding Antibody","40","titer","","","40",40,"titer",null,null,"","","","","","SERUM","","","","","","","","Reporter Assay","","",5,"","","","","","","",15,"2018-08-13","",15,null,15,"","",null,"","",""],[6,"VECTORSTUDYU1","IS","VECTORSTUDYU1-P0003","",6,"","","","ADA_NAB","Neutralizing Binding Antidrug Antibody","Antidrug antibodies","Capsid Neutrualizing Binding Antibody","160","titer","","","160",160,"titer",null,null,"","","","","","SERUM","","","","","","","","Reporter Assay","","",5,"","","","","","","",15,"2018-08-13","",15,null,15,"","",null,"","",""],[7,"VECTORSTUDYU1","IS","VECTORSTUDYU1-P0001","",7,"","","","ADA_NAB","Neutralizing Binding Antidrug Antibody","Antidrug antibodies","Capsid Neutrualizing Binding Antibody","80","titer","","","80",80,"titer",null,null,"","","","","","SERUM","","","","","","","","Reporter Assay","","",5,"","","","","","","",29,"2018-08-27","",29,null,29,"","",null,"","",""],[8,"VECTORSTUDYU1","IS","VECTORSTUDYU1-P0002","",8,"","","","ADA_NAB","Neutralizing Binding Antidrug Antibody","Antidrug antibodies","Capsid Neutrualizing Binding Antibody","20","titer","","","20",20,"titer",null,null,"","","","","","SERUM","","","","","","","","Reporter Assay","","",5,"","","","","","","",29,"2018-08-27","",29,null,29,"","",null,"","",""],[9,"VECTORSTUDYU1","IS","VECTORSTUDYU1-P0003","",9,"","","","ADA_NAB","Neutralizing Binding Antidrug Antibody","Antidrug antibodies","Capsid Neutrualizing Binding Antibody","40","titer","","","40",40,"titer",null,null,"","","","","","SERUM","","","","","","","","Reporter Assay","","",5,"","","","","","","",29,"2018-08-27","",29,null,29,"","",null,"","",""],[10,"VECTORSTUDYU1","IS","VECTORSTUDYU1-P0001","",10,"","","","ADA_NAB","Neutralizing Binding Antidrug Antibody","Antidrug antibodies","Capsid Neutrualizing Binding Antibody","160","titer","","","160",160,"titer",null,null,"","","","","","SERUM","","","","","","","","Reporter Assay","","",5,"","","","","","","",43,"2018-09-10","",43,null,43,"","",null,"","",""],[11,"VECTORSTUDYU1","IS","VECTORSTUDYU1-P0002","",11,"","","","ADA_NAB","Neutralizing Binding Antidrug Antibody","Antidrug antibodies","Capsid Neutrualizing Binding Antibody","40","titer","","","40",40,"titer",null,null,"","","","","","SERUM","","","","","","","","Reporter Assay","","",5,"","","","","","","",43,"2018-09-10","",43,null,43,"","",null,"","",""],[12,"VECTORSTUDYU1","IS","VECTORSTUDYU1-P0003","",12,"","","","ADA_NAB","Neutralizing Binding Antidrug Antibody","Antidrug antibodies","Capsid Neutrualizing Binding Antibody","10","titer","","","10",10,"titer",null,null,"","","","","","SERUM","","","","","","","","Reporter Assay","","",5,"","","","","","","",43,"2018-09-10","",43,null,43,"","",null,"","",""],[13,"VECTORSTUDYU1","IS","VECTORSTUDYU1-P0001","",13,"","","","ADA_NAB","Neutralizing Binding Antidrug Antibody","Antidrug antibodies","Capsid Neutrualizing Binding Antibody","80","titer","","","80",80,"titer",null,null,"","","","","","SERUM","","","","","","","","Reporter Assay","","",5,"","","","","","","",57,"2018-09-24","",57,null,57,"","",null,"","",""],[14,"VECTORSTUDYU1","IS","VECTORSTUDYU1-P0002","",14,"","","","ADA_NAB","Neutralizing Binding Antidrug Antibody","Antidrug antibodies","Capsid Neutrualizing Binding Antibody","160","titer","","","160",160,"titer",null,null,"","","","","","SERUM","","","","","","","","Reporter Assay","","",5,"","","","","","","",57,"2018-09-24","",57,null,57,"","",null,"","",""],[15,"VECTORSTUDYU1","IS","VECTORSTUDYU1-P0003","",15,"","","","ADA_NAB","Neutralizing Binding Antidrug Antibody","Antidrug antibodies","Capsid Neutrualizing Binding Antibody","5","titer","","","5",5,"titer",null,null,"","","","","","SERUM","","","","","","","","Reporter Assay","","",5,"","","","","","","",57,"2018-09-24","",57,null,57,"","",null,"","",""],[16,"VECTORSTUDYU1","IS","VECTORSTUDYU1-P0001","",16,"","","","ADA_NAB","Neutralizing Binding Antidrug Antibody","Antidrug antibodies","Capsid Neutrualizing Binding Antibody","80","titer","","","80",80,"titer",null,null,"","","","","","SERUM","","","","","","","","Reporter Assay","","",5,"","","","","","","",71,"2018-10-08","",71,null,71,"","",null,"","",""],[17,"VECTORSTUDYU1","IS","VECTORSTUDYU1-P0002","",17,"","","","ADA_NAB","Neutralizing Binding Antidrug Antibody","Antidrug antibodies","Capsid Neutrualizing Binding Antibody","160","titer","","","160",160,"titer",null,null,"","","","","","SERUM","","","","","","","","Reporter Assay","","",5,"","","","","","","",71,"2018-10-08","",71,null,71,"","",null,"","",""],[18,"VECTORSTUDYU1","IS","VECTORSTUDYU1-P0003","",18,"","","","ADA_NAB","Neutralizing Binding Antidrug Antibody","Antidrug antibodies","Capsid Neutrualizing Binding Antibody","<5","titer","","","BLQ",null,"titer",null,null,"","","","","","SERUM","","","","","","","","Reporter Assay","","",5,"","","","","","","",71,"2018-10-08","",71,null,71,"","",null,"","",""],[19,"VECTORSTUDYU1","IS","VECTORSTUDYU1-P0001","",19,"","","","ADA_NAB","Neutralizing Binding Antidrug Antibody","Antidrug antibodies","Capsid Neutrualizing Binding Antibody","160","titer","","","160",160,"titer",null,null,"","","","","","SERUM","","","","","","","","Reporter Assay","","",5,"","","","","","","",85,"2018-10-22","",85,null,85,"","",null,"","",""],[20,"VECTORSTUDYU1","IS","VECTORSTUDYU1-P0002","",20,"","","","ADA_NAB","Neutralizing Binding Antidrug Antibody","Antidrug antibodies","Capsid Neutrualizing Binding Antibody","320","titer","","","320",320,"titer",null,null,"","","","","","SERUM","","","","","","","","Reporter Assay","","",5,"","","","","","","",85,"2018-10-22","",85,null,85,"","",null,"","",""],[21,"VECTORSTUDYU1","IS","VECTORSTUDYU1-P0003","",21,"","","","ADA_NAB","Neutralizing Binding Antidrug Antibody","Antidrug antibodies","Capsid Neutrualizing Binding Antibody","5","titer","","","5",5,"titer",null,null,"","","","","","SERUM","","","","","","","","Reporter Assay","","",5,"","","","","","","",85,"2018-10-22","",85,null,85,"","",null,"","",""],[22,"VECTORSTUDYU1","IS","VECTORSTUDYU1-P0001","",22,"","","","ADA_NAB","Neutralizing Binding Antidrug Antibody","Antidrug antibodies","Capsid Neutrualizing Binding Antibody","80","titer","","","80",80,"titer",null,null,"","","","","","SERUM","","","","","","","","Reporter Assay","","",5,"","","","","","","",113,"2018-11-19","",113,null,113,"","",null,"","",""],[23,"VECTORSTUDYU1","IS","VECTORSTUDYU1-P0002","",23,"","","","ADA_NAB","Neutralizing Binding Antidrug Antibody","Antidrug antibodies","Capsid Neutrualizing Binding Antibody","160","titer","","","160",160,"titer",null,null,"","","","","","SERUM","","","","","","","","Reporter Assay","","",5,"","","","","","","",113,"2018-11-19","",113,null,113,"","",null,"","",""],[24,"VECTORSTUDYU1","IS","VECTORSTUDYU1-P0003","",24,"","","","ADA_NAB","Neutralizing Binding Antidrug Antibody","Antidrug antibodies","Capsid Neutrualizing Binding Antibody","<5","titer","","","BLQ",null,"titer",null,null,"","","","","","SERUM","","","","","","","","Reporter Assay","","",5,"","","","","","","",113,"2018-11-19","",113,null,113,"","",null,"","",""],[25,"VECTORSTUDYU1","IS","VECTORSTUDYU1-P0001","",25,"","","","ADA_NAB","Neutralizing Binding Antidrug Antibody","Antidrug antibodies","Capsid Neutrualizing Binding Antibody","80","titer","","","80",80,"titer",null,null,"","","","","","SERUM","","","","","","","","Reporter Assay","","",5,"","","","","","","",141,"2018-12-17","",141,null,141,"","",null,"","",""],[26,"VECTORSTUDYU1","IS","VECTORSTUDYU1-P0002","",26,"","","","ADA_NAB","Neutralizing Binding Antidrug Antibody","Antidrug antibodies","Capsid Neutrualizing Binding Antibody","160","titer","","","160",160,"titer",null,null,"","","","","","SERUM","","","","","","","","Reporter Assay","","",5,"","","","","","","",141,"2018-12-17","",141,null,141,"","",null,"","",""],[27,"VECTORSTUDYU1","IS","VECTORSTUDYU1-P0003","",27,"","","","ADA_NAB","Neutralizing Binding Antidrug Antibody","Antidrug antibodies","Capsid Neutrualizing Binding Antibody","<5","titer","","","BLQ",null,"titer",null,null,"","","","","","SERUM","","","","","","","","Reporter Assay","","",5,"","","","","","","",141,"2018-12-17","",141,null,141,"","",null,"","",""],[28,"VECTORSTUDYU1","IS","VECTORSTUDYU1-P0001","",28,"","","","ADA_NAB","Neutralizing Binding Antidrug Antibody","Antidrug antibodies","Capsid Neutrualizing Binding Antibody","80","titer","","","80",80,"titer",null,null,"","","","","","SERUM","","","","","","","","Reporter Assay","","",5,"","","","","","","",169,"2019-01-14","",169,null,169,"","",null,"","",""],[29,"VECTORSTUDYU1","IS","VECTORSTUDYU1-P0002","",29,"","","","ADA_NAB","Neutralizing Binding Antidrug Antibody","Antidrug antibodies","Capsid Neutrualizing Binding Antibody","160","titer","","","160",160,"titer",null,null,"","","","","","SERUM","","","","","","","","Reporter Assay","","",5,"","","","","","","",169,"2019-01-14","",169,null,169,"","",null,"","",""],[30,"VECTORSTUDYU1","IS","VECTORSTUDYU1-P0003","",30,"","","","ADA_NAB","Neutralizing Binding Antidrug Antibody","Antidrug antibodies","Capsid Neutrualizing Binding Antibody","<5","titer","","","BLQ",null,"titer",null,null,"","","","","","SERUM","","","","","","","","Reporter Assay","","",5,"","","","","","","",169,"2019-01-14","",169,null,169,"","",null,"","",""],[31,"VECTORSTUDYU1","IS","VECTORSTUDYU1-P0401","",31,"","","","ADA_NAB","Neutralizing Binding Antidrug Antibody","Antidrug antibodies","Capsid Neutrualizing Binding Antibody","<5","titer","","","BLQ",null,"titer",null,null,"","","","","","SERUM","","","","","","","","Reporter Assay","","",5,"","","","","","","",1,"2018-07-30","",1,null,1,"","",null,"","",""],[32,"VECTORSTUDYU1","IS","VECTORSTUDYU1-P0402","",32,"","","","ADA_NAB","Neutralizing Binding Antidrug Antibody","Antidrug antibodies","Capsid Neutrualizing Binding Antibody","<5","titer","","","BLQ",null,"titer",null,null,"","","","","","SERUM","","","","","","","","Reporter Assay","","",5,"","","","","","","",1,"2018-07-30","",1,null,1,"","",null,"","",""],[33,"VECTORSTUDYU1","IS","VECTORSTUDYU1-P0403","",33,"","","","ADA_NAB","Neutralizing Binding Antidrug Antibody","Antidrug antibodies","Capsid Neutrualizing Binding Antibody","<5","titer","","","BLQ",null,"titer",null,null,"","","","","","SERUM","","","","","","","","Reporter Assay","","",5,"","","","","","","",1,"2018-07-30","",1,null,1,"","",null,"","",""],[34,"VECTORSTUDYU1","IS","VECTORSTUDYU1-P0401","",34,"","","","ADA_NAB","Neutralizing Binding Antidrug Antibody","Antidrug antibodies","Capsid Neutrualizing Binding Antibody","320","titer","","","320",320,"titer",null,null,"","","","","","SERUM","","","","","","","","Reporter Assay","","",5,"","","","","","","",15,"2018-08-13","",15,null,15,"","",null,"","",""],[35,"VECTORSTUDYU1","IS","VECTORSTUDYU1-P0402","",35,"","","","ADA_NAB","Neutralizing Binding Antidrug Antibody","Antidrug antibodies","Capsid Neutrualizing Binding Antibody","40","titer","","","40",40,"titer",null,null,"","","","","","SERUM","","","","","","","","Reporter Assay","","",5,"","","","","","","",15,"2018-08-13","",15,null,15,"","",null,"","",""],[36,"VECTORSTUDYU1","IS","VECTORSTUDYU1-P0403","",36,"","","","ADA_NAB","Neutralizing Binding Antidrug Antibody","Antidrug antibodies","Capsid Neutrualizing Binding Antibody","160","titer","","","160",160,"titer",null,null,"","","","","","SERUM","","","","","","","","Reporter Assay","","",5,"","","","","","","",15,"2018-08-13","",15,null,15,"","",null,"","",""],[37,"VECTORSTUDYU1","IS","VECTORSTUDYU1-P0401","",37,"","","","ADA_NAB","Neutralizing Binding Antidrug Antibody","Antidrug antibodies","Capsid Neutrualizing Binding Antibody","80","titer","","","80",80,"titer",null,null,"","","","","","SERUM","","","","","","","","Reporter Assay","","",5,"","","","","","","",29,"2018-08-27","",29,null,29,"","",null,"","",""],[38,"VECTORSTUDYU1","IS","VECTORSTUDYU1-P0402","",38,"","","","ADA_NAB","Neutralizing Binding Antidrug Antibody","Antidrug antibodies","Capsid Neutrualizing Binding Antibody","20","titer","","","20",20,"titer",null,null,"","","","","","SERUM","","","","","","","","Reporter Assay","","",5,"","","","","","","",29,"2018-08-27","",29,null,29,"","",null,"","",""],[39,"VECTORSTUDYU1","IS","VECTORSTUDYU1-P0403","",39,"","","","ADA_NAB","Neutralizing Binding Antidrug Antibody","Antidrug antibodies","Capsid Neutrualizing Binding Antibody","40","titer","","","40",40,"titer",null,null,"","","","","","SERUM","","","","","","","","Reporter Assay","","",5,"","","","","","","",29,"2018-08-27","",29,null,29,"","",null,"","",""],[40,"VECTORSTUDYU1","IS","VECTORSTUDYU1-P0401","",40,"","","","ADA_NAB","Neutralizing Binding Antidrug Antibody","Antidrug antibodies","Capsid Neutrualizing Binding Antibody","160","titer","","","160",160,"titer",null,null,"","","","","","SERUM","","","","","","","","Reporter Assay","","",5,"","","","","","","",43,"2018-09-10","",43,null,43,"","",null,"","",""],[41,"VECTORSTUDYU1","IS","VECTORSTUDYU1-P0402","",41,"","","","ADA_NAB","Neutralizing Binding Antidrug Antibody","Antidrug antibodies","Capsid Neutrualizing Binding Antibody","5","titer","","","5",5,"titer",null,null,"","","","","","SERUM","","","","","","","","Reporter Assay","","",5,"","","","","","","",43,"2018-09-10","",43,null,43,"","",null,"","",""],[42,"VECTORSTUDYU1","IS","VECTORSTUDYU1-P0403","",42,"","","","ADA_NAB","Neutralizing Binding Antidrug Antibody","Antidrug antibodies","Capsid Neutrualizing Binding Antibody","80","titer","","","80",80,"titer",null,null,"","","","","","SERUM","","","","","","","","Reporter Assay","","",5,"","","","","","","",43,"2018-09-10","",43,null,43,"","",null,"","",""],[43,"VECTORSTUDYU1","IS","VECTORSTUDYU1-P0401","",43,"","","","ADA_NAB","Neutralizing Binding Antidrug Antibody","Antidrug antibodies","Capsid Neutrualizing Binding Antibody","160","titer","","","160",160,"titer",null,null,"","","","","","SERUM","","","","","","","","Reporter Assay","","",5,"","","","","","","",57,"2018-09-24","",57,null,57,"","",null,"","",""],[44,"VECTORSTUDYU1","IS","VECTORSTUDYU1-P0402","",44,"","","","ADA_NAB","Neutralizing Binding Antidrug Antibody","Antidrug antibodies","Capsid Neutrualizing Binding Antibody","5","titer","","","5",5,"titer",null,null,"","","","","","SERUM","","","","","","","","Reporter Assay","","",5,"","","","","","","",57,"2018-09-24","",57,null,57,"","",null,"","",""],[45,"VECTORSTUDYU1","IS","VECTORSTUDYU1-P0403","",45,"","","","ADA_NAB","Neutralizing Binding Antidrug Antibody","Antidrug antibodies","Capsid Neutrualizing Binding Antibody","40","titer","","","40",40,"titer",null,null,"","","","","","SERUM","","","","","","","","Reporter Assay","","",5,"","","","","","","",57,"2018-09-24","",57,null,57,"","",null,"","",""],[46,"VECTORSTUDYU1","IS","VECTORSTUDYU1-P0401","",46,"","","","ADA_NAB","Neutralizing Binding Antidrug Antibody","Antidrug antibodies","Capsid Neutrualizing Binding Antibody","160","titer","","","160",160,"titer",null,null,"","","","","","SERUM","","","","","","","","Reporter Assay","","",5,"","","","","","","",71,"2018-10-08","",71,null,71,"","",null,"","",""],[47,"VECTORSTUDYU1","IS","VECTORSTUDYU1-P0402","",47,"","","","ADA_NAB","Neutralizing Binding Antidrug Antibody","Antidrug antibodies","Capsid Neutrualizing Binding Antibody","5","titer","","","5",5,"titer",null,null,"","","","","","SERUM","","","","","","","","Reporter Assay","","",5,"","","","","","","",71,"2018-10-08","",71,null,71,"","",null,"","",""],[48,"VECTORSTUDYU1","IS","VECTORSTUDYU1-P0403","",48,"","","","ADA_NAB","Neutralizing Binding Antidrug Antibody","Antidrug antibodies","Capsid Neutrualizing Binding Antibody","20","titer","","","20",20,"titer",null,null,"","","","","","SERUM","","","","","","","","Reporter Assay","","",5,"","","","","","","",71,"2018-10-08","",71,null,71,"","",null,"","",""],[49,"VECTORSTUDYU1","IS","VECTORSTUDYU1-P0401","",49,"","","","ADA_NAB","Neutralizing Binding Antidrug Antibody","Antidrug antibodies","Capsid Neutrualizing Binding Antibody","160","titer","","","160",160,"titer",null,null,"","","","","","SERUM","","","","","","","","Reporter Assay","","",5,"","","","","","","",85,"2018-10-22","",85,null,85,"","",null,"","",""],[50,"VECTORSTUDYU1","IS","VECTORSTUDYU1-P0402","",50,"","","","ADA_NAB","Neutralizing Binding Antidrug Antibody","Antidrug antibodies","Capsid Neutrualizing Binding Antibody","10","titer","","","10",10,"titer",null,null,"","","","","","SERUM","","","","","","","","Reporter Assay","","",5,"","","","","","","",85,"2018-10-22","",85,null,85,"","",null,"","",""],[51,"VECTORSTUDYU1","IS","VECTORSTUDYU1-P0403","",51,"","","","ADA_NAB","Neutralizing Binding Antidrug Antibody","Antidrug antibodies","Capsid Neutrualizing Binding Antibody","10","titer","","","10",10,"titer",null,null,"","","","","","SERUM","","","","","","","","Reporter Assay","","",5,"","","","","","","",85,"2018-10-22","",85,null,85,"","",null,"","",""],[52,"VECTORSTUDYU1","IS","VECTORSTUDYU1-P0401","",52,"","","","ADA_NAB","Neutralizing Binding Antidrug Antibody","Antidrug antibodies","Capsid Neutrualizing Binding Antibody","160","titer","","","160",160,"titer",null,null,"","","","","","SERUM","","","","","","","","Reporter Assay","","",5,"","","","","","","",113,"2018-11-19","",113,null,113,"","",null,"","",""],[53,"VECTORSTUDYU1","IS","VECTORSTUDYU1-P0402","",53,"","","","ADA_NAB","Neutralizing Binding Antidrug Antibody","Antidrug antibodies","Capsid Neutrualizing Binding Antibody","5","titer","","","5",5,"titer",null,null,"","","","","","SERUM","","","","","","","","Reporter Assay","","",5,"","","","","","","",113,"2018-11-19","",113,null,113,"","",null,"","",""],[54,"VECTORSTUDYU1","IS","VECTORSTUDYU1-P0403","",54,"","","","ADA_NAB","Neutralizing Binding Antidrug Antibody","Antidrug antibodies","Capsid Neutrualizing Binding Antibody","5","titer","","","5",5,"titer",null,null,"","","","","","SERUM","","","","","","","","Reporter Assay","","",5,"","","","","","","",113,"2018-11-19","",113,null,113,"","",null,"","",""],[55,"VECTORSTUDYU1","IS","VECTORSTUDYU1-P0401","",55,"","","","ADA_NAB","Neutralizing Binding Antidrug Antibody","Antidrug antibodies","Capsid Neutrualizing Binding Antibody","160","titer","","","160",160,"titer",null,null,"","","","","","SERUM","","","","","","","","Reporter Assay","","",5,"","","","","","","",141,"2018-12-17","",141,null,141,"","",null,"","",""],[56,"VECTORSTUDYU1","IS","VECTORSTUDYU1-P0402","",56,"","","","ADA_NAB","Neutralizing Binding Antidrug Antibody","Antidrug antibodies","Capsid Neutrualizing Binding Antibody","5","titer","","","5",5,"titer",null,null,"","","","","","SERUM","","","","","","","","Reporter Assay","","",5,"","","","","","","",141,"2018-12-17","",141,null,141,"","",null,"","",""],[57,"VECTORSTUDYU1","IS","VECTORSTUDYU1-P0403","",57,"","","","ADA_NAB","Neutralizing Binding Antidrug Antibody","Antidrug antibodies","Capsid Neutrualizing Binding Antibody","20","titer","","","20",20,"titer",null,null,"","","","","","SERUM","","","","","","","","Reporter Assay","","",5,"","","","","","","",141,"2018-12-17","",141,null,141,"","",null,"","",""],[58,"VECTORSTUDYU1","IS","VECTORSTUDYU1-P0401","",58,"","","","ADA_NAB","Neutralizing Binding Antidrug Antibody","Antidrug antibodies","Capsid Neutrualizing Binding Antibody","160","titer","","","160",160,"titer",null,null,"","","","","","SERUM","","","","","","","","Reporter Assay","","",5,"","","","","","","",169,"2019-01-14","",169,null,169,"","",null,"","",""],[59,"VECTORSTUDYU1","IS","VECTORSTUDYU1-P0402","",59,"","","","ADA_NAB","Neutralizing Binding Antidrug Antibody","Antidrug antibodies","Capsid Neutrualizing Binding Antibody","5","titer","","","5",5,"titer",null,null,"","","","","","SERUM","","","","","","","","Reporter Assay","","",5,"","","","","","","",169,"2019-01-14","",169,null,169,"","",null,"","",""],[60,"VECTORSTUDYU1","IS","VECTORSTUDYU1-P0403","",60,"","","","ADA_NAB","Neutralizing Binding Antidrug Antibody","Antidrug antibodies","Capsid Neutrualizing Binding Antibody","80","titer","","","80",80,"titer",null,null,"","","","","","SERUM","","","","","","","","Reporter Assay","","",5,"","","","","","","",169,"2019-01-14","",169,null,169,"","",null,"","",""]]}}}}