{"creationDateTime":"2023-08-01T10:34:33","datasetJSONVersion":"1.0.0","fileOID":"www.cdisc.org/StudyMSGv2/1/Define-XML_2.0.0/2023-08-01/lb","originator":"CDISC SEND Team","sourceSystem":"Sponsor System","sourceSystemVersion":"1.0","clinicalData":{"studyOID":"VECTORSTUDYU1.SEND-IG.3.1","metaDataVersionOID":"MDV.VECTORSTUDYU1.SEND-IG.3.1","metaDataRef":"https://metadata.location.org/TDF_SEND_SENDIG31/define.xml","itemGroupData":{"IG.LB":{"records":3174,"name":"LB","label":"LABORATORY TEST RESULTS","items":[{"OID":"ITEMGROUPDATASEQ","name":"ITEMGROUPDATASEQ","label":"Record Identifier","type":"integer"},{"OID":"IT.LB.STUDYID","name":"STUDYID","label":"Study Identifier","type":"string","length":13,"keySequence":1},{"OID":"IT.LB.DOMAIN","name":"DOMAIN","label":"Domain Abbreviation","type":"string","length":2,"displayFormat":"$2"},{"OID":"IT.LB.USUBJID","name":"USUBJID","label":"Unique Subject Identifier","type":"string","length":19,"keySequence":2},{"OID":"IT.LB.POOLID","name":"POOLID","label":"Pool Identifier","type":"string","length":1,"keySequence":3},{"OID":"IT.LB.LBSEQ","name":"LBSEQ","label":"Sequence Number","type":"integer","length":8},{"OID":"IT.LB.LBGRPID","name":"LBGRPID","label":"Group Identifier","type":"string","length":1},{"OID":"IT.LB.LBREFID","name":"LBREFID","label":"Specimen Identifier","type":"string","length":1},{"OID":"IT.LB.LBSPID","name":"LBSPID","label":"Sponsor-Defined Identifier","type":"string","length":1},{"OID":"IT.LB.LBTESTCD","name":"LBTESTCD","label":"Lab Test or Examination Short Name","type":"string","length":7,"keySequence":4},{"OID":"IT.LB.LBTEST","name":"LBTEST","label":"Lab Test or Examination Name","type":"string","length":39},{"OID":"IT.LB.LBCAT","name":"LBCAT","label":"Category for Lab Test","type":"string","length":18},{"OID":"IT.LB.LBSCAT","name":"LBSCAT","label":"Subcategory for Lab Test","type":"string","length":1},{"OID":"IT.LB.LBORRES","name":"LBORRES","label":"Result or Findings as Collected","type":"string","length":5},{"OID":"IT.LB.LBORRESU","name":"LBORRESU","label":"Unit of the Original Result","type":"string","length":6},{"OID":"IT.LB.LBORNRLO","name":"LBORNRLO","label":"Reference Range Lower Limit-Orig Unit","type":"string","length":1},{"OID":"IT.LB.LBORNRHI","name":"LBORNRHI","label":"Reference Range Upper Limit-Orig Unit","type":"string","length":1},{"OID":"IT.LB.LBSTRESC","name":"LBSTRESC","label":"Standardized Result in Character Format","type":"string","length":5},{"OID":"IT.LB.LBSTRESN","name":"LBSTRESN","label":"Standardized Result in Numeric Format","type":"float","length":5},{"OID":"IT.LB.LBSTRESU","name":"LBSTRESU","label":"Unit of the Standardized Result","type":"string","length":7},{"OID":"IT.LB.LBSTNRLO","name":"LBSTNRLO","label":"Reference Range Lower Limit-Std Unit","type":"integer","length":8},{"OID":"IT.LB.LBSTNRHI","name":"LBSTNRHI","label":"Reference Range Upper Limit-Std Unit","type":"integer","length":8},{"OID":"IT.LB.LBSTNRC","name":"LBSTNRC","label":"Reference Range for Char Rslt-Std Unit","type":"string","length":1},{"OID":"IT.LB.LBNRIND","name":"LBNRIND","label":"Reference Range Indicator","type":"string","length":1},{"OID":"IT.LB.LBSTAT","name":"LBSTAT","label":"Completion Status","type":"string","length":1},{"OID":"IT.LB.LBREASND","name":"LBREASND","label":"Reason Not Done","type":"string","length":1},{"OID":"IT.LB.LBNAM","name":"LBNAM","label":"Laboratory Name","type":"string","length":1},{"OID":"IT.LB.LBSPEC","name":"LBSPEC","label":"Specimen Material Type","type":"string","length":6,"keySequence":5},{"OID":"IT.LB.LBANTREG","name":"LBANTREG","label":"Anatomical Region of Specimen","type":"string","length":1},{"OID":"IT.LB.LBSPCCND","name":"LBSPCCND","label":"Specimen Condition","type":"string","length":1},{"OID":"IT.LB.LBSPCUFL","name":"LBSPCUFL","label":"Specimen Usability for the Test","type":"string","length":1},{"OID":"IT.LB.LBLOC","name":"LBLOC","label":"Specimen Collection Location","type":"string","length":1},{"OID":"IT.LB.LBLAT","name":"LBLAT","label":"Specimen Laterality within Subject","type":"string","length":1},{"OID":"IT.LB.LBDIR","name":"LBDIR","label":"Specimen Directionality within Subject","type":"string","length":1},{"OID":"IT.LB.LBPORTOT","name":"LBPORTOT","label":"Portion or Totality","type":"string","length":1},{"OID":"IT.LB.LBMETHOD","name":"LBMETHOD","label":"Method of Test or Examination","type":"string","length":1},{"OID":"IT.LB.LBBLFL","name":"LBBLFL","label":"Baseline Flag","type":"string","length":1},{"OID":"IT.LB.LBFAST","name":"LBFAST","label":"Fasting Status","type":"string","length":1},{"OID":"IT.LB.LBDRVFL","name":"LBDRVFL","label":"Derived Flag","type":"string","length":1},{"OID":"IT.LB.LBTOX","name":"LBTOX","label":"Toxicity","type":"string","length":1},{"OID":"IT.LB.LBTOXGR","name":"LBTOXGR","label":"Standard Toxicity Grade","type":"string","length":1},{"OID":"IT.LB.LBEXCLFL","name":"LBEXCLFL","label":"Exclusion Flag","type":"string","length":1},{"OID":"IT.LB.LBREASEX","name":"LBREASEX","label":"Reason for Exclusion","type":"string","length":1},{"OID":"IT.LB.LBUSCHFL","name":"LBUSCHFL","label":"Unscheduled Flag","type":"string","length":1},{"OID":"IT.LB.VISITDY","name":"VISITDY","label":"Planned Study Day of Collection","type":"integer","length":8},{"OID":"IT.LB.LBDTC","name":"LBDTC","label":"Date/Time of Specimen Collection","type":"string","keySequence":6},{"OID":"IT.LB.LBENDTC","name":"LBENDTC","label":"End Date/Time of Specimen Collection","type":"string","length":1},{"OID":"IT.LB.LBDY","name":"LBDY","label":"Study Day of Specimen Collection","type":"integer","length":8},{"OID":"IT.LB.LBENDY","name":"LBENDY","label":"Study Day of End of Specimen Collection","type":"integer","length":8},{"OID":"IT.LB.LBNOMDY","name":"LBNOMDY","label":"Nominal Study Day for Tabulations","type":"integer","length":8},{"OID":"IT.LB.LBNOMLBL","name":"LBNOMLBL","label":"Label for Nominal Study Day","type":"string","length":1},{"OID":"IT.LB.LBTPT","name":"LBTPT","label":"Planned Time Point Name","type":"string","length":1},{"OID":"IT.LB.LBTPTNUM","name":"LBTPTNUM","label":"Planned Time Point Number","type":"integer","length":8,"keySequence":7},{"OID":"IT.LB.LBELTM","name":"LBELTM","label":"Planned Elapsed Time from Time Point Ref","type":"string","length":1},{"OID":"IT.LB.LBTPTREF","name":"LBTPTREF","label":"Time Point Reference","type":"string","length":1},{"OID":"IT.LB.LBRFTDTC","name":"LBRFTDTC","label":"Date/Time of Reference Time Point","type":"string","length":1}],"itemData":[[1,"VECTORSTUDYU1","LB","VECTORSTUDYU1-P0001","",1,"","","","GLUC","Glucose","CLINICAL CHEMISTRY","","86","mg/dL","","","86",86,"mg/dL",null,null,"","","","","","SERUM","","","","","","","","Cobas 8000","","","","","","","","",-47,"2018-06-13T00:00:00","",-47,null,-47,"","",null,"","",""],[2,"VECTORSTUDYU1","LB","VECTORSTUDYU1-P0002","",2,"","","","GLUC","Glucose","CLINICAL CHEMISTRY","","65","mg/dL","","","65",65,"mg/dL",null,null,"","","","","","SERUM","","","","","","","","Cobas 8000","","","","","","","","",-47,"2018-06-13T00:00:00","",-47,null,-47,"","",null,"","",""],[3,"VECTORSTUDYU1","LB","VECTORSTUDYU1-P0003","",3,"","","","GLUC","Glucose","CLINICAL CHEMISTRY","","82","mg/dL","","","82",82,"mg/dL",null,null,"","","","","","SERUM","","","","","","","","Cobas 8000","","","","","","","","",-47,"2018-06-13T00:00:00","",-47,null,-47,"","",null,"","",""],[4,"VECTORSTUDYU1","LB","VECTORSTUDYU1-P0401","",4,"","","","GLUC","Glucose","CLINICAL CHEMISTRY","","94","mg/dL","","","94",94,"mg/dL",null,null,"","","","","","SERUM","","","","","","","","Cobas 8000","","","","","","","","",-47,"2018-06-13T00:00:00","",-47,null,-47,"","",null,"","",""],[5,"VECTORSTUDYU1","LB","VECTORSTUDYU1-P0402","",5,"","","","GLUC","Glucose","CLINICAL CHEMISTRY","","78","mg/dL","","","78",78,"mg/dL",null,null,"","","","","","SERUM","","","","","","","","Cobas 8000","","","","","","","","",-47,"2018-06-13T00:00:00","",-47,null,-47,"","",null,"","",""],[6,"VECTORSTUDYU1","LB","VECTORSTUDYU1-P0403","",6,"","","","GLUC","Glucose","CLINICAL CHEMISTRY","","73","mg/dL","","","73",73,"mg/dL",null,null,"","","","","","SERUM","","","","","","","","Cobas 8000","","","","","","","","",-47,"2018-06-13T00:00:00","",-47,null,-47,"","",null,"","",""],[7,"VECTORSTUDYU1","LB","VECTORSTUDYU1-P0001","",7,"","","","GLUC","Glucose","CLINICAL CHEMISTRY","","73","mg/dL","","","73",73,"mg/dL",null,null,"","","","","","SERUM","","","","","","","","Cobas 8000","","","","","","","","",-27,"2018-07-03T00:00:00","",-27,null,-27,"","",null,"","",""],[8,"VECTORSTUDYU1","LB","VECTORSTUDYU1-P0002","",8,"","","","GLUC","Glucose","CLINICAL CHEMISTRY","","52","mg/dL","","","52",52,"mg/dL",null,null,"","","","","","SERUM","","","","","","","","Cobas 8000","","","","","","","","",-27,"2018-07-03T00:00:00","",-27,null,-27,"","",null,"","",""],[9,"VECTORSTUDYU1","LB","VECTORSTUDYU1-P0003","",9,"","","","GLUC","Glucose","CLINICAL CHEMISTRY","","52","mg/dL","","","52",52,"mg/dL",null,null,"","","","","","SERUM","","","","","","","","Cobas 8000","","","","","","","","",-27,"2018-07-03T00:00:00","",-27,null,-27,"","",null,"","",""],[10,"VECTORSTUDYU1","LB","VECTORSTUDYU1-P0401","",10,"","","","GLUC","Glucose","CLINICAL CHEMISTRY","","80","mg/dL","","","80",80,"mg/dL",null,null,"","","","","","SERUM","","","","","","","","Cobas 8000","","","","","","","","",-27,"2018-07-03T00:00:00","",-27,null,-27,"","",null,"","",""],[11,"VECTORSTUDYU1","LB","VECTORSTUDYU1-P0402","",11,"","","","GLUC","Glucose","CLINICAL CHEMISTRY","","54","mg/dL","","","54",54,"mg/dL",null,null,"","","","","","SERUM","","","","","","","","Cobas 8000","","","","","","","","",-27,"2018-07-03T00:00:00","",-27,null,-27,"","",null,"","",""],[12,"VECTORSTUDYU1","LB","VECTORSTUDYU1-P0403","",12,"","","","GLUC","Glucose","CLINICAL CHEMISTRY","","49","mg/dL","","","49",49,"mg/dL",null,null,"","","","","","SERUM","","","","","","","","Cobas 8000","","","","","","","","",-27,"2018-07-03T00:00:00","",-27,null,-27,"","",null,"","",""],[13,"VECTORSTUDYU1","LB","VECTORSTUDYU1-P0001","",13,"","","","GLUC","Glucose","CLINICAL CHEMISTRY","","55","mg/dL","","","55",55,"mg/dL",null,null,"","","","","","SERUM","","","","","","","","Cobas 8000","Y","","","","","","","",1,"2018-07-30T00:00:00","",1,null,1,"","",null,"","",""],[14,"VECTORSTUDYU1","LB","VECTORSTUDYU1-P0002","",14,"","","","GLUC","Glucose","CLINICAL CHEMISTRY","","47","mg/dL","","","47",47,"mg/dL",null,null,"","","","","","SERUM","","","","","","","","Cobas 8000","Y","","","","","","","",1,"2018-07-30T00:00:00","",1,null,1,"","",null,"","",""],[15,"VECTORSTUDYU1","LB","VECTORSTUDYU1-P0003","",15,"","","","GLUC","Glucose","CLINICAL CHEMISTRY","","69","mg/dL","","","69",69,"mg/dL",null,null,"","","","","","SERUM","","","","","","","","Cobas 8000","Y","","","","","","","",1,"2018-07-30T00:00:00","",1,null,1,"","",null,"","",""],[16,"VECTORSTUDYU1","LB","VECTORSTUDYU1-P0401","",16,"","","","GLUC","Glucose","CLINICAL CHEMISTRY","","95","mg/dL","","","95",95,"mg/dL",null,null,"","","","","","SERUM","","","","","","","","Cobas 8000","Y","","","","","","","",1,"2018-07-30T00:00:00","",1,null,1,"","",null,"","",""],[17,"VECTORSTUDYU1","LB","VECTORSTUDYU1-P0402","",17,"","","","GLUC","Glucose","CLINICAL CHEMISTRY","","73","mg/dL","","","73",73,"mg/dL",null,null,"","","","","","SERUM","","","","","","","","Cobas 8000","Y","","","","","","","",1,"2018-07-30T00:00:00","",1,null,1,"","",null,"","",""],[18,"VECTORSTUDYU1","LB","VECTORSTUDYU1-P0403","",18,"","","","GLUC","Glucose","CLINICAL CHEMISTRY","","84","mg/dL","","","84",84,"mg/dL",null,null,"","","","","","SERUM","","","","","","","","Cobas 8000","Y","","","","","","","",1,"2018-07-30T00:00:00","",1,null,1,"","",null,"","",""],[19,"VECTORSTUDYU1","LB","VECTORSTUDYU1-P0001","",19,"","","","GLUC","Glucose","CLINICAL CHEMISTRY","","113","mg/dL","","","113",113,"mg/dL",null,null,"","","","","","SERUM","","","","","","","","Cobas 8000","","","","","","","","",15,"2018-08-13T00:00:00","",15,null,15,"","",null,"","",""],[20,"VECTORSTUDYU1","LB","VECTORSTUDYU1-P0002","",20,"","","","GLUC","Glucose","CLINICAL CHEMISTRY","","60","mg/dL","","","60",60,"mg/dL",null,null,"","","","","","SERUM","","","","","","","","Cobas 8000","","","","","","","","",15,"2018-08-13T00:00:00","",15,null,15,"","",null,"","",""],[21,"VECTORSTUDYU1","LB","VECTORSTUDYU1-P0003","",21,"","","","GLUC","Glucose","CLINICAL CHEMISTRY","","95","mg/dL","","","95",95,"mg/dL",null,null,"","","","","","SERUM","","","","","","","","Cobas 8000","","","","","","","","",15,"2018-08-13T00:00:00","",15,null,15,"","",null,"","",""],[22,"VECTORSTUDYU1","LB","VECTORSTUDYU1-P0401","",22,"","","","GLUC","Glucose","CLINICAL CHEMISTRY","","108","mg/dL","","","108",108,"mg/dL",null,null,"","","","","","SERUM","","","","","","","","Cobas 8000","","","","","","","","",15,"2018-08-13T00:00:00","",15,null,15,"","",null,"","",""],[23,"VECTORSTUDYU1","LB","VECTORSTUDYU1-P0402","",23,"","","","GLUC","Glucose","CLINICAL CHEMISTRY","","78","mg/dL","","","78",78,"mg/dL",null,null,"","","","","","SERUM","","","","","","","","Cobas 8000","","","","","","","","",15,"2018-08-13T00:00:00","",15,null,15,"","",null,"","",""],[24,"VECTORSTUDYU1","LB","VECTORSTUDYU1-P0403","",24,"","","","GLUC","Glucose","CLINICAL CHEMISTRY","","87","mg/dL","","","87",87,"mg/dL",null,null,"","","","","","SERUM","","","","","","","","Cobas 8000","","","","","","","","",15,"2018-08-13T00:00:00","",15,null,15,"","",null,"","",""],[25,"VECTORSTUDYU1","LB","VECTORSTUDYU1-P0001","",25,"","","","GLUC","Glucose","CLINICAL CHEMISTRY","","85","mg/dL","","","85",85,"mg/dL",null,null,"","","","","","SERUM","","","","","","","","Cobas 8000","","","","","","","","",29,"2018-08-27T00:00:00","",29,null,29,"","",null,"","",""],[26,"VECTORSTUDYU1","LB","VECTORSTUDYU1-P0002","",26,"","","","GLUC","Glucose","CLINICAL CHEMISTRY","","66","mg/dL","","","66",66,"mg/dL",null,null,"","","","","","SERUM","","","","","","","","Cobas 8000","","","","","","","","",29,"2018-08-27T00:00:00","",29,null,29,"","",null,"","",""],[27,"VECTORSTUDYU1","LB","VECTORSTUDYU1-P0003","",27,"","","","GLUC","Glucose","CLINICAL CHEMISTRY","","59","mg/dL","","","59",59,"mg/dL",null,null,"","","","","","SERUM","","","","","","","","Cobas 8000","","","","","","","","",29,"2018-08-27T00:00:00","",29,null,29,"","",null,"","",""],[28,"VECTORSTUDYU1","LB","VECTORSTUDYU1-P0401","",28,"","","","GLUC","Glucose","CLINICAL CHEMISTRY","","100","mg/dL","","","100",100,"mg/dL",null,null,"","","","","","SERUM","","","","","","","","Cobas 8000","","","","","","","","",29,"2018-08-27T00:00:00","",29,null,29,"","",null,"","",""],[29,"VECTORSTUDYU1","LB","VECTORSTUDYU1-P0402","",29,"","","","GLUC","Glucose","CLINICAL CHEMISTRY","","75","mg/dL","","","75",75,"mg/dL",null,null,"","","","","","SERUM","","","","","","","","Cobas 8000","","","","","","","","",29,"2018-08-27T00:00:00","",29,null,29,"","",null,"","",""],[30,"VECTORSTUDYU1","LB","VECTORSTUDYU1-P0403","",30,"","","","GLUC","Glucose","CLINICAL CHEMISTRY","","85","mg/dL","","","85",85,"mg/dL",null,null,"","","","","","SERUM","","","","","","","","Cobas 8000","","","","","","","","",29,"2018-08-27T00:00:00","",29,null,29,"","",null,"","",""],[31,"VECTORSTUDYU1","LB","VECTORSTUDYU1-P0001","",31,"","","","GLUC","Glucose","CLINICAL CHEMISTRY","","96","mg/dL","","","96",96,"mg/dL",null,null,"","","","","","SERUM","","","","","","","","Cobas 8000","","","","","","","","",43,"2018-09-10T00:00:00","",43,null,43,"","",null,"","",""],[32,"VECTORSTUDYU1","LB","VECTORSTUDYU1-P0002","",32,"","","","GLUC","Glucose","CLINICAL CHEMISTRY","","82","mg/dL","","","82",82,"mg/dL",null,null,"","","","","","SERUM","","","","","","","","Cobas 8000","","","","","","","","",43,"2018-09-10T00:00:00","",43,null,43,"","",null,"","",""],[33,"VECTORSTUDYU1","LB","VECTORSTUDYU1-P0003","",33,"","","","GLUC","Glucose","CLINICAL CHEMISTRY","","85","mg/dL","","","85",85,"mg/dL",null,null,"","","","","","SERUM","","","","","","","","Cobas 8000","","","","","","","","",43,"2018-09-10T00:00:00","",43,null,43,"","",null,"","",""],[34,"VECTORSTUDYU1","LB","VECTORSTUDYU1-P0401","",34,"","","","GLUC","Glucose","CLINICAL CHEMISTRY","","110","mg/dL","","","110",110,"mg/dL",null,null,"","","","","","SERUM","","","","","","","","Cobas 8000","","","","","","","","",43,"2018-09-10T00:00:00","",43,null,43,"","",null,"","",""],[35,"VECTORSTUDYU1","LB","VECTORSTUDYU1-P0402","",35,"","","","GLUC","Glucose","CLINICAL CHEMISTRY","","85","mg/dL","","","85",85,"mg/dL",null,null,"","","","","","SERUM","","","","","","","","Cobas 8000","","","","","","","","",43,"2018-09-10T00:00:00","",43,null,43,"","",null,"","",""],[36,"VECTORSTUDYU1","LB","VECTORSTUDYU1-P0403","",36,"","","","GLUC","Glucose","CLINICAL CHEMISTRY","","82","mg/dL","","","82",82,"mg/dL",null,null,"","","","","","SERUM","","","","","","","","Cobas 8000","","","","","","","","",43,"2018-09-10T00:00:00","",43,null,43,"","",null,"","",""],[37,"VECTORSTUDYU1","LB","VECTORSTUDYU1-P0001","",37,"","","","GLUC","Glucose","CLINICAL CHEMISTRY","","48","mg/dL","","","48",48,"mg/dL",null,null,"","","","","","SERUM","","","","","","","","Cobas 8000","","","","","","","","",57,"2018-09-24T00:00:00","",57,null,57,"","",null,"","",""],[38,"VECTORSTUDYU1","LB","VECTORSTUDYU1-P0002","",38,"","","","GLUC","Glucose","CLINICAL CHEMISTRY","","67","mg/dL","","","67",67,"mg/dL",null,null,"","","","","","SERUM","","","","","","","","Cobas 8000","","","","","","","","",57,"2018-09-24T00:00:00","",57,null,57,"","",null,"","",""],[39,"VECTORSTUDYU1","LB","VECTORSTUDYU1-P0003","",39,"","","","GLUC","Glucose","CLINICAL CHEMISTRY","","62","mg/dL","","","62",62,"mg/dL",null,null,"","","","","","SERUM","","","","","","","","Cobas 8000","","","","","","","","",57,"2018-09-24T00:00:00","",57,null,57,"","",null,"","",""],[40,"VECTORSTUDYU1","LB","VECTORSTUDYU1-P0401","",40,"","","","GLUC","Glucose","CLINICAL CHEMISTRY","","90","mg/dL","","","90",90,"mg/dL",null,null,"","","","","","SERUM","","","","","","","","Cobas 8000","","","","","","","","",57,"2018-09-24T00:00:00","",57,null,57,"","",null,"","",""],[41,"VECTORSTUDYU1","LB","VECTORSTUDYU1-P0402","",41,"","","","GLUC","Glucose","CLINICAL CHEMISTRY","","59","mg/dL","","","59",59,"mg/dL",null,null,"","","","","","SERUM","","","","","","","","Cobas 8000","","","","","","","","",57,"2018-09-24T00:00:00","",57,null,57,"","",null,"","",""],[42,"VECTORSTUDYU1","LB","VECTORSTUDYU1-P0403","",42,"","","","GLUC","Glucose","CLINICAL CHEMISTRY","","103","mg/dL","","","103",103,"mg/dL",null,null,"","","","","","SERUM","","","","","","","","Cobas 8000","","","","","","","","",57,"2018-09-24T00:00:00","",57,null,57,"","",null,"","",""],[43,"VECTORSTUDYU1","LB","VECTORSTUDYU1-P0001","",43,"","","","GLUC","Glucose","CLINICAL CHEMISTRY","","72","mg/dL","","","72",72,"mg/dL",null,null,"","","","","","SERUM","","","","","","","","Cobas 8000","","","","","","","","",71,"2018-10-08T00:00:00","",71,null,71,"","",null,"","",""],[44,"VECTORSTUDYU1","LB","VECTORSTUDYU1-P0002","",44,"","","","GLUC","Glucose","CLINICAL CHEMISTRY","","76","mg/dL","","","76",76,"mg/dL",null,null,"","","","","","SERUM","","","","","","","","Cobas 8000","","","","","","","","",71,"2018-10-08T00:00:00","",71,null,71,"","",null,"","",""],[45,"VECTORSTUDYU1","LB","VECTORSTUDYU1-P0003","",45,"","","","GLUC","Glucose","CLINICAL CHEMISTRY","","73","mg/dL","","","73",73,"mg/dL",null,null,"","","","","","SERUM","","","","","","","","Cobas 8000","","","","","","","","",71,"2018-10-08T00:00:00","",71,null,71,"","",null,"","",""],[46,"VECTORSTUDYU1","LB","VECTORSTUDYU1-P0401","",46,"","","","GLUC","Glucose","CLINICAL CHEMISTRY","","106","mg/dL","","","106",106,"mg/dL",null,null,"","","","","","SERUM","","","","","","","","Cobas 8000","","","","","","","","",71,"2018-10-08T00:00:00","",71,null,71,"","",null,"","",""],[47,"VECTORSTUDYU1","LB","VECTORSTUDYU1-P0402","",47,"","","","GLUC","Glucose","CLINICAL CHEMISTRY","","75","mg/dL","","","75",75,"mg/dL",null,null,"","","","","","SERUM","","","","","","","","Cobas 8000","","","","","","","","",71,"2018-10-08T00:00:00","",71,null,71,"","",null,"","",""],[48,"VECTORSTUDYU1","LB","VECTORSTUDYU1-P0403","",48,"","","","GLUC","Glucose","CLINICAL CHEMISTRY","","81","mg/dL","","","81",81,"mg/dL",null,null,"","","","","","SERUM","","","","","","","","Cobas 8000","","","","","","","","",71,"2018-10-08T00:00:00","",71,null,71,"","",null,"","",""],[49,"VECTORSTUDYU1","LB","VECTORSTUDYU1-P0001","",49,"","","","GLUC","Glucose","CLINICAL CHEMISTRY","","73","mg/dL","","","73",73,"mg/dL",null,null,"","","","","","SERUM","","","","","","","","Cobas 8000","","","","","","","","",85,"2018-10-22T00:00:00","",85,null,85,"","",null,"","",""],[50,"VECTORSTUDYU1","LB","VECTORSTUDYU1-P0002","",50,"","","","GLUC","Glucose","CLINICAL CHEMISTRY","","50","mg/dL","","","50",50,"mg/dL",null,null,"","","","","","SERUM","","","","","","","","Cobas 8000","","","","","","","","",85,"2018-10-22T00:00:00","",85,null,85,"","",null,"","",""],[51,"VECTORSTUDYU1","LB","VECTORSTUDYU1-P0003","",51,"","","","GLUC","Glucose","CLINICAL CHEMISTRY","","55","mg/dL","","","55",55,"mg/dL",null,null,"","","","","","SERUM","","","","","","","","Cobas 8000","","","","","","","","",85,"2018-10-22T00:00:00","",85,null,85,"","",null,"","",""],[52,"VECTORSTUDYU1","LB","VECTORSTUDYU1-P0401","",52,"","","","GLUC","Glucose","CLINICAL CHEMISTRY","","98","mg/dL","","","98",98,"mg/dL",null,null,"","","","","","SERUM","","","","","","","","Cobas 8000","","","","","","","","",85,"2018-10-22T00:00:00","",85,null,85,"","",null,"","",""],[53,"VECTORSTUDYU1","LB","VECTORSTUDYU1-P0402","",53,"","","","GLUC","Glucose","CLINICAL CHEMISTRY","","63","mg/dL","","","63",63,"mg/dL",null,null,"","","","","","SERUM","","","","","","","","Cobas 8000","","","","","","","","",85,"2018-10-22T00:00:00","",85,null,85,"","",null,"","",""],[54,"VECTORSTUDYU1","LB","VECTORSTUDYU1-P0403","",54,"","","","GLUC","Glucose","CLINICAL CHEMISTRY","","75","mg/dL","","","75",75,"mg/dL",null,null,"","","","","","SERUM","","","","","","","","Cobas 8000","","","","","","","","",85,"2018-10-22T00:00:00","",85,null,85,"","",null,"","",""],[55,"VECTORSTUDYU1","LB","VECTORSTUDYU1-P0001","",55,"","","","GLUC","Glucose","CLINICAL CHEMISTRY","","62","mg/dL","","","62",62,"mg/dL",null,null,"","","","","","SERUM","","","","","","","","Cobas 8000","","","","","","","","",113,"2018-11-19T00:00:00","",113,null,113,"","",null,"","",""],[56,"VECTORSTUDYU1","LB","VECTORSTUDYU1-P0002","",56,"","","","GLUC","Glucose","CLINICAL CHEMISTRY","","63","mg/dL","","","63",63,"mg/dL",null,null,"","","","","","SERUM","","","","","","","","Cobas 8000","","","","","","","","",113,"2018-11-19T00:00:00","",113,null,113,"","",null,"","",""],[57,"VECTORSTUDYU1","LB","VECTORSTUDYU1-P0003","",57,"","","","GLUC","Glucose","CLINICAL CHEMISTRY","","49","mg/dL","","","49",49,"mg/dL",null,null,"","","","","","SERUM","","","","","","","","Cobas 8000","","","","","","","","",113,"2018-11-19T00:00:00","",113,null,113,"","",null,"","",""],[58,"VECTORSTUDYU1","LB","VECTORSTUDYU1-P0401","",58,"","","","GLUC","Glucose","CLINICAL CHEMISTRY","","85","mg/dL","","","85",85,"mg/dL",null,null,"","","","","","SERUM","","","","","","","","Cobas 8000","","","","","","","","",113,"2018-11-19T00:00:00","",113,null,113,"","",null,"","",""],[59,"VECTORSTUDYU1","LB","VECTORSTUDYU1-P0402","",59,"","","","GLUC","Glucose","CLINICAL CHEMISTRY","","69","mg/dL","","","69",69,"mg/dL",null,null,"","","","","","SERUM","","","","","","","","Cobas 8000","","","","","","","","",113,"2018-11-19T00:00:00","",113,null,113,"","",null,"","",""],[60,"VECTORSTUDYU1","LB","VECTORSTUDYU1-P0403","",60,"","","","GLUC","Glucose","CLINICAL CHEMISTRY","","85","mg/dL","","","85",85,"mg/dL",null,null,"","","","","","SERUM","","","","","","","","Cobas 8000","","","","","","","","",113,"2018-11-19T00:00:00","",113,null,113,"","",null,"","",""],[61,"VECTORSTUDYU1","LB","VECTORSTUDYU1-P0001","",61,"","","","GLUC","Glucose","CLINICAL CHEMISTRY","","68","mg/dL","","","68",68,"mg/dL",null,null,"","","","","","SERUM","","","","","","","","Cobas 8000","","","","","","","","",141,"2018-12-17T00:00:00","",141,null,141,"","",null,"","",""],[62,"VECTORSTUDYU1","LB","VECTORSTUDYU1-P0002","",62,"","","","GLUC","Glucose","CLINICAL CHEMISTRY","","84","mg/dL","","","84",84,"mg/dL",null,null,"","","","","","SERUM","","","","","","","","Cobas 8000","","","","","","","","",141,"2018-12-17T00:00:00","",141,null,141,"","",null,"","",""],[63,"VECTORSTUDYU1","LB","VECTORSTUDYU1-P0003","",63,"","","","GLUC","Glucose","CLINICAL CHEMISTRY","","83","mg/dL","","","83",83,"mg/dL",null,null,"","","","","","SERUM","","","","","","","","Cobas 8000","","","","","","","","",141,"2018-12-17T00:00:00","",141,null,141,"","",null,"","",""],[64,"VECTORSTUDYU1","LB","VECTORSTUDYU1-P0401","",64,"","","","GLUC","Glucose","CLINICAL CHEMISTRY","","104","mg/dL","","","104",104,"mg/dL",null,null,"","","","","","SERUM","","","","","","","","Cobas 8000","","","","","","","","",141,"2018-12-17T00:00:00","",141,null,141,"","",null,"","",""],[65,"VECTORSTUDYU1","LB","VECTORSTUDYU1-P0402","",65,"","","","GLUC","Glucose","CLINICAL CHEMISTRY","","82","mg/dL","","","82",82,"mg/dL",null,null,"","","","","","SERUM","","","","","","","","Cobas 8000","","","","","","","","",141,"2018-12-17T00:00:00","",141,null,141,"","",null,"","",""],[66,"VECTORSTUDYU1","LB","VECTORSTUDYU1-P0403","",66,"","","","GLUC","Glucose","CLINICAL CHEMISTRY","","91","mg/dL","","","91",91,"mg/dL",null,null,"","","","","","SERUM","","","","","","","","Cobas 8000","","","","","","","","",141,"2018-12-17T00:00:00","",141,null,141,"","",null,"","",""],[67,"VECTORSTUDYU1","LB","VECTORSTUDYU1-P0001","",67,"","","","GLUC","Glucose","CLINICAL CHEMISTRY","","59","mg/dL","","","59",59,"mg/dL",null,null,"","","","","","SERUM","","","","","","","","Cobas 8000","","","","","","","","",169,"2019-01-14T00:00:00","",169,null,169,"","",null,"","",""],[68,"VECTORSTUDYU1","LB","VECTORSTUDYU1-P0002","",68,"","","","GLUC","Glucose","CLINICAL CHEMISTRY","","63","mg/dL","","","63",63,"mg/dL",null,null,"","","","","","SERUM","","","","","","","","Cobas 8000","","","","","","","","",169,"2019-01-14T00:00:00","",169,null,169,"","",null,"","",""],[69,"VECTORSTUDYU1","LB","VECTORSTUDYU1-P0003","",69,"","","","GLUC","Glucose","CLINICAL CHEMISTRY","","48","mg/dL","","","48",48,"mg/dL",null,null,"","","","","","SERUM","","","","","","","","Cobas 8000","","","","","","","","",169,"2019-01-14T00:00:00","",169,null,169,"","",null,"","",""],[70,"VECTORSTUDYU1","LB","VECTORSTUDYU1-P0401","",70,"","","","GLUC","Glucose","CLINICAL CHEMISTRY","","74","mg/dL","","","74",74,"mg/dL",null,null,"","","","","","SERUM","","","","","","","","Cobas 8000","","","","","","","","",169,"2019-01-14T00:00:00","",169,null,169,"","",null,"","",""],[71,"VECTORSTUDYU1","LB","VECTORSTUDYU1-P0402","",71,"","","","GLUC","Glucose","CLINICAL CHEMISTRY","","77","mg/dL","","","77",77,"mg/dL",null,null,"","","","","","SERUM","","","","","","","","Cobas 8000","","","","","","","","",169,"2019-01-14T00:00:00","",169,null,169,"","",null,"","",""],[72,"VECTORSTUDYU1","LB","VECTORSTUDYU1-P0403","",72,"","","","GLUC","Glucose","CLINICAL CHEMISTRY","","84","mg/dL","","","84",84,"mg/dL",null,null,"","","","","","SERUM","","","","","","","","Cobas 8000","","","","","","","","",169,"2019-01-14T00:00:00","",169,null,169,"","",null,"","",""],[73,"VECTORSTUDYU1","LB","VECTORSTUDYU1-P0001","",73,"","","","UREAN","Urea Nitrogen","CLINICAL CHEMISTRY","","34","mg/dL","","","34",34,"mg/dL",null,null,"","","","","","SERUM","","","","","","","","Cobas 8000","","","","","","","","",-47,"2018-06-13T00:00:00","",-47,null,-47,"","",null,"","",""],[74,"VECTORSTUDYU1","LB","VECTORSTUDYU1-P0002","",74,"","","","UREAN","Urea Nitrogen","CLINICAL CHEMISTRY","","22","mg/dL","","","22",22,"mg/dL",null,null,"","","","","","SERUM","","","","","","","","Cobas 8000","","","","","","","","",-47,"2018-06-13T00:00:00","",-47,null,-47,"","",null,"","",""],[75,"VECTORSTUDYU1","LB","VECTORSTUDYU1-P0003","",75,"","","","UREAN","Urea Nitrogen","CLINICAL CHEMISTRY","","19","mg/dL","","","19",19,"mg/dL",null,null,"","","","","","SERUM","","","","","","","","Cobas 8000","","","","","","","","",-47,"2018-06-13T00:00:00","",-47,null,-47,"","",null,"","",""],[76,"VECTORSTUDYU1","LB","VECTORSTUDYU1-P0401","",76,"","","","UREAN","Urea Nitrogen","CLINICAL CHEMISTRY","","23","mg/dL","","","23",23,"mg/dL",null,null,"","","","","","SERUM","","","","","","","","Cobas 8000","","","","","","","","",-47,"2018-06-13T00:00:00","",-47,null,-47,"","",null,"","",""],[77,"VECTORSTUDYU1","LB","VECTORSTUDYU1-P0402","",77,"","","","UREAN","Urea Nitrogen","CLINICAL CHEMISTRY","","19","mg/dL","","","19",19,"mg/dL",null,null,"","","","","","SERUM","","","","","","","","Cobas 8000","","","","","","","","",-47,"2018-06-13T00:00:00","",-47,null,-47,"","",null,"","",""],[78,"VECTORSTUDYU1","LB","VECTORSTUDYU1-P0403","",78,"","","","UREAN","Urea Nitrogen","CLINICAL CHEMISTRY","","17","mg/dL","","","17",17,"mg/dL",null,null,"","","","","","SERUM","","","","","","","","Cobas 8000","","","","","","","","",-47,"2018-06-13T00:00:00","",-47,null,-47,"","",null,"","",""],[79,"VECTORSTUDYU1","LB","VECTORSTUDYU1-P0001","",79,"","","","UREAN","Urea Nitrogen","CLINICAL CHEMISTRY","","18","mg/dL","","","18",18,"mg/dL",null,null,"","","","","","SERUM","","","","","","","","Cobas 8000","","","","","","","","",-27,"2018-07-03T00:00:00","",-27,null,-27,"","",null,"","",""],[80,"VECTORSTUDYU1","LB","VECTORSTUDYU1-P0002","",80,"","","","UREAN","Urea Nitrogen","CLINICAL CHEMISTRY","","20","mg/dL","","","20",20,"mg/dL",null,null,"","","","","","SERUM","","","","","","","","Cobas 8000","","","","","","","","",-27,"2018-07-03T00:00:00","",-27,null,-27,"","",null,"","",""],[81,"VECTORSTUDYU1","LB","VECTORSTUDYU1-P0003","",81,"","","","UREAN","Urea Nitrogen","CLINICAL CHEMISTRY","","21","mg/dL","","","21",21,"mg/dL",null,null,"","","","","","SERUM","","","","","","","","Cobas 8000","","","","","","","","",-27,"2018-07-03T00:00:00","",-27,null,-27,"","",null,"","",""],[82,"VECTORSTUDYU1","LB","VECTORSTUDYU1-P0401","",82,"","","","UREAN","Urea Nitrogen","CLINICAL CHEMISTRY","","20","mg/dL","","","20",20,"mg/dL",null,null,"","","","","","SERUM","","","","","","","","Cobas 8000","","","","","","","","",-27,"2018-07-03T00:00:00","",-27,null,-27,"","",null,"","",""],[83,"VECTORSTUDYU1","LB","VECTORSTUDYU1-P0402","",83,"","","","UREAN","Urea Nitrogen","CLINICAL CHEMISTRY","","22","mg/dL","","","22",22,"mg/dL",null,null,"","","","","","SERUM","","","","","","","","Cobas 8000","","","","","","","","",-27,"2018-07-03T00:00:00","",-27,null,-27,"","",null,"","",""],[84,"VECTORSTUDYU1","LB","VECTORSTUDYU1-P0403","",84,"","","","UREAN","Urea Nitrogen","CLINICAL CHEMISTRY","","18","mg/dL","","","18",18,"mg/dL",null,null,"","","","","","SERUM","","","","","","","","Cobas 8000","","","","","","","","",-27,"2018-07-03T00:00:00","",-27,null,-27,"","",null,"","",""],[85,"VECTORSTUDYU1","LB","VECTORSTUDYU1-P0001","",85,"","","","UREAN","Urea Nitrogen","CLINICAL CHEMISTRY","","19","mg/dL","","","19",19,"mg/dL",null,null,"","","","","","SERUM","","","","","","","","Cobas 8000","Y","","","","","","","",1,"2018-07-30T00:00:00","",1,null,1,"","",null,"","",""],[86,"VECTORSTUDYU1","LB","VECTORSTUDYU1-P0002","",86,"","","","UREAN","Urea Nitrogen","CLINICAL CHEMISTRY","","21","mg/dL","","","21",21,"mg/dL",null,null,"","","","","","SERUM","","","","","","","","Cobas 8000","Y","","","","","","","",1,"2018-07-30T00:00:00","",1,null,1,"","",null,"","",""],[87,"VECTORSTUDYU1","LB","VECTORSTUDYU1-P0003","",87,"","","","UREAN","Urea Nitrogen","CLINICAL CHEMISTRY","","22","mg/dL","","","22",22,"mg/dL",null,null,"","","","","","SERUM","","","","","","","","Cobas 8000","Y","","","","","","","",1,"2018-07-30T00:00:00","",1,null,1,"","",null,"","",""],[88,"VECTORSTUDYU1","LB","VECTORSTUDYU1-P0401","",88,"","","","UREAN","Urea Nitrogen","CLINICAL CHEMISTRY","","22","mg/dL","","","22",22,"mg/dL",null,null,"","","","","","SERUM","","","","","","","","Cobas 8000","Y","","","","","","","",1,"2018-07-30T00:00:00","",1,null,1,"","",null,"","",""],[89,"VECTORSTUDYU1","LB","VECTORSTUDYU1-P0402","",89,"","","","UREAN","Urea Nitrogen","CLINICAL CHEMISTRY","","18","mg/dL","","","18",18,"mg/dL",null,null,"","","","","","SERUM","","","","","","","","Cobas 8000","Y","","","","","","","",1,"2018-07-30T00:00:00","",1,null,1,"","",null,"","",""],[90,"VECTORSTUDYU1","LB","VECTORSTUDYU1-P0403","",90,"","","","UREAN","Urea Nitrogen","CLINICAL CHEMISTRY","","17","mg/dL","","","17",17,"mg/dL",null,null,"","","","","","SERUM","","","","","","","","Cobas 8000","Y","","","","","","","",1,"2018-07-30T00:00:00","",1,null,1,"","",null,"","",""],[91,"VECTORSTUDYU1","LB","VECTORSTUDYU1-P0001","",91,"","","","UREAN","Urea Nitrogen","CLINICAL CHEMISTRY","","19","mg/dL","","","19",19,"mg/dL",null,null,"","","","","","SERUM","","","","","","","","Cobas 8000","","","","","","","","",15,"2018-08-13T00:00:00","",15,null,15,"","",null,"","",""],[92,"VECTORSTUDYU1","LB","VECTORSTUDYU1-P0002","",92,"","","","UREAN","Urea Nitrogen","CLINICAL CHEMISTRY","","20","mg/dL","","","20",20,"mg/dL",null,null,"","","","","","SERUM","","","","","","","","Cobas 8000","","","","","","","","",15,"2018-08-13T00:00:00","",15,null,15,"","",null,"","",""],[93,"VECTORSTUDYU1","LB","VECTORSTUDYU1-P0003","",93,"","","","UREAN","Urea Nitrogen","CLINICAL CHEMISTRY","","22","mg/dL","","","22",22,"mg/dL",null,null,"","","","","","SERUM","","","","","","","","Cobas 8000","","","","","","","","",15,"2018-08-13T00:00:00","",15,null,15,"","",null,"","",""],[94,"VECTORSTUDYU1","LB","VECTORSTUDYU1-P0401","",94,"","","","UREAN","Urea Nitrogen","CLINICAL CHEMISTRY","","21","mg/dL","","","21",21,"mg/dL",null,null,"","","","","","SERUM","","","","","","","","Cobas 8000","","","","","","","","",15,"2018-08-13T00:00:00","",15,null,15,"","",null,"","",""],[95,"VECTORSTUDYU1","LB","VECTORSTUDYU1-P0402","",95,"","","","UREAN","Urea Nitrogen","CLINICAL CHEMISTRY","","19","mg/dL","","","19",19,"mg/dL",null,null,"","","","","","SERUM","","","","","","","","Cobas 8000","","","","","","","","",15,"2018-08-13T00:00:00","",15,null,15,"","",null,"","",""],[96,"VECTORSTUDYU1","LB","VECTORSTUDYU1-P0403","",96,"","","","UREAN","Urea Nitrogen","CLINICAL CHEMISTRY","","17","mg/dL","","","17",17,"mg/dL",null,null,"","","","","","SERUM","","","","","","","","Cobas 8000","","","","","","","","",15,"2018-08-13T00:00:00","",15,null,15,"","",null,"","",""],[97,"VECTORSTUDYU1","LB","VECTORSTUDYU1-P0001","",97,"","","","UREAN","Urea Nitrogen","CLINICAL CHEMISTRY","","20","mg/dL","","","20",20,"mg/dL",null,null,"","","","","","SERUM","","","","","","","","Cobas 8000","","","","","","","","",29,"2018-08-27T00:00:00","",29,null,29,"","",null,"","",""],[98,"VECTORSTUDYU1","LB","VECTORSTUDYU1-P0002","",98,"","","","UREAN","Urea Nitrogen","CLINICAL CHEMISTRY","","19","mg/dL","","","19",19,"mg/dL",null,null,"","","","","","SERUM","","","","","","","","Cobas 8000","","","","","","","","",29,"2018-08-27T00:00:00","",29,null,29,"","",null,"","",""],[99,"VECTORSTUDYU1","LB","VECTORSTUDYU1-P0003","",99,"","","","UREAN","Urea Nitrogen","CLINICAL CHEMISTRY","","26","mg/dL","","","26",26,"mg/dL",null,null,"","","","","","SERUM","","","","","","","","Cobas 8000","","","","","","","","",29,"2018-08-27T00:00:00","",29,null,29,"","",null,"","",""],[100,"VECTORSTUDYU1","LB","VECTORSTUDYU1-P0401","",100,"","","","UREAN","Urea Nitrogen","CLINICAL CHEMISTRY","","18","mg/dL","","","18",18,"mg/dL",null,null,"","","","","","SERUM","","","","","","","","Cobas 8000","","","","","","","","",29,"2018-08-27T00:00:00","",29,null,29,"","",null,"","",""],[101,"VECTORSTUDYU1","LB","VECTORSTUDYU1-P0402","",101,"","","","UREAN","Urea Nitrogen","CLINICAL CHEMISTRY","","18","mg/dL","","","18",18,"mg/dL",null,null,"","","","","","SERUM","","","","","","","","Cobas 8000","","","","","","","","",29,"2018-08-27T00:00:00","",29,null,29,"","",null,"","",""],[102,"VECTORSTUDYU1","LB","VECTORSTUDYU1-P0403","",102,"","","","UREAN","Urea Nitrogen","CLINICAL CHEMISTRY","","16","mg/dL","","","16",16,"mg/dL",null,null,"","","","","","SERUM","","","","","","","","Cobas 8000","","","","","","","","",29,"2018-08-27T00:00:00","",29,null,29,"","",null,"","",""],[103,"VECTORSTUDYU1","LB","VECTORSTUDYU1-P0001","",103,"","","","UREAN","Urea Nitrogen","CLINICAL CHEMISTRY","","22","mg/dL","","","22",22,"mg/dL",null,null,"","","","","","SERUM","","","","","","","","Cobas 8000","","","","","","","","",43,"2018-09-10T00:00:00","",43,null,43,"","",null,"","",""],[104,"VECTORSTUDYU1","LB","VECTORSTUDYU1-P0002","",104,"","","","UREAN","Urea Nitrogen","CLINICAL CHEMISTRY","","19","mg/dL","","","19",19,"mg/dL",null,null,"","","","","","SERUM","","","","","","","","Cobas 8000","","","","","","","","",43,"2018-09-10T00:00:00","",43,null,43,"","",null,"","",""],[105,"VECTORSTUDYU1","LB","VECTORSTUDYU1-P0003","",105,"","","","UREAN","Urea Nitrogen","CLINICAL CHEMISTRY","","24","mg/dL","","","24",24,"mg/dL",null,null,"","","","","","SERUM","","","","","","","","Cobas 8000","","","","","","","","",43,"2018-09-10T00:00:00","",43,null,43,"","",null,"","",""],[106,"VECTORSTUDYU1","LB","VECTORSTUDYU1-P0401","",106,"","","","UREAN","Urea Nitrogen","CLINICAL CHEMISTRY","","23","mg/dL","","","23",23,"mg/dL",null,null,"","","","","","SERUM","","","","","","","","Cobas 8000","","","","","","","","",43,"2018-09-10T00:00:00","",43,null,43,"","",null,"","",""],[107,"VECTORSTUDYU1","LB","VECTORSTUDYU1-P0402","",107,"","","","UREAN","Urea Nitrogen","CLINICAL CHEMISTRY","","19","mg/dL","","","19",19,"mg/dL",null,null,"","","","","","SERUM","","","","","","","","Cobas 8000","","","","","","","","",43,"2018-09-10T00:00:00","",43,null,43,"","",null,"","",""],[108,"VECTORSTUDYU1","LB","VECTORSTUDYU1-P0403","",108,"","","","UREAN","Urea Nitrogen","CLINICAL CHEMISTRY","","16","mg/dL","","","16",16,"mg/dL",null,null,"","","","","","SERUM","","","","","","","","Cobas 8000","","","","","","","","",43,"2018-09-10T00:00:00","",43,null,43,"","",null,"","",""],[109,"VECTORSTUDYU1","LB","VECTORSTUDYU1-P0001","",109,"","","","UREAN","Urea Nitrogen","CLINICAL CHEMISTRY","","22","mg/dL","","","22",22,"mg/dL",null,null,"","","","","","SERUM","","","","","","","","Cobas 8000","","","","","","","","",57,"2018-09-24T00:00:00","",57,null,57,"","",null,"","",""],[110,"VECTORSTUDYU1","LB","VECTORSTUDYU1-P0002","",110,"","","","UREAN","Urea Nitrogen","CLINICAL CHEMISTRY","","20","mg/dL","","","20",20,"mg/dL",null,null,"","","","","","SERUM","","","","","","","","Cobas 8000","","","","","","","","",57,"2018-09-24T00:00:00","",57,null,57,"","",null,"","",""],[111,"VECTORSTUDYU1","LB","VECTORSTUDYU1-P0003","",111,"","","","UREAN","Urea Nitrogen","CLINICAL CHEMISTRY","","23","mg/dL","","","23",23,"mg/dL",null,null,"","","","","","SERUM","","","","","","","","Cobas 8000","","","","","","","","",57,"2018-09-24T00:00:00","",57,null,57,"","",null,"","",""],[112,"VECTORSTUDYU1","LB","VECTORSTUDYU1-P0401","",112,"","","","UREAN","Urea Nitrogen","CLINICAL CHEMISTRY","","22","mg/dL","","","22",22,"mg/dL",null,null,"","","","","","SERUM","","","","","","","","Cobas 8000","","","","","","","","",57,"2018-09-24T00:00:00","",57,null,57,"","",null,"","",""],[113,"VECTORSTUDYU1","LB","VECTORSTUDYU1-P0402","",113,"","","","UREAN","Urea Nitrogen","CLINICAL CHEMISTRY","","18","mg/dL","","","18",18,"mg/dL",null,null,"","","","","","SERUM","","","","","","","","Cobas 8000","","","","","","","","",57,"2018-09-24T00:00:00","",57,null,57,"","",null,"","",""],[114,"VECTORSTUDYU1","LB","VECTORSTUDYU1-P0403","",114,"","","","UREAN","Urea Nitrogen","CLINICAL CHEMISTRY","","14","mg/dL","","","14",14,"mg/dL",null,null,"","","","","","SERUM","","","","","","","","Cobas 8000","","","","","","","","",57,"2018-09-24T00:00:00","",57,null,57,"","",null,"","",""],[115,"VECTORSTUDYU1","LB","VECTORSTUDYU1-P0001","",115,"","","","UREAN","Urea Nitrogen","CLINICAL CHEMISTRY","","19","mg/dL","","","19",19,"mg/dL",null,null,"","","","","","SERUM","","","","","","","","Cobas 8000","","","","","","","","",71,"2018-10-08T00:00:00","",71,null,71,"","",null,"","",""],[116,"VECTORSTUDYU1","LB","VECTORSTUDYU1-P0002","",116,"","","","UREAN","Urea Nitrogen","CLINICAL CHEMISTRY","","21","mg/dL","","","21",21,"mg/dL",null,null,"","","","","","SERUM","","","","","","","","Cobas 8000","","","","","","","","",71,"2018-10-08T00:00:00","",71,null,71,"","",null,"","",""],[117,"VECTORSTUDYU1","LB","VECTORSTUDYU1-P0003","",117,"","","","UREAN","Urea Nitrogen","CLINICAL CHEMISTRY","","22","mg/dL","","","22",22,"mg/dL",null,null,"","","","","","SERUM","","","","","","","","Cobas 8000","","","","","","","","",71,"2018-10-08T00:00:00","",71,null,71,"","",null,"","",""],[118,"VECTORSTUDYU1","LB","VECTORSTUDYU1-P0401","",118,"","","","UREAN","Urea Nitrogen","CLINICAL CHEMISTRY","","23","mg/dL","","","23",23,"mg/dL",null,null,"","","","","","SERUM","","","","","","","","Cobas 8000","","","","","","","","",71,"2018-10-08T00:00:00","",71,null,71,"","",null,"","",""],[119,"VECTORSTUDYU1","LB","VECTORSTUDYU1-P0402","",119,"","","","UREAN","Urea Nitrogen","CLINICAL CHEMISTRY","","19","mg/dL","","","19",19,"mg/dL",null,null,"","","","","","SERUM","","","","","","","","Cobas 8000","","","","","","","","",71,"2018-10-08T00:00:00","",71,null,71,"","",null,"","",""],[120,"VECTORSTUDYU1","LB","VECTORSTUDYU1-P0403","",120,"","","","UREAN","Urea Nitrogen","CLINICAL CHEMISTRY","","15","mg/dL","","","15",15,"mg/dL",null,null,"","","","","","SERUM","","","","","","","","Cobas 8000","","","","","","","","",71,"2018-10-08T00:00:00","",71,null,71,"","",null,"","",""],[121,"VECTORSTUDYU1","LB","VECTORSTUDYU1-P0001","",121,"","","","UREAN","Urea Nitrogen","CLINICAL CHEMISTRY","","23","mg/dL","","","23",23,"mg/dL",null,null,"","","","","","SERUM","","","","","","","","Cobas 8000","","","","","","","","",85,"2018-10-22T00:00:00","",85,null,85,"","",null,"","",""],[122,"VECTORSTUDYU1","LB","VECTORSTUDYU1-P0002","",122,"","","","UREAN","Urea Nitrogen","CLINICAL CHEMISTRY","","23","mg/dL","","","23",23,"mg/dL",null,null,"","","","","","SERUM","","","","","","","","Cobas 8000","","","","","","","","",85,"2018-10-22T00:00:00","",85,null,85,"","",null,"","",""],[123,"VECTORSTUDYU1","LB","VECTORSTUDYU1-P0003","",123,"","","","UREAN","Urea Nitrogen","CLINICAL CHEMISTRY","","25","mg/dL","","","25",25,"mg/dL",null,null,"","","","","","SERUM","","","","","","","","Cobas 8000","","","","","","","","",85,"2018-10-22T00:00:00","",85,null,85,"","",null,"","",""],[124,"VECTORSTUDYU1","LB","VECTORSTUDYU1-P0401","",124,"","","","UREAN","Urea Nitrogen","CLINICAL CHEMISTRY","","18","mg/dL","","","18",18,"mg/dL",null,null,"","","","","","SERUM","","","","","","","","Cobas 8000","","","","","","","","",85,"2018-10-22T00:00:00","",85,null,85,"","",null,"","",""],[125,"VECTORSTUDYU1","LB","VECTORSTUDYU1-P0402","",125,"","","","UREAN","Urea Nitrogen","CLINICAL CHEMISTRY","","17","mg/dL","","","17",17,"mg/dL",null,null,"","","","","","SERUM","","","","","","","","Cobas 8000","","","","","","","","",85,"2018-10-22T00:00:00","",85,null,85,"","",null,"","",""],[126,"VECTORSTUDYU1","LB","VECTORSTUDYU1-P0403","",126,"","","","UREAN","Urea Nitrogen","CLINICAL CHEMISTRY","","15","mg/dL","","","15",15,"mg/dL",null,null,"","","","","","SERUM","","","","","","","","Cobas 8000","","","","","","","","",85,"2018-10-22T00:00:00","",85,null,85,"","",null,"","",""],[127,"VECTORSTUDYU1","LB","VECTORSTUDYU1-P0001","",127,"","","","UREAN","Urea Nitrogen","CLINICAL CHEMISTRY","","18","mg/dL","","","18",18,"mg/dL",null,null,"","","","","","SERUM","","","","","","","","Cobas 8000","","","","","","","","",113,"2018-11-19T00:00:00","",113,null,113,"","",null,"","",""],[128,"VECTORSTUDYU1","LB","VECTORSTUDYU1-P0002","",128,"","","","UREAN","Urea Nitrogen","CLINICAL CHEMISTRY","","19","mg/dL","","","19",19,"mg/dL",null,null,"","","","","","SERUM","","","","","","","","Cobas 8000","","","","","","","","",113,"2018-11-19T00:00:00","",113,null,113,"","",null,"","",""],[129,"VECTORSTUDYU1","LB","VECTORSTUDYU1-P0003","",129,"","","","UREAN","Urea Nitrogen","CLINICAL CHEMISTRY","","27","mg/dL","","","27",27,"mg/dL",null,null,"","","","","","SERUM","","","","","","","","Cobas 8000","","","","","","","","",113,"2018-11-19T00:00:00","",113,null,113,"","",null,"","",""],[130,"VECTORSTUDYU1","LB","VECTORSTUDYU1-P0401","",130,"","","","UREAN","Urea Nitrogen","CLINICAL CHEMISTRY","","18","mg/dL","","","18",18,"mg/dL",null,null,"","","","","","SERUM","","","","","","","","Cobas 8000","","","","","","","","",113,"2018-11-19T00:00:00","",113,null,113,"","",null,"","",""],[131,"VECTORSTUDYU1","LB","VECTORSTUDYU1-P0402","",131,"","","","UREAN","Urea Nitrogen","CLINICAL CHEMISTRY","","17","mg/dL","","","17",17,"mg/dL",null,null,"","","","","","SERUM","","","","","","","","Cobas 8000","","","","","","","","",113,"2018-11-19T00:00:00","",113,null,113,"","",null,"","",""],[132,"VECTORSTUDYU1","LB","VECTORSTUDYU1-P0403","",132,"","","","UREAN","Urea Nitrogen","CLINICAL CHEMISTRY","","14","mg/dL","","","14",14,"mg/dL",null,null,"","","","","","SERUM","","","","","","","","Cobas 8000","","","","","","","","",113,"2018-11-19T00:00:00","",113,null,113,"","",null,"","",""],[133,"VECTORSTUDYU1","LB","VECTORSTUDYU1-P0001","",133,"","","","UREAN","Urea Nitrogen","CLINICAL CHEMISTRY","","13","mg/dL","","","13",13,"mg/dL",null,null,"","","","","","SERUM","","","","","","","","Cobas 8000","","","","","","","","",141,"2018-12-17T00:00:00","",141,null,141,"","",null,"","",""],[134,"VECTORSTUDYU1","LB","VECTORSTUDYU1-P0002","",134,"","","","UREAN","Urea Nitrogen","CLINICAL CHEMISTRY","","19","mg/dL","","","19",19,"mg/dL",null,null,"","","","","","SERUM","","","","","","","","Cobas 8000","","","","","","","","",141,"2018-12-17T00:00:00","",141,null,141,"","",null,"","",""],[135,"VECTORSTUDYU1","LB","VECTORSTUDYU1-P0003","",135,"","","","UREAN","Urea Nitrogen","CLINICAL CHEMISTRY","","19","mg/dL","","","19",19,"mg/dL",null,null,"","","","","","SERUM","","","","","","","","Cobas 8000","","","","","","","","",141,"2018-12-17T00:00:00","",141,null,141,"","",null,"","",""],[136,"VECTORSTUDYU1","LB","VECTORSTUDYU1-P0401","",136,"","","","UREAN","Urea Nitrogen","CLINICAL CHEMISTRY","","22","mg/dL","","","22",22,"mg/dL",null,null,"","","","","","SERUM","","","","","","","","Cobas 8000","","","","","","","","",141,"2018-12-17T00:00:00","",141,null,141,"","",null,"","",""],[137,"VECTORSTUDYU1","LB","VECTORSTUDYU1-P0402","",137,"","","","UREAN","Urea Nitrogen","CLINICAL CHEMISTRY","","17","mg/dL","","","17",17,"mg/dL",null,null,"","","","","","SERUM","","","","","","","","Cobas 8000","","","","","","","","",141,"2018-12-17T00:00:00","",141,null,141,"","",null,"","",""],[138,"VECTORSTUDYU1","LB","VECTORSTUDYU1-P0403","",138,"","","","UREAN","Urea Nitrogen","CLINICAL CHEMISTRY","","16","mg/dL","","","16",16,"mg/dL",null,null,"","","","","","SERUM","","","","","","","","Cobas 8000","","","","","","","","",141,"2018-12-17T00:00:00","",141,null,141,"","",null,"","",""],[139,"VECTORSTUDYU1","LB","VECTORSTUDYU1-P0001","",139,"","","","UREAN","Urea Nitrogen","CLINICAL CHEMISTRY","","21","mg/dL","","","21",21,"mg/dL",null,null,"","","","","","SERUM","","","","","","","","Cobas 8000","","","","","","","","",169,"2019-01-14T00:00:00","",169,null,169,"","",null,"","",""],[140,"VECTORSTUDYU1","LB","VECTORSTUDYU1-P0002","",140,"","","","UREAN","Urea Nitrogen","CLINICAL CHEMISTRY","","21","mg/dL","","","21",21,"mg/dL",null,null,"","","","","","SERUM","","","","","","","","Cobas 8000","","","","","","","","",169,"2019-01-14T00:00:00","",169,null,169,"","",null,"","",""],[141,"VECTORSTUDYU1","LB","VECTORSTUDYU1-P0003","",141,"","","","UREAN","Urea Nitrogen","CLINICAL CHEMISTRY","","22","mg/dL","","","22",22,"mg/dL",null,null,"","","","","","SERUM","","","","","","","","Cobas 8000","","","","","","","","",169,"2019-01-14T00:00:00","",169,null,169,"","",null,"","",""],[142,"VECTORSTUDYU1","LB","VECTORSTUDYU1-P0401","",142,"","","","UREAN","Urea Nitrogen","CLINICAL CHEMISTRY","","25","mg/dL","","","25",25,"mg/dL",null,null,"","","","","","SERUM","","","","","","","","Cobas 8000","","","","","","","","",169,"2019-01-14T00:00:00","",169,null,169,"","",null,"","",""],[143,"VECTORSTUDYU1","LB","VECTORSTUDYU1-P0402","",143,"","","","UREAN","Urea Nitrogen","CLINICAL CHEMISTRY","","21","mg/dL","","","21",21,"mg/dL",null,null,"","","","","","SERUM","","","","","","","","Cobas 8000","","","","","","","","",169,"2019-01-14T00:00:00","",169,null,169,"","",null,"","",""],[144,"VECTORSTUDYU1","LB","VECTORSTUDYU1-P0403","",144,"","","","UREAN","Urea Nitrogen","CLINICAL CHEMISTRY","","18","mg/dL","","","18",18,"mg/dL",null,null,"","","","","","SERUM","","","","","","","","Cobas 8000","","","","","","","","",169,"2019-01-14T00:00:00","",169,null,169,"","",null,"","",""],[145,"VECTORSTUDYU1","LB","VECTORSTUDYU1-P0001","",145,"","","","CREAT","Creatinine","CLINICAL CHEMISTRY","","1.1","mg/dL","","","1.1",1.1,"mg/dL",null,null,"","","","","","SERUM","","","","","","","","Cobas 8000","","","","","","","","",-47,"2018-06-13T00:00:00","",-47,null,-47,"","",null,"","",""],[146,"VECTORSTUDYU1","LB","VECTORSTUDYU1-P0002","",146,"","","","CREAT","Creatinine","CLINICAL CHEMISTRY","","0.6","mg/dL","","","0.6",0.6,"mg/dL",null,null,"","","","","","SERUM","","","","","","","","Cobas 8000","","","","","","","","",-47,"2018-06-13T00:00:00","",-47,null,-47,"","",null,"","",""],[147,"VECTORSTUDYU1","LB","VECTORSTUDYU1-P0003","",147,"","","","CREAT","Creatinine","CLINICAL CHEMISTRY","","0.7","mg/dL","","","0.7",0.7,"mg/dL",null,null,"","","","","","SERUM","","","","","","","","Cobas 8000","","","","","","","","",-47,"2018-06-13T00:00:00","",-47,null,-47,"","",null,"","",""],[148,"VECTORSTUDYU1","LB","VECTORSTUDYU1-P0401","",148,"","","","CREAT","Creatinine","CLINICAL CHEMISTRY","","0.7","mg/dL","","","0.7",0.7,"mg/dL",null,null,"","","","","","SERUM","","","","","","","","Cobas 8000","","","","","","","","",-47,"2018-06-13T00:00:00","",-47,null,-47,"","",null,"","",""],[149,"VECTORSTUDYU1","LB","VECTORSTUDYU1-P0402","",149,"","","","CREAT","Creatinine","CLINICAL CHEMISTRY","","0.5","mg/dL","","","0.5",0.5,"mg/dL",null,null,"","","","","","SERUM","","","","","","","","Cobas 8000","","","","","","","","",-47,"2018-06-13T00:00:00","",-47,null,-47,"","",null,"","",""],[150,"VECTORSTUDYU1","LB","VECTORSTUDYU1-P0403","",150,"","","","CREAT","Creatinine","CLINICAL CHEMISTRY","","0.7","mg/dL","","","0.7",0.7,"mg/dL",null,null,"","","","","","SERUM","","","","","","","","Cobas 8000","","","","","","","","",-47,"2018-06-13T00:00:00","",-47,null,-47,"","",null,"","",""],[151,"VECTORSTUDYU1","LB","VECTORSTUDYU1-P0001","",151,"","","","CREAT","Creatinine","CLINICAL CHEMISTRY","","0.5","mg/dL","","","0.5",0.5,"mg/dL",null,null,"","","","","","SERUM","","","","","","","","Cobas 8000","","","","","","","","",-27,"2018-07-03T00:00:00","",-27,null,-27,"","",null,"","",""],[152,"VECTORSTUDYU1","LB","VECTORSTUDYU1-P0002","",152,"","","","CREAT","Creatinine","CLINICAL CHEMISTRY","","0.7","mg/dL","","","0.7",0.7,"mg/dL",null,null,"","","","","","SERUM","","","","","","","","Cobas 8000","","","","","","","","",-27,"2018-07-03T00:00:00","",-27,null,-27,"","",null,"","",""],[153,"VECTORSTUDYU1","LB","VECTORSTUDYU1-P0003","",153,"","","","CREAT","Creatinine","CLINICAL CHEMISTRY","","0.7","mg/dL","","","0.7",0.7,"mg/dL",null,null,"","","","","","SERUM","","","","","","","","Cobas 8000","","","","","","","","",-27,"2018-07-03T00:00:00","",-27,null,-27,"","",null,"","",""],[154,"VECTORSTUDYU1","LB","VECTORSTUDYU1-P0401","",154,"","","","CREAT","Creatinine","CLINICAL CHEMISTRY","","0.7","mg/dL","","","0.7",0.7,"mg/dL",null,null,"","","","","","SERUM","","","","","","","","Cobas 8000","","","","","","","","",-27,"2018-07-03T00:00:00","",-27,null,-27,"","",null,"","",""],[155,"VECTORSTUDYU1","LB","VECTORSTUDYU1-P0402","",155,"","","","CREAT","Creatinine","CLINICAL CHEMISTRY","","0.6","mg/dL","","","0.6",0.6,"mg/dL",null,null,"","","","","","SERUM","","","","","","","","Cobas 8000","","","","","","","","",-27,"2018-07-03T00:00:00","",-27,null,-27,"","",null,"","",""],[156,"VECTORSTUDYU1","LB","VECTORSTUDYU1-P0403","",156,"","","","CREAT","Creatinine","CLINICAL CHEMISTRY","","0.8","mg/dL","","","0.8",0.8,"mg/dL",null,null,"","","","","","SERUM","","","","","","","","Cobas 8000","","","","","","","","",-27,"2018-07-03T00:00:00","",-27,null,-27,"","",null,"","",""],[157,"VECTORSTUDYU1","LB","VECTORSTUDYU1-P0001","",157,"","","","CREAT","Creatinine","CLINICAL CHEMISTRY","","0.7","mg/dL","","","0.7",0.7,"mg/dL",null,null,"","","","","","SERUM","","","","","","","","Cobas 8000","Y","","","","","","","",1,"2018-07-30T00:00:00","",1,null,1,"","",null,"","",""],[158,"VECTORSTUDYU1","LB","VECTORSTUDYU1-P0002","",158,"","","","CREAT","Creatinine","CLINICAL CHEMISTRY","","0.7","mg/dL","","","0.7",0.7,"mg/dL",null,null,"","","","","","SERUM","","","","","","","","Cobas 8000","Y","","","","","","","",1,"2018-07-30T00:00:00","",1,null,1,"","",null,"","",""],[159,"VECTORSTUDYU1","LB","VECTORSTUDYU1-P0003","",159,"","","","CREAT","Creatinine","CLINICAL CHEMISTRY","","0.7","mg/dL","","","0.7",0.7,"mg/dL",null,null,"","","","","","SERUM","","","","","","","","Cobas 8000","Y","","","","","","","",1,"2018-07-30T00:00:00","",1,null,1,"","",null,"","",""],[160,"VECTORSTUDYU1","LB","VECTORSTUDYU1-P0401","",160,"","","","CREAT","Creatinine","CLINICAL CHEMISTRY","","0.9","mg/dL","","","0.9",0.9,"mg/dL",null,null,"","","","","","SERUM","","","","","","","","Cobas 8000","Y","","","","","","","",1,"2018-07-30T00:00:00","",1,null,1,"","",null,"","",""],[161,"VECTORSTUDYU1","LB","VECTORSTUDYU1-P0402","",161,"","","","CREAT","Creatinine","CLINICAL CHEMISTRY","","0.6","mg/dL","","","0.6",0.6,"mg/dL",null,null,"","","","","","SERUM","","","","","","","","Cobas 8000","Y","","","","","","","",1,"2018-07-30T00:00:00","",1,null,1,"","",null,"","",""],[162,"VECTORSTUDYU1","LB","VECTORSTUDYU1-P0403","",162,"","","","CREAT","Creatinine","CLINICAL CHEMISTRY","","0.8","mg/dL","","","0.8",0.8,"mg/dL",null,null,"","","","","","SERUM","","","","","","","","Cobas 8000","Y","","","","","","","",1,"2018-07-30T00:00:00","",1,null,1,"","",null,"","",""],[163,"VECTORSTUDYU1","LB","VECTORSTUDYU1-P0001","",163,"","","","CREAT","Creatinine","CLINICAL CHEMISTRY","","0.7","mg/dL","","","0.7",0.7,"mg/dL",null,null,"","","","","","SERUM","","","","","","","","Cobas 8000","","","","","","","","",15,"2018-08-13T00:00:00","",15,null,15,"","",null,"","",""],[164,"VECTORSTUDYU1","LB","VECTORSTUDYU1-P0002","",164,"","","","CREAT","Creatinine","CLINICAL CHEMISTRY","","0.6","mg/dL","","","0.6",0.6,"mg/dL",null,null,"","","","","","SERUM","","","","","","","","Cobas 8000","","","","","","","","",15,"2018-08-13T00:00:00","",15,null,15,"","",null,"","",""],[165,"VECTORSTUDYU1","LB","VECTORSTUDYU1-P0003","",165,"","","","CREAT","Creatinine","CLINICAL CHEMISTRY","","0.7","mg/dL","","","0.7",0.7,"mg/dL",null,null,"","","","","","SERUM","","","","","","","","Cobas 8000","","","","","","","","",15,"2018-08-13T00:00:00","",15,null,15,"","",null,"","",""],[166,"VECTORSTUDYU1","LB","VECTORSTUDYU1-P0401","",166,"","","","CREAT","Creatinine","CLINICAL CHEMISTRY","","0.8","mg/dL","","","0.8",0.8,"mg/dL",null,null,"","","","","","SERUM","","","","","","","","Cobas 8000","","","","","","","","",15,"2018-08-13T00:00:00","",15,null,15,"","",null,"","",""],[167,"VECTORSTUDYU1","LB","VECTORSTUDYU1-P0402","",167,"","","","CREAT","Creatinine","CLINICAL CHEMISTRY","","0.5","mg/dL","","","0.5",0.5,"mg/dL",null,null,"","","","","","SERUM","","","","","","","","Cobas 8000","","","","","","","","",15,"2018-08-13T00:00:00","",15,null,15,"","",null,"","",""],[168,"VECTORSTUDYU1","LB","VECTORSTUDYU1-P0403","",168,"","","","CREAT","Creatinine","CLINICAL CHEMISTRY","","0.8","mg/dL","","","0.8",0.8,"mg/dL",null,null,"","","","","","SERUM","","","","","","","","Cobas 8000","","","","","","","","",15,"2018-08-13T00:00:00","",15,null,15,"","",null,"","",""],[169,"VECTORSTUDYU1","LB","VECTORSTUDYU1-P0001","",169,"","","","CREAT","Creatinine","CLINICAL CHEMISTRY","","0.7","mg/dL","","","0.7",0.7,"mg/dL",null,null,"","","","","","SERUM","","","","","","","","Cobas 8000","","","","","","","","",29,"2018-08-27T00:00:00","",29,null,29,"","",null,"","",""],[170,"VECTORSTUDYU1","LB","VECTORSTUDYU1-P0002","",170,"","","","CREAT","Creatinine","CLINICAL CHEMISTRY","","0.5","mg/dL","","","0.5",0.5,"mg/dL",null,null,"","","","","","SERUM","","","","","","","","Cobas 8000","","","","","","","","",29,"2018-08-27T00:00:00","",29,null,29,"","",null,"","",""],[171,"VECTORSTUDYU1","LB","VECTORSTUDYU1-P0003","",171,"","","","CREAT","Creatinine","CLINICAL CHEMISTRY","","0.7","mg/dL","","","0.7",0.7,"mg/dL",null,null,"","","","","","SERUM","","","","","","","","Cobas 8000","","","","","","","","",29,"2018-08-27T00:00:00","",29,null,29,"","",null,"","",""],[172,"VECTORSTUDYU1","LB","VECTORSTUDYU1-P0401","",172,"","","","CREAT","Creatinine","CLINICAL CHEMISTRY","","0.7","mg/dL","","","0.7",0.7,"mg/dL",null,null,"","","","","","SERUM","","","","","","","","Cobas 8000","","","","","","","","",29,"2018-08-27T00:00:00","",29,null,29,"","",null,"","",""],[173,"VECTORSTUDYU1","LB","VECTORSTUDYU1-P0402","",173,"","","","CREAT","Creatinine","CLINICAL CHEMISTRY","","0.6","mg/dL","","","0.6",0.6,"mg/dL",null,null,"","","","","","SERUM","","","","","","","","Cobas 8000","","","","","","","","",29,"2018-08-27T00:00:00","",29,null,29,"","",null,"","",""],[174,"VECTORSTUDYU1","LB","VECTORSTUDYU1-P0403","",174,"","","","CREAT","Creatinine","CLINICAL CHEMISTRY","","0.8","mg/dL","","","0.8",0.8,"mg/dL",null,null,"","","","","","SERUM","","","","","","","","Cobas 8000","","","","","","","","",29,"2018-08-27T00:00:00","",29,null,29,"","",null,"","",""],[175,"VECTORSTUDYU1","LB","VECTORSTUDYU1-P0001","",175,"","","","CREAT","Creatinine","CLINICAL CHEMISTRY","","0.8","mg/dL","","","0.8",0.8,"mg/dL",null,null,"","","","","","SERUM","","","","","","","","Cobas 8000","","","","","","","","",43,"2018-09-10T00:00:00","",43,null,43,"","",null,"","",""],[176,"VECTORSTUDYU1","LB","VECTORSTUDYU1-P0002","",176,"","","","CREAT","Creatinine","CLINICAL CHEMISTRY","","0.6","mg/dL","","","0.6",0.6,"mg/dL",null,null,"","","","","","SERUM","","","","","","","","Cobas 8000","","","","","","","","",43,"2018-09-10T00:00:00","",43,null,43,"","",null,"","",""],[177,"VECTORSTUDYU1","LB","VECTORSTUDYU1-P0003","",177,"","","","CREAT","Creatinine","CLINICAL CHEMISTRY","","0.6","mg/dL","","","0.6",0.6,"mg/dL",null,null,"","","","","","SERUM","","","","","","","","Cobas 8000","","","","","","","","",43,"2018-09-10T00:00:00","",43,null,43,"","",null,"","",""],[178,"VECTORSTUDYU1","LB","VECTORSTUDYU1-P0401","",178,"","","","CREAT","Creatinine","CLINICAL CHEMISTRY","","0.6","mg/dL","","","0.6",0.6,"mg/dL",null,null,"","","","","","SERUM","","","","","","","","Cobas 8000","","","","","","","","",43,"2018-09-10T00:00:00","",43,null,43,"","",null,"","",""],[179,"VECTORSTUDYU1","LB","VECTORSTUDYU1-P0402","",179,"","","","CREAT","Creatinine","CLINICAL CHEMISTRY","","0.6","mg/dL","","","0.6",0.6,"mg/dL",null,null,"","","","","","SERUM","","","","","","","","Cobas 8000","","","","","","","","",43,"2018-09-10T00:00:00","",43,null,43,"","",null,"","",""],[180,"VECTORSTUDYU1","LB","VECTORSTUDYU1-P0403","",180,"","","","CREAT","Creatinine","CLINICAL CHEMISTRY","","0.7","mg/dL","","","0.7",0.7,"mg/dL",null,null,"","","","","","SERUM","","","","","","","","Cobas 8000","","","","","","","","",43,"2018-09-10T00:00:00","",43,null,43,"","",null,"","",""],[181,"VECTORSTUDYU1","LB","VECTORSTUDYU1-P0001","",181,"","","","CREAT","Creatinine","CLINICAL CHEMISTRY","","0.7","mg/dL","","","0.7",0.7,"mg/dL",null,null,"","","","","","SERUM","","","","","","","","Cobas 8000","","","","","","","","",57,"2018-09-24T00:00:00","",57,null,57,"","",null,"","",""],[182,"VECTORSTUDYU1","LB","VECTORSTUDYU1-P0002","",182,"","","","CREAT","Creatinine","CLINICAL CHEMISTRY","","0.7","mg/dL","","","0.7",0.7,"mg/dL",null,null,"","","","","","SERUM","","","","","","","","Cobas 8000","","","","","","","","",57,"2018-09-24T00:00:00","",57,null,57,"","",null,"","",""],[183,"VECTORSTUDYU1","LB","VECTORSTUDYU1-P0003","",183,"","","","CREAT","Creatinine","CLINICAL CHEMISTRY","","0.6","mg/dL","","","0.6",0.6,"mg/dL",null,null,"","","","","","SERUM","","","","","","","","Cobas 8000","","","","","","","","",57,"2018-09-24T00:00:00","",57,null,57,"","",null,"","",""],[184,"VECTORSTUDYU1","LB","VECTORSTUDYU1-P0401","",184,"","","","CREAT","Creatinine","CLINICAL CHEMISTRY","","0.6","mg/dL","","","0.6",0.6,"mg/dL",null,null,"","","","","","SERUM","","","","","","","","Cobas 8000","","","","","","","","",57,"2018-09-24T00:00:00","",57,null,57,"","",null,"","",""],[185,"VECTORSTUDYU1","LB","VECTORSTUDYU1-P0402","",185,"","","","CREAT","Creatinine","CLINICAL CHEMISTRY","","0.5","mg/dL","","","0.5",0.5,"mg/dL",null,null,"","","","","","SERUM","","","","","","","","Cobas 8000","","","","","","","","",57,"2018-09-24T00:00:00","",57,null,57,"","",null,"","",""],[186,"VECTORSTUDYU1","LB","VECTORSTUDYU1-P0403","",186,"","","","CREAT","Creatinine","CLINICAL CHEMISTRY","","0.7","mg/dL","","","0.7",0.7,"mg/dL",null,null,"","","","","","SERUM","","","","","","","","Cobas 8000","","","","","","","","",57,"2018-09-24T00:00:00","",57,null,57,"","",null,"","",""],[187,"VECTORSTUDYU1","LB","VECTORSTUDYU1-P0001","",187,"","","","CREAT","Creatinine","CLINICAL CHEMISTRY","","0.7","mg/dL","","","0.7",0.7,"mg/dL",null,null,"","","","","","SERUM","","","","","","","","Cobas 8000","","","","","","","","",71,"2018-10-08T00:00:00","",71,null,71,"","",null,"","",""],[188,"VECTORSTUDYU1","LB","VECTORSTUDYU1-P0002","",188,"","","","CREAT","Creatinine","CLINICAL CHEMISTRY","","0.7","mg/dL","","","0.7",0.7,"mg/dL",null,null,"","","","","","SERUM","","","","","","","","Cobas 8000","","","","","","","","",71,"2018-10-08T00:00:00","",71,null,71,"","",null,"","",""],[189,"VECTORSTUDYU1","LB","VECTORSTUDYU1-P0003","",189,"","","","CREAT","Creatinine","CLINICAL CHEMISTRY","","0.6","mg/dL","","","0.6",0.6,"mg/dL",null,null,"","","","","","SERUM","","","","","","","","Cobas 8000","","","","","","","","",71,"2018-10-08T00:00:00","",71,null,71,"","",null,"","",""],[190,"VECTORSTUDYU1","LB","VECTORSTUDYU1-P0401","",190,"","","","CREAT","Creatinine","CLINICAL CHEMISTRY","","0.6","mg/dL","","","0.6",0.6,"mg/dL",null,null,"","","","","","SERUM","","","","","","","","Cobas 8000","","","","","","","","",71,"2018-10-08T00:00:00","",71,null,71,"","",null,"","",""],[191,"VECTORSTUDYU1","LB","VECTORSTUDYU1-P0402","",191,"","","","CREAT","Creatinine","CLINICAL CHEMISTRY","","0.6","mg/dL","","","0.6",0.6,"mg/dL",null,null,"","","","","","SERUM","","","","","","","","Cobas 8000","","","","","","","","",71,"2018-10-08T00:00:00","",71,null,71,"","",null,"","",""],[192,"VECTORSTUDYU1","LB","VECTORSTUDYU1-P0403","",192,"","","","CREAT","Creatinine","CLINICAL CHEMISTRY","","0.7","mg/dL","","","0.7",0.7,"mg/dL",null,null,"","","","","","SERUM","","","","","","","","Cobas 8000","","","","","","","","",71,"2018-10-08T00:00:00","",71,null,71,"","",null,"","",""],[193,"VECTORSTUDYU1","LB","VECTORSTUDYU1-P0001","",193,"","","","CREAT","Creatinine","CLINICAL CHEMISTRY","","0.8","mg/dL","","","0.8",0.8,"mg/dL",null,null,"","","","","","SERUM","","","","","","","","Cobas 8000","","","","","","","","",85,"2018-10-22T00:00:00","",85,null,85,"","",null,"","",""],[194,"VECTORSTUDYU1","LB","VECTORSTUDYU1-P0002","",194,"","","","CREAT","Creatinine","CLINICAL CHEMISTRY","","0.7","mg/dL","","","0.7",0.7,"mg/dL",null,null,"","","","","","SERUM","","","","","","","","Cobas 8000","","","","","","","","",85,"2018-10-22T00:00:00","",85,null,85,"","",null,"","",""],[195,"VECTORSTUDYU1","LB","VECTORSTUDYU1-P0003","",195,"","","","CREAT","Creatinine","CLINICAL CHEMISTRY","","0.7","mg/dL","","","0.7",0.7,"mg/dL",null,null,"","","","","","SERUM","","","","","","","","Cobas 8000","","","","","","","","",85,"2018-10-22T00:00:00","",85,null,85,"","",null,"","",""],[196,"VECTORSTUDYU1","LB","VECTORSTUDYU1-P0401","",196,"","","","CREAT","Creatinine","CLINICAL CHEMISTRY","","0.8","mg/dL","","","0.8",0.8,"mg/dL",null,null,"","","","","","SERUM","","","","","","","","Cobas 8000","","","","","","","","",85,"2018-10-22T00:00:00","",85,null,85,"","",null,"","",""],[197,"VECTORSTUDYU1","LB","VECTORSTUDYU1-P0402","",197,"","","","CREAT","Creatinine","CLINICAL CHEMISTRY","","0.8","mg/dL","","","0.8",0.8,"mg/dL",null,null,"","","","","","SERUM","","","","","","","","Cobas 8000","","","","","","","","",85,"2018-10-22T00:00:00","",85,null,85,"","",null,"","",""],[198,"VECTORSTUDYU1","LB","VECTORSTUDYU1-P0403","",198,"","","","CREAT","Creatinine","CLINICAL CHEMISTRY","","0.8","mg/dL","","","0.8",0.8,"mg/dL",null,null,"","","","","","SERUM","","","","","","","","Cobas 8000","","","","","","","","",85,"2018-10-22T00:00:00","",85,null,85,"","",null,"","",""],[199,"VECTORSTUDYU1","LB","VECTORSTUDYU1-P0001","",199,"","","","CREAT","Creatinine","CLINICAL CHEMISTRY","","0.7","mg/dL","","","0.7",0.7,"mg/dL",null,null,"","","","","","SERUM","","","","","","","","Cobas 8000","","","","","","","","",113,"2018-11-19T00:00:00","",113,null,113,"","",null,"","",""],[200,"VECTORSTUDYU1","LB","VECTORSTUDYU1-P0002","",200,"","","","CREAT","Creatinine","CLINICAL CHEMISTRY","","0.7","mg/dL","","","0.7",0.7,"mg/dL",null,null,"","","","","","SERUM","","","","","","","","Cobas 8000","","","","","","","","",113,"2018-11-19T00:00:00","",113,null,113,"","",null,"","",""],[201,"VECTORSTUDYU1","LB","VECTORSTUDYU1-P0003","",201,"","","","CREAT","Creatinine","CLINICAL CHEMISTRY","","0.7","mg/dL","","","0.7",0.7,"mg/dL",null,null,"","","","","","SERUM","","","","","","","","Cobas 8000","","","","","","","","",113,"2018-11-19T00:00:00","",113,null,113,"","",null,"","",""],[202,"VECTORSTUDYU1","LB","VECTORSTUDYU1-P0401","",202,"","","","CREAT","Creatinine","CLINICAL CHEMISTRY","","0.8","mg/dL","","","0.8",0.8,"mg/dL",null,null,"","","","","","SERUM","","","","","","","","Cobas 8000","","","","","","","","",113,"2018-11-19T00:00:00","",113,null,113,"","",null,"","",""],[203,"VECTORSTUDYU1","LB","VECTORSTUDYU1-P0402","",203,"","","","CREAT","Creatinine","CLINICAL CHEMISTRY","","0.6","mg/dL","","","0.6",0.6,"mg/dL",null,null,"","","","","","SERUM","","","","","","","","Cobas 8000","","","","","","","","",113,"2018-11-19T00:00:00","",113,null,113,"","",null,"","",""],[204,"VECTORSTUDYU1","LB","VECTORSTUDYU1-P0403","",204,"","","","CREAT","Creatinine","CLINICAL CHEMISTRY","","0.8","mg/dL","","","0.8",0.8,"mg/dL",null,null,"","","","","","SERUM","","","","","","","","Cobas 8000","","","","","","","","",113,"2018-11-19T00:00:00","",113,null,113,"","",null,"","",""],[205,"VECTORSTUDYU1","LB","VECTORSTUDYU1-P0001","",205,"","","","CREAT","Creatinine","CLINICAL CHEMISTRY","","0.8","mg/dL","","","0.8",0.8,"mg/dL",null,null,"","","","","","SERUM","","","","","","","","Cobas 8000","","","","","","","","",141,"2018-12-17T00:00:00","",141,null,141,"","",null,"","",""],[206,"VECTORSTUDYU1","LB","VECTORSTUDYU1-P0002","",206,"","","","CREAT","Creatinine","CLINICAL CHEMISTRY","","0.6","mg/dL","","","0.6",0.6,"mg/dL",null,null,"","","","","","SERUM","","","","","","","","Cobas 8000","","","","","","","","",141,"2018-12-17T00:00:00","",141,null,141,"","",null,"","",""],[207,"VECTORSTUDYU1","LB","VECTORSTUDYU1-P0003","",207,"","","","CREAT","Creatinine","CLINICAL CHEMISTRY","","0.7","mg/dL","","","0.7",0.7,"mg/dL",null,null,"","","","","","SERUM","","","","","","","","Cobas 8000","","","","","","","","",141,"2018-12-17T00:00:00","",141,null,141,"","",null,"","",""],[208,"VECTORSTUDYU1","LB","VECTORSTUDYU1-P0401","",208,"","","","CREAT","Creatinine","CLINICAL CHEMISTRY","","0.8","mg/dL","","","0.8",0.8,"mg/dL",null,null,"","","","","","SERUM","","","","","","","","Cobas 8000","","","","","","","","",141,"2018-12-17T00:00:00","",141,null,141,"","",null,"","",""],[209,"VECTORSTUDYU1","LB","VECTORSTUDYU1-P0402","",209,"","","","CREAT","Creatinine","CLINICAL CHEMISTRY","","0.7","mg/dL","","","0.7",0.7,"mg/dL",null,null,"","","","","","SERUM","","","","","","","","Cobas 8000","","","","","","","","",141,"2018-12-17T00:00:00","",141,null,141,"","",null,"","",""],[210,"VECTORSTUDYU1","LB","VECTORSTUDYU1-P0403","",210,"","","","CREAT","Creatinine","CLINICAL CHEMISTRY","","0.8","mg/dL","","","0.8",0.8,"mg/dL",null,null,"","","","","","SERUM","","","","","","","","Cobas 8000","","","","","","","","",141,"2018-12-17T00:00:00","",141,null,141,"","",null,"","",""],[211,"VECTORSTUDYU1","LB","VECTORSTUDYU1-P0001","",211,"","","","CREAT","Creatinine","CLINICAL CHEMISTRY","","0.8","mg/dL","","","0.8",0.8,"mg/dL",null,null,"","","","","","SERUM","","","","","","","","Cobas 8000","","","","","","","","",169,"2019-01-14T00:00:00","",169,null,169,"","",null,"","",""],[212,"VECTORSTUDYU1","LB","VECTORSTUDYU1-P0002","",212,"","","","CREAT","Creatinine","CLINICAL CHEMISTRY","","0.7","mg/dL","","","0.7",0.7,"mg/dL",null,null,"","","","","","SERUM","","","","","","","","Cobas 8000","","","","","","","","",169,"2019-01-14T00:00:00","",169,null,169,"","",null,"","",""],[213,"VECTORSTUDYU1","LB","VECTORSTUDYU1-P0003","",213,"","","","CREAT","Creatinine","CLINICAL CHEMISTRY","","0.6","mg/dL","","","0.6",0.6,"mg/dL",null,null,"","","","","","SERUM","","","","","","","","Cobas 8000","","","","","","","","",169,"2019-01-14T00:00:00","",169,null,169,"","",null,"","",""],[214,"VECTORSTUDYU1","LB","VECTORSTUDYU1-P0401","",214,"","","","CREAT","Creatinine","CLINICAL CHEMISTRY","","0.7","mg/dL","","","0.7",0.7,"mg/dL",null,null,"","","","","","SERUM","","","","","","","","Cobas 8000","","","","","","","","",169,"2019-01-14T00:00:00","",169,null,169,"","",null,"","",""],[215,"VECTORSTUDYU1","LB","VECTORSTUDYU1-P0402","",215,"","","","CREAT","Creatinine","CLINICAL CHEMISTRY","","0.6","mg/dL","","","0.6",0.6,"mg/dL",null,null,"","","","","","SERUM","","","","","","","","Cobas 8000","","","","","","","","",169,"2019-01-14T00:00:00","",169,null,169,"","",null,"","",""],[216,"VECTORSTUDYU1","LB","VECTORSTUDYU1-P0403","",216,"","","","CREAT","Creatinine","CLINICAL CHEMISTRY","","0.7","mg/dL","","","0.7",0.7,"mg/dL",null,null,"","","","","","SERUM","","","","","","","","Cobas 8000","","","","","","","","",169,"2019-01-14T00:00:00","",169,null,169,"","",null,"","",""],[217,"VECTORSTUDYU1","LB","VECTORSTUDYU1-P0001","",217,"","","","PROT","Protein","CLINICAL CHEMISTRY","","9.4","g/dL","","","9.4",9.4,"g/dL",null,null,"","","","","","SERUM","","","","","","","","Cobas 8000","","","","","","","","",-47,"2018-06-13T00:00:00","",-47,null,-47,"","",null,"","",""],[218,"VECTORSTUDYU1","LB","VECTORSTUDYU1-P0002","",218,"","","","PROT","Protein","CLINICAL CHEMISTRY","","7.3","g/dL","","","7.3",7.3,"g/dL",null,null,"","","","","","SERUM","","","","","","","","Cobas 8000","","","","","","","","",-47,"2018-06-13T00:00:00","",-47,null,-47,"","",null,"","",""],[219,"VECTORSTUDYU1","LB","VECTORSTUDYU1-P0003","",219,"","","","PROT","Protein","CLINICAL CHEMISTRY","","8.2","g/dL","","","8.2",8.2,"g/dL",null,null,"","","","","","SERUM","","","","","","","","Cobas 8000","","","","","","","","",-47,"2018-06-13T00:00:00","",-47,null,-47,"","",null,"","",""],[220,"VECTORSTUDYU1","LB","VECTORSTUDYU1-P0401","",220,"","","","PROT","Protein","CLINICAL CHEMISTRY","","8.9","g/dL","","","8.9",8.9,"g/dL",null,null,"","","","","","SERUM","","","","","","","","Cobas 8000","","","","","","","","",-47,"2018-06-13T00:00:00","",-47,null,-47,"","",null,"","",""],[221,"VECTORSTUDYU1","LB","VECTORSTUDYU1-P0402","",221,"","","","PROT","Protein","CLINICAL CHEMISTRY","","7.9","g/dL","","","7.9",7.9,"g/dL",null,null,"","","","","","SERUM","","","","","","","","Cobas 8000","","","","","","","","",-47,"2018-06-13T00:00:00","",-47,null,-47,"","",null,"","",""],[222,"VECTORSTUDYU1","LB","VECTORSTUDYU1-P0403","",222,"","","","PROT","Protein","CLINICAL CHEMISTRY","","7.2","g/dL","","","7.2",7.2,"g/dL",null,null,"","","","","","SERUM","","","","","","","","Cobas 8000","","","","","","","","",-47,"2018-06-13T00:00:00","",-47,null,-47,"","",null,"","",""],[223,"VECTORSTUDYU1","LB","VECTORSTUDYU1-P0001","",223,"","","","PROT","Protein","CLINICAL CHEMISTRY","","7.2","g/dL","","","7.2",7.2,"g/dL",null,null,"","","","","","SERUM","","","","","","","","Cobas 8000","","","","","","","","",-27,"2018-07-03T00:00:00","",-27,null,-27,"","",null,"","",""],[224,"VECTORSTUDYU1","LB","VECTORSTUDYU1-P0002","",224,"","","","PROT","Protein","CLINICAL CHEMISTRY","","7.2","g/dL","","","7.2",7.2,"g/dL",null,null,"","","","","","SERUM","","","","","","","","Cobas 8000","","","","","","","","",-27,"2018-07-03T00:00:00","",-27,null,-27,"","",null,"","",""],[225,"VECTORSTUDYU1","LB","VECTORSTUDYU1-P0003","",225,"","","","PROT","Protein","CLINICAL CHEMISTRY","","8.1","g/dL","","","8.1",8.1,"g/dL",null,null,"","","","","","SERUM","","","","","","","","Cobas 8000","","","","","","","","",-27,"2018-07-03T00:00:00","",-27,null,-27,"","",null,"","",""],[226,"VECTORSTUDYU1","LB","VECTORSTUDYU1-P0401","",226,"","","","PROT","Protein","CLINICAL CHEMISTRY","","7.9","g/dL","","","7.9",7.9,"g/dL",null,null,"","","","","","SERUM","","","","","","","","Cobas 8000","","","","","","","","",-27,"2018-07-03T00:00:00","",-27,null,-27,"","",null,"","",""],[227,"VECTORSTUDYU1","LB","VECTORSTUDYU1-P0402","",227,"","","","PROT","Protein","CLINICAL CHEMISTRY","","7.6","g/dL","","","7.6",7.6,"g/dL",null,null,"","","","","","SERUM","","","","","","","","Cobas 8000","","","","","","","","",-27,"2018-07-03T00:00:00","",-27,null,-27,"","",null,"","",""],[228,"VECTORSTUDYU1","LB","VECTORSTUDYU1-P0403","",228,"","","","PROT","Protein","CLINICAL CHEMISTRY","","6.9","g/dL","","","6.9",6.9,"g/dL",null,null,"","","","","","SERUM","","","","","","","","Cobas 8000","","","","","","","","",-27,"2018-07-03T00:00:00","",-27,null,-27,"","",null,"","",""],[229,"VECTORSTUDYU1","LB","VECTORSTUDYU1-P0001","",229,"","","","PROT","Protein","CLINICAL CHEMISTRY","","7.6","g/dL","","","7.6",7.6,"g/dL",null,null,"","","","","","SERUM","","","","","","","","Cobas 8000","Y","","","","","","","",1,"2018-07-30T00:00:00","",1,null,1,"","",null,"","",""],[230,"VECTORSTUDYU1","LB","VECTORSTUDYU1-P0002","",230,"","","","PROT","Protein","CLINICAL CHEMISTRY","","7.6","g/dL","","","7.6",7.6,"g/dL",null,null,"","","","","","SERUM","","","","","","","","Cobas 8000","Y","","","","","","","",1,"2018-07-30T00:00:00","",1,null,1,"","",null,"","",""],[231,"VECTORSTUDYU1","LB","VECTORSTUDYU1-P0003","",231,"","","","PROT","Protein","CLINICAL CHEMISTRY","","7.7","g/dL","","","7.7",7.7,"g/dL",null,null,"","","","","","SERUM","","","","","","","","Cobas 8000","Y","","","","","","","",1,"2018-07-30T00:00:00","",1,null,1,"","",null,"","",""],[232,"VECTORSTUDYU1","LB","VECTORSTUDYU1-P0401","",232,"","","","PROT","Protein","CLINICAL CHEMISTRY","","8.6","g/dL","","","8.6",8.6,"g/dL",null,null,"","","","","","SERUM","","","","","","","","Cobas 8000","Y","","","","","","","",1,"2018-07-30T00:00:00","",1,null,1,"","",null,"","",""],[233,"VECTORSTUDYU1","LB","VECTORSTUDYU1-P0402","",233,"","","","PROT","Protein","CLINICAL CHEMISTRY","","7.6","g/dL","","","7.6",7.6,"g/dL",null,null,"","","","","","SERUM","","","","","","","","Cobas 8000","Y","","","","","","","",1,"2018-07-30T00:00:00","",1,null,1,"","",null,"","",""],[234,"VECTORSTUDYU1","LB","VECTORSTUDYU1-P0403","",234,"","","","PROT","Protein","CLINICAL CHEMISTRY","","7.2","g/dL","","","7.2",7.2,"g/dL",null,null,"","","","","","SERUM","","","","","","","","Cobas 8000","Y","","","","","","","",1,"2018-07-30T00:00:00","",1,null,1,"","",null,"","",""],[235,"VECTORSTUDYU1","LB","VECTORSTUDYU1-P0001","",235,"","","","PROT","Protein","CLINICAL CHEMISTRY","","7.9","g/dL","","","7.9",7.9,"g/dL",null,null,"","","","","","SERUM","","","","","","","","Cobas 8000","","","","","","","","",15,"2018-08-13T00:00:00","",15,null,15,"","",null,"","",""],[236,"VECTORSTUDYU1","LB","VECTORSTUDYU1-P0002","",236,"","","","PROT","Protein","CLINICAL CHEMISTRY","","7.7","g/dL","","","7.7",7.7,"g/dL",null,null,"","","","","","SERUM","","","","","","","","Cobas 8000","","","","","","","","",15,"2018-08-13T00:00:00","",15,null,15,"","",null,"","",""],[237,"VECTORSTUDYU1","LB","VECTORSTUDYU1-P0003","",237,"","","","PROT","Protein","CLINICAL CHEMISTRY","","8.0","g/dL","","","8.0",8,"g/dL",null,null,"","","","","","SERUM","","","","","","","","Cobas 8000","","","","","","","","",15,"2018-08-13T00:00:00","",15,null,15,"","",null,"","",""],[238,"VECTORSTUDYU1","LB","VECTORSTUDYU1-P0401","",238,"","","","PROT","Protein","CLINICAL CHEMISTRY","","8.6","g/dL","","","8.6",8.6,"g/dL",null,null,"","","","","","SERUM","","","","","","","","Cobas 8000","","","","","","","","",15,"2018-08-13T00:00:00","",15,null,15,"","",null,"","",""],[239,"VECTORSTUDYU1","LB","VECTORSTUDYU1-P0402","",239,"","","","PROT","Protein","CLINICAL CHEMISTRY","","7.8","g/dL","","","7.8",7.8,"g/dL",null,null,"","","","","","SERUM","","","","","","","","Cobas 8000","","","","","","","","",15,"2018-08-13T00:00:00","",15,null,15,"","",null,"","",""],[240,"VECTORSTUDYU1","LB","VECTORSTUDYU1-P0403","",240,"","","","PROT","Protein","CLINICAL CHEMISTRY","","7.3","g/dL","","","7.3",7.3,"g/dL",null,null,"","","","","","SERUM","","","","","","","","Cobas 8000","","","","","","","","",15,"2018-08-13T00:00:00","",15,null,15,"","",null,"","",""],[241,"VECTORSTUDYU1","LB","VECTORSTUDYU1-P0001","",241,"","","","PROT","Protein","CLINICAL CHEMISTRY","","7.4","g/dL","","","7.4",7.4,"g/dL",null,null,"","","","","","SERUM","","","","","","","","Cobas 8000","","","","","","","","",29,"2018-08-27T00:00:00","",29,null,29,"","",null,"","",""],[242,"VECTORSTUDYU1","LB","VECTORSTUDYU1-P0002","",242,"","","","PROT","Protein","CLINICAL CHEMISTRY","","7.2","g/dL","","","7.2",7.2,"g/dL",null,null,"","","","","","SERUM","","","","","","","","Cobas 8000","","","","","","","","",29,"2018-08-27T00:00:00","",29,null,29,"","",null,"","",""],[243,"VECTORSTUDYU1","LB","VECTORSTUDYU1-P0003","",243,"","","","PROT","Protein","CLINICAL CHEMISTRY","","7.6","g/dL","","","7.6",7.6,"g/dL",null,null,"","","","","","SERUM","","","","","","","","Cobas 8000","","","","","","","","",29,"2018-08-27T00:00:00","",29,null,29,"","",null,"","",""],[244,"VECTORSTUDYU1","LB","VECTORSTUDYU1-P0401","",244,"","","","PROT","Protein","CLINICAL CHEMISTRY","","7.9","g/dL","","","7.9",7.9,"g/dL",null,null,"","","","","","SERUM","","","","","","","","Cobas 8000","","","","","","","","",29,"2018-08-27T00:00:00","",29,null,29,"","",null,"","",""],[245,"VECTORSTUDYU1","LB","VECTORSTUDYU1-P0402","",245,"","","","PROT","Protein","CLINICAL CHEMISTRY","","7.6","g/dL","","","7.6",7.6,"g/dL",null,null,"","","","","","SERUM","","","","","","","","Cobas 8000","","","","","","","","",29,"2018-08-27T00:00:00","",29,null,29,"","",null,"","",""],[246,"VECTORSTUDYU1","LB","VECTORSTUDYU1-P0403","",246,"","","","PROT","Protein","CLINICAL CHEMISTRY","","6.9","g/dL","","","6.9",6.9,"g/dL",null,null,"","","","","","SERUM","","","","","","","","Cobas 8000","","","","","","","","",29,"2018-08-27T00:00:00","",29,null,29,"","",null,"","",""],[247,"VECTORSTUDYU1","LB","VECTORSTUDYU1-P0001","",247,"","","","PROT","Protein","CLINICAL CHEMISTRY","","8.0","g/dL","","","8.0",8,"g/dL",null,null,"","","","","","SERUM","","","","","","","","Cobas 8000","","","","","","","","",43,"2018-09-10T00:00:00","",43,null,43,"","",null,"","",""],[248,"VECTORSTUDYU1","LB","VECTORSTUDYU1-P0002","",248,"","","","PROT","Protein","CLINICAL CHEMISTRY","","7.7","g/dL","","","7.7",7.7,"g/dL",null,null,"","","","","","SERUM","","","","","","","","Cobas 8000","","","","","","","","",43,"2018-09-10T00:00:00","",43,null,43,"","",null,"","",""],[249,"VECTORSTUDYU1","LB","VECTORSTUDYU1-P0003","",249,"","","","PROT","Protein","CLINICAL CHEMISTRY","","8.0","g/dL","","","8.0",8,"g/dL",null,null,"","","","","","SERUM","","","","","","","","Cobas 8000","","","","","","","","",43,"2018-09-10T00:00:00","",43,null,43,"","",null,"","",""],[250,"VECTORSTUDYU1","LB","VECTORSTUDYU1-P0401","",250,"","","","PROT","Protein","CLINICAL CHEMISTRY","","8.1","g/dL","","","8.1",8.1,"g/dL",null,null,"","","","","","SERUM","","","","","","","","Cobas 8000","","","","","","","","",43,"2018-09-10T00:00:00","",43,null,43,"","",null,"","",""],[251,"VECTORSTUDYU1","LB","VECTORSTUDYU1-P0402","",251,"","","","PROT","Protein","CLINICAL CHEMISTRY","","7.9","g/dL","","","7.9",7.9,"g/dL",null,null,"","","","","","SERUM","","","","","","","","Cobas 8000","","","","","","","","",43,"2018-09-10T00:00:00","",43,null,43,"","",null,"","",""],[252,"VECTORSTUDYU1","LB","VECTORSTUDYU1-P0403","",252,"","","","PROT","Protein","CLINICAL CHEMISTRY","","7.2","g/dL","","","7.2",7.2,"g/dL",null,null,"","","","","","SERUM","","","","","","","","Cobas 8000","","","","","","","","",43,"2018-09-10T00:00:00","",43,null,43,"","",null,"","",""],[253,"VECTORSTUDYU1","LB","VECTORSTUDYU1-P0001","",253,"","","","PROT","Protein","CLINICAL CHEMISTRY","","7.3","g/dL","","","7.3",7.3,"g/dL",null,null,"","","","","","SERUM","","","","","","","","Cobas 8000","","","","","","","","",57,"2018-09-24T00:00:00","",57,null,57,"","",null,"","",""],[254,"VECTORSTUDYU1","LB","VECTORSTUDYU1-P0002","",254,"","","","PROT","Protein","CLINICAL CHEMISTRY","","7.5","g/dL","","","7.5",7.5,"g/dL",null,null,"","","","","","SERUM","","","","","","","","Cobas 8000","","","","","","","","",57,"2018-09-24T00:00:00","",57,null,57,"","",null,"","",""],[255,"VECTORSTUDYU1","LB","VECTORSTUDYU1-P0003","",255,"","","","PROT","Protein","CLINICAL CHEMISTRY","","7.7","g/dL","","","7.7",7.7,"g/dL",null,null,"","","","","","SERUM","","","","","","","","Cobas 8000","","","","","","","","",57,"2018-09-24T00:00:00","",57,null,57,"","",null,"","",""],[256,"VECTORSTUDYU1","LB","VECTORSTUDYU1-P0401","",256,"","","","PROT","Protein","CLINICAL CHEMISTRY","","8.0","g/dL","","","8.0",8,"g/dL",null,null,"","","","","","SERUM","","","","","","","","Cobas 8000","","","","","","","","",57,"2018-09-24T00:00:00","",57,null,57,"","",null,"","",""],[257,"VECTORSTUDYU1","LB","VECTORSTUDYU1-P0402","",257,"","","","PROT","Protein","CLINICAL CHEMISTRY","","7.5","g/dL","","","7.5",7.5,"g/dL",null,null,"","","","","","SERUM","","","","","","","","Cobas 8000","","","","","","","","",57,"2018-09-24T00:00:00","",57,null,57,"","",null,"","",""],[258,"VECTORSTUDYU1","LB","VECTORSTUDYU1-P0403","",258,"","","","PROT","Protein","CLINICAL CHEMISTRY","","7.0","g/dL","","","7.0",7,"g/dL",null,null,"","","","","","SERUM","","","","","","","","Cobas 8000","","","","","","","","",57,"2018-09-24T00:00:00","",57,null,57,"","",null,"","",""],[259,"VECTORSTUDYU1","LB","VECTORSTUDYU1-P0001","",259,"","","","PROT","Protein","CLINICAL CHEMISTRY","","7.3","g/dL","","","7.3",7.3,"g/dL",null,null,"","","","","","SERUM","","","","","","","","Cobas 8000","","","","","","","","",71,"2018-10-08T00:00:00","",71,null,71,"","",null,"","",""],[260,"VECTORSTUDYU1","LB","VECTORSTUDYU1-P0002","",260,"","","","PROT","Protein","CLINICAL CHEMISTRY","","7.8","g/dL","","","7.8",7.8,"g/dL",null,null,"","","","","","SERUM","","","","","","","","Cobas 8000","","","","","","","","",71,"2018-10-08T00:00:00","",71,null,71,"","",null,"","",""],[261,"VECTORSTUDYU1","LB","VECTORSTUDYU1-P0003","",261,"","","","PROT","Protein","CLINICAL CHEMISTRY","","7.9","g/dL","","","7.9",7.9,"g/dL",null,null,"","","","","","SERUM","","","","","","","","Cobas 8000","","","","","","","","",71,"2018-10-08T00:00:00","",71,null,71,"","",null,"","",""],[262,"VECTORSTUDYU1","LB","VECTORSTUDYU1-P0401","",262,"","","","PROT","Protein","CLINICAL CHEMISTRY","","8.3","g/dL","","","8.3",8.3,"g/dL",null,null,"","","","","","SERUM","","","","","","","","Cobas 8000","","","","","","","","",71,"2018-10-08T00:00:00","",71,null,71,"","",null,"","",""],[263,"VECTORSTUDYU1","LB","VECTORSTUDYU1-P0402","",263,"","","","PROT","Protein","CLINICAL CHEMISTRY","","7.8","g/dL","","","7.8",7.8,"g/dL",null,null,"","","","","","SERUM","","","","","","","","Cobas 8000","","","","","","","","",71,"2018-10-08T00:00:00","",71,null,71,"","",null,"","",""],[264,"VECTORSTUDYU1","LB","VECTORSTUDYU1-P0403","",264,"","","","PROT","Protein","CLINICAL CHEMISTRY","","7.6","g/dL","","","7.6",7.6,"g/dL",null,null,"","","","","","SERUM","","","","","","","","Cobas 8000","","","","","","","","",71,"2018-10-08T00:00:00","",71,null,71,"","",null,"","",""],[265,"VECTORSTUDYU1","LB","VECTORSTUDYU1-P0001","",265,"","","","PROT","Protein","CLINICAL CHEMISTRY","","7.2","g/dL","","","7.2",7.2,"g/dL",null,null,"","","","","","SERUM","","","","","","","","Cobas 8000","","","","","","","","",85,"2018-10-22T00:00:00","",85,null,85,"","",null,"","",""],[266,"VECTORSTUDYU1","LB","VECTORSTUDYU1-P0002","",266,"","","","PROT","Protein","CLINICAL CHEMISTRY","","7.6","g/dL","","","7.6",7.6,"g/dL",null,null,"","","","","","SERUM","","","","","","","","Cobas 8000","","","","","","","","",85,"2018-10-22T00:00:00","",85,null,85,"","",null,"","",""],[267,"VECTORSTUDYU1","LB","VECTORSTUDYU1-P0003","",267,"","","","PROT","Protein","CLINICAL CHEMISTRY","","7.7","g/dL","","","7.7",7.7,"g/dL",null,null,"","","","","","SERUM","","","","","","","","Cobas 8000","","","","","","","","",85,"2018-10-22T00:00:00","",85,null,85,"","",null,"","",""],[268,"VECTORSTUDYU1","LB","VECTORSTUDYU1-P0401","",268,"","","","PROT","Protein","CLINICAL CHEMISTRY","","8.5","g/dL","","","8.5",8.5,"g/dL",null,null,"","","","","","SERUM","","","","","","","","Cobas 8000","","","","","","","","",85,"2018-10-22T00:00:00","",85,null,85,"","",null,"","",""],[269,"VECTORSTUDYU1","LB","VECTORSTUDYU1-P0402","",269,"","","","PROT","Protein","CLINICAL CHEMISTRY","","8.1","g/dL","","","8.1",8.1,"g/dL",null,null,"","","","","","SERUM","","","","","","","","Cobas 8000","","","","","","","","",85,"2018-10-22T00:00:00","",85,null,85,"","",null,"","",""],[270,"VECTORSTUDYU1","LB","VECTORSTUDYU1-P0403","",270,"","","","PROT","Protein","CLINICAL CHEMISTRY","","7.7","g/dL","","","7.7",7.7,"g/dL",null,null,"","","","","","SERUM","","","","","","","","Cobas 8000","","","","","","","","",85,"2018-10-22T00:00:00","",85,null,85,"","",null,"","",""],[271,"VECTORSTUDYU1","LB","VECTORSTUDYU1-P0001","",271,"","","","PROT","Protein","CLINICAL CHEMISTRY","","7.6","g/dL","","","7.6",7.6,"g/dL",null,null,"","","","","","SERUM","","","","","","","","Cobas 8000","","","","","","","","",113,"2018-11-19T00:00:00","",113,null,113,"","",null,"","",""],[272,"VECTORSTUDYU1","LB","VECTORSTUDYU1-P0002","",272,"","","","PROT","Protein","CLINICAL CHEMISTRY","","7.7","g/dL","","","7.7",7.7,"g/dL",null,null,"","","","","","SERUM","","","","","","","","Cobas 8000","","","","","","","","",113,"2018-11-19T00:00:00","",113,null,113,"","",null,"","",""],[273,"VECTORSTUDYU1","LB","VECTORSTUDYU1-P0003","",273,"","","","PROT","Protein","CLINICAL CHEMISTRY","","7.9","g/dL","","","7.9",7.9,"g/dL",null,null,"","","","","","SERUM","","","","","","","","Cobas 8000","","","","","","","","",113,"2018-11-19T00:00:00","",113,null,113,"","",null,"","",""],[274,"VECTORSTUDYU1","LB","VECTORSTUDYU1-P0401","",274,"","","","PROT","Protein","CLINICAL CHEMISTRY","","8.2","g/dL","","","8.2",8.2,"g/dL",null,null,"","","","","","SERUM","","","","","","","","Cobas 8000","","","","","","","","",113,"2018-11-19T00:00:00","",113,null,113,"","",null,"","",""],[275,"VECTORSTUDYU1","LB","VECTORSTUDYU1-P0402","",275,"","","","PROT","Protein","CLINICAL CHEMISTRY","","7.4","g/dL","","","7.4",7.4,"g/dL",null,null,"","","","","","SERUM","","","","","","","","Cobas 8000","","","","","","","","",113,"2018-11-19T00:00:00","",113,null,113,"","",null,"","",""],[276,"VECTORSTUDYU1","LB","VECTORSTUDYU1-P0403","",276,"","","","PROT","Protein","CLINICAL CHEMISTRY","","7.5","g/dL","","","7.5",7.5,"g/dL",null,null,"","","","","","SERUM","","","","","","","","Cobas 8000","","","","","","","","",113,"2018-11-19T00:00:00","",113,null,113,"","",null,"","",""],[277,"VECTORSTUDYU1","LB","VECTORSTUDYU1-P0001","",277,"","","","PROT","Protein","CLINICAL CHEMISTRY","","6.9","g/dL","","","6.9",6.9,"g/dL",null,null,"","","","","","SERUM","","","","","","","","Cobas 8000","","","","","","","","",141,"2018-12-17T00:00:00","",141,null,141,"","",null,"","",""],[278,"VECTORSTUDYU1","LB","VECTORSTUDYU1-P0002","",278,"","","","PROT","Protein","CLINICAL CHEMISTRY","","7.8","g/dL","","","7.8",7.8,"g/dL",null,null,"","","","","","SERUM","","","","","","","","Cobas 8000","","","","","","","","",141,"2018-12-17T00:00:00","",141,null,141,"","",null,"","",""],[279,"VECTORSTUDYU1","LB","VECTORSTUDYU1-P0003","",279,"","","","PROT","Protein","CLINICAL CHEMISTRY","","7.2","g/dL","","","7.2",7.2,"g/dL",null,null,"","","","","","SERUM","","","","","","","","Cobas 8000","","","","","","","","",141,"2018-12-17T00:00:00","",141,null,141,"","",null,"","",""],[280,"VECTORSTUDYU1","LB","VECTORSTUDYU1-P0401","",280,"","","","PROT","Protein","CLINICAL CHEMISTRY","","7.6","g/dL","","","7.6",7.6,"g/dL",null,null,"","","","","","SERUM","","","","","","","","Cobas 8000","","","","","","","","",141,"2018-12-17T00:00:00","",141,null,141,"","",null,"","",""],[281,"VECTORSTUDYU1","LB","VECTORSTUDYU1-P0402","",281,"","","","PROT","Protein","CLINICAL CHEMISTRY","","7.1","g/dL","","","7.1",7.1,"g/dL",null,null,"","","","","","SERUM","","","","","","","","Cobas 8000","","","","","","","","",141,"2018-12-17T00:00:00","",141,null,141,"","",null,"","",""],[282,"VECTORSTUDYU1","LB","VECTORSTUDYU1-P0403","",282,"","","","PROT","Protein","CLINICAL CHEMISTRY","","7.0","g/dL","","","7.0",7,"g/dL",null,null,"","","","","","SERUM","","","","","","","","Cobas 8000","","","","","","","","",141,"2018-12-17T00:00:00","",141,null,141,"","",null,"","",""],[283,"VECTORSTUDYU1","LB","VECTORSTUDYU1-P0001","",283,"","","","PROT","Protein","CLINICAL CHEMISTRY","","7.1","g/dL","","","7.1",7.1,"g/dL",null,null,"","","","","","SERUM","","","","","","","","Cobas 8000","","","","","","","","",169,"2019-01-14T00:00:00","",169,null,169,"","",null,"","",""],[284,"VECTORSTUDYU1","LB","VECTORSTUDYU1-P0002","",284,"","","","PROT","Protein","CLINICAL CHEMISTRY","","7.5","g/dL","","","7.5",7.5,"g/dL",null,null,"","","","","","SERUM","","","","","","","","Cobas 8000","","","","","","","","",169,"2019-01-14T00:00:00","",169,null,169,"","",null,"","",""],[285,"VECTORSTUDYU1","LB","VECTORSTUDYU1-P0003","",285,"","","","PROT","Protein","CLINICAL CHEMISTRY","","7.2","g/dL","","","7.2",7.2,"g/dL",null,null,"","","","","","SERUM","","","","","","","","Cobas 8000","","","","","","","","",169,"2019-01-14T00:00:00","",169,null,169,"","",null,"","",""],[286,"VECTORSTUDYU1","LB","VECTORSTUDYU1-P0401","",286,"","","","PROT","Protein","CLINICAL CHEMISTRY","","7.5","g/dL","","","7.5",7.5,"g/dL",null,null,"","","","","","SERUM","","","","","","","","Cobas 8000","","","","","","","","",169,"2019-01-14T00:00:00","",169,null,169,"","",null,"","",""],[287,"VECTORSTUDYU1","LB","VECTORSTUDYU1-P0402","",287,"","","","PROT","Protein","CLINICAL CHEMISTRY","","7.6","g/dL","","","7.6",7.6,"g/dL",null,null,"","","","","","SERUM","","","","","","","","Cobas 8000","","","","","","","","",169,"2019-01-14T00:00:00","",169,null,169,"","",null,"","",""],[288,"VECTORSTUDYU1","LB","VECTORSTUDYU1-P0403","",288,"","","","PROT","Protein","CLINICAL CHEMISTRY","","6.8","g/dL","","","6.8",6.8,"g/dL",null,null,"","","","","","SERUM","","","","","","","","Cobas 8000","","","","","","","","",169,"2019-01-14T00:00:00","",169,null,169,"","",null,"","",""],[289,"VECTORSTUDYU1","LB","VECTORSTUDYU1-P0001","",289,"","","","ALB","Albumin","CLINICAL CHEMISTRY","","5.7","g/dL","","","5.7",5.7,"g/dL",null,null,"","","","","","SERUM","","","","","","","","Cobas 8000","","","","","","","","",-47,"2018-06-13T00:00:00","",-47,null,-47,"","",null,"","",""],[290,"VECTORSTUDYU1","LB","VECTORSTUDYU1-P0002","",290,"","","","ALB","Albumin","CLINICAL CHEMISTRY","","4.8","g/dL","","","4.8",4.8,"g/dL",null,null,"","","","","","SERUM","","","","","","","","Cobas 8000","","","","","","","","",-47,"2018-06-13T00:00:00","",-47,null,-47,"","",null,"","",""],[291,"VECTORSTUDYU1","LB","VECTORSTUDYU1-P0003","",291,"","","","ALB","Albumin","CLINICAL CHEMISTRY","","5.1","g/dL","","","5.1",5.1,"g/dL",null,null,"","","","","","SERUM","","","","","","","","Cobas 8000","","","","","","","","",-47,"2018-06-13T00:00:00","",-47,null,-47,"","",null,"","",""],[292,"VECTORSTUDYU1","LB","VECTORSTUDYU1-P0401","",292,"","","","ALB","Albumin","CLINICAL CHEMISTRY","","5.7","g/dL","","","5.7",5.7,"g/dL",null,null,"","","","","","SERUM","","","","","","","","Cobas 8000","","","","","","","","",-47,"2018-06-13T00:00:00","",-47,null,-47,"","",null,"","",""],[293,"VECTORSTUDYU1","LB","VECTORSTUDYU1-P0402","",293,"","","","ALB","Albumin","CLINICAL CHEMISTRY","","5.1","g/dL","","","5.1",5.1,"g/dL",null,null,"","","","","","SERUM","","","","","","","","Cobas 8000","","","","","","","","",-47,"2018-06-13T00:00:00","",-47,null,-47,"","",null,"","",""],[294,"VECTORSTUDYU1","LB","VECTORSTUDYU1-P0403","",294,"","","","ALB","Albumin","CLINICAL CHEMISTRY","","4.8","g/dL","","","4.8",4.8,"g/dL",null,null,"","","","","","SERUM","","","","","","","","Cobas 8000","","","","","","","","",-47,"2018-06-13T00:00:00","",-47,null,-47,"","",null,"","",""],[295,"VECTORSTUDYU1","LB","VECTORSTUDYU1-P0001","",295,"","","","ALB","Albumin","CLINICAL CHEMISTRY","","4.3","g/dL","","","4.3",4.3,"g/dL",null,null,"","","","","","SERUM","","","","","","","","Cobas 8000","","","","","","","","",-27,"2018-07-03T00:00:00","",-27,null,-27,"","",null,"","",""],[296,"VECTORSTUDYU1","LB","VECTORSTUDYU1-P0002","",296,"","","","ALB","Albumin","CLINICAL CHEMISTRY","","4.9","g/dL","","","4.9",4.9,"g/dL",null,null,"","","","","","SERUM","","","","","","","","Cobas 8000","","","","","","","","",-27,"2018-07-03T00:00:00","",-27,null,-27,"","",null,"","",""],[297,"VECTORSTUDYU1","LB","VECTORSTUDYU1-P0003","",297,"","","","ALB","Albumin","CLINICAL CHEMISTRY","","5.1","g/dL","","","5.1",5.1,"g/dL",null,null,"","","","","","SERUM","","","","","","","","Cobas 8000","","","","","","","","",-27,"2018-07-03T00:00:00","",-27,null,-27,"","",null,"","",""],[298,"VECTORSTUDYU1","LB","VECTORSTUDYU1-P0401","",298,"","","","ALB","Albumin","CLINICAL CHEMISTRY","","5.1","g/dL","","","5.1",5.1,"g/dL",null,null,"","","","","","SERUM","","","","","","","","Cobas 8000","","","","","","","","",-27,"2018-07-03T00:00:00","",-27,null,-27,"","",null,"","",""],[299,"VECTORSTUDYU1","LB","VECTORSTUDYU1-P0402","",299,"","","","ALB","Albumin","CLINICAL CHEMISTRY","","4.9","g/dL","","","4.9",4.9,"g/dL",null,null,"","","","","","SERUM","","","","","","","","Cobas 8000","","","","","","","","",-27,"2018-07-03T00:00:00","",-27,null,-27,"","",null,"","",""],[300,"VECTORSTUDYU1","LB","VECTORSTUDYU1-P0403","",300,"","","","ALB","Albumin","CLINICAL CHEMISTRY","","4.6","g/dL","","","4.6",4.6,"g/dL",null,null,"","","","","","SERUM","","","","","","","","Cobas 8000","","","","","","","","",-27,"2018-07-03T00:00:00","",-27,null,-27,"","",null,"","",""],[301,"VECTORSTUDYU1","LB","VECTORSTUDYU1-P0001","",301,"","","","ALB","Albumin","CLINICAL CHEMISTRY","","4.6","g/dL","","","4.6",4.6,"g/dL",null,null,"","","","","","SERUM","","","","","","","","Cobas 8000","Y","","","","","","","",1,"2018-07-30T00:00:00","",1,null,1,"","",null,"","",""],[302,"VECTORSTUDYU1","LB","VECTORSTUDYU1-P0002","",302,"","","","ALB","Albumin","CLINICAL CHEMISTRY","","5.2","g/dL","","","5.2",5.2,"g/dL",null,null,"","","","","","SERUM","","","","","","","","Cobas 8000","Y","","","","","","","",1,"2018-07-30T00:00:00","",1,null,1,"","",null,"","",""],[303,"VECTORSTUDYU1","LB","VECTORSTUDYU1-P0003","",303,"","","","ALB","Albumin","CLINICAL CHEMISTRY","","4.9","g/dL","","","4.9",4.9,"g/dL",null,null,"","","","","","SERUM","","","","","","","","Cobas 8000","Y","","","","","","","",1,"2018-07-30T00:00:00","",1,null,1,"","",null,"","",""],[304,"VECTORSTUDYU1","LB","VECTORSTUDYU1-P0401","",304,"","","","ALB","Albumin","CLINICAL CHEMISTRY","","5.8","g/dL","","","5.8",5.8,"g/dL",null,null,"","","","","","SERUM","","","","","","","","Cobas 8000","Y","","","","","","","",1,"2018-07-30T00:00:00","",1,null,1,"","",null,"","",""],[305,"VECTORSTUDYU1","LB","VECTORSTUDYU1-P0402","",305,"","","","ALB","Albumin","CLINICAL CHEMISTRY","","5.1","g/dL","","","5.1",5.1,"g/dL",null,null,"","","","","","SERUM","","","","","","","","Cobas 8000","Y","","","","","","","",1,"2018-07-30T00:00:00","",1,null,1,"","",null,"","",""],[306,"VECTORSTUDYU1","LB","VECTORSTUDYU1-P0403","",306,"","","","ALB","Albumin","CLINICAL CHEMISTRY","","4.8","g/dL","","","4.8",4.8,"g/dL",null,null,"","","","","","SERUM","","","","","","","","Cobas 8000","Y","","","","","","","",1,"2018-07-30T00:00:00","",1,null,1,"","",null,"","",""],[307,"VECTORSTUDYU1","LB","VECTORSTUDYU1-P0001","",307,"","","","ALB","Albumin","CLINICAL CHEMISTRY","","4.7","g/dL","","","4.7",4.7,"g/dL",null,null,"","","","","","SERUM","","","","","","","","Cobas 8000","","","","","","","","",15,"2018-08-13T00:00:00","",15,null,15,"","",null,"","",""],[308,"VECTORSTUDYU1","LB","VECTORSTUDYU1-P0002","",308,"","","","ALB","Albumin","CLINICAL CHEMISTRY","","5.3","g/dL","","","5.3",5.3,"g/dL",null,null,"","","","","","SERUM","","","","","","","","Cobas 8000","","","","","","","","",15,"2018-08-13T00:00:00","",15,null,15,"","",null,"","",""],[309,"VECTORSTUDYU1","LB","VECTORSTUDYU1-P0003","",309,"","","","ALB","Albumin","CLINICAL CHEMISTRY","","5.1","g/dL","","","5.1",5.1,"g/dL",null,null,"","","","","","SERUM","","","","","","","","Cobas 8000","","","","","","","","",15,"2018-08-13T00:00:00","",15,null,15,"","",null,"","",""],[310,"VECTORSTUDYU1","LB","VECTORSTUDYU1-P0401","",310,"","","","ALB","Albumin","CLINICAL CHEMISTRY","","5.6","g/dL","","","5.6",5.6,"g/dL",null,null,"","","","","","SERUM","","","","","","","","Cobas 8000","","","","","","","","",15,"2018-08-13T00:00:00","",15,null,15,"","",null,"","",""],[311,"VECTORSTUDYU1","LB","VECTORSTUDYU1-P0402","",311,"","","","ALB","Albumin","CLINICAL CHEMISTRY","","5.1","g/dL","","","5.1",5.1,"g/dL",null,null,"","","","","","SERUM","","","","","","","","Cobas 8000","","","","","","","","",15,"2018-08-13T00:00:00","",15,null,15,"","",null,"","",""],[312,"VECTORSTUDYU1","LB","VECTORSTUDYU1-P0403","",312,"","","","ALB","Albumin","CLINICAL CHEMISTRY","","5.0","g/dL","","","5.0",5,"g/dL",null,null,"","","","","","SERUM","","","","","","","","Cobas 8000","","","","","","","","",15,"2018-08-13T00:00:00","",15,null,15,"","",null,"","",""],[313,"VECTORSTUDYU1","LB","VECTORSTUDYU1-P0001","",313,"","","","ALB","Albumin","CLINICAL CHEMISTRY","","4.3","g/dL","","","4.3",4.3,"g/dL",null,null,"","","","","","SERUM","","","","","","","","Cobas 8000","","","","","","","","",29,"2018-08-27T00:00:00","",29,null,29,"","",null,"","",""],[314,"VECTORSTUDYU1","LB","VECTORSTUDYU1-P0002","",314,"","","","ALB","Albumin","CLINICAL CHEMISTRY","","5.2","g/dL","","","5.2",5.2,"g/dL",null,null,"","","","","","SERUM","","","","","","","","Cobas 8000","","","","","","","","",29,"2018-08-27T00:00:00","",29,null,29,"","",null,"","",""],[315,"VECTORSTUDYU1","LB","VECTORSTUDYU1-P0003","",315,"","","","ALB","Albumin","CLINICAL CHEMISTRY","","5.0","g/dL","","","5.0",5,"g/dL",null,null,"","","","","","SERUM","","","","","","","","Cobas 8000","","","","","","","","",29,"2018-08-27T00:00:00","",29,null,29,"","",null,"","",""],[316,"VECTORSTUDYU1","LB","VECTORSTUDYU1-P0401","",316,"","","","ALB","Albumin","CLINICAL CHEMISTRY","","5.4","g/dL","","","5.4",5.4,"g/dL",null,null,"","","","","","SERUM","","","","","","","","Cobas 8000","","","","","","","","",29,"2018-08-27T00:00:00","",29,null,29,"","",null,"","",""],[317,"VECTORSTUDYU1","LB","VECTORSTUDYU1-P0402","",317,"","","","ALB","Albumin","CLINICAL CHEMISTRY","","5.2","g/dL","","","5.2",5.2,"g/dL",null,null,"","","","","","SERUM","","","","","","","","Cobas 8000","","","","","","","","",29,"2018-08-27T00:00:00","",29,null,29,"","",null,"","",""],[318,"VECTORSTUDYU1","LB","VECTORSTUDYU1-P0403","",318,"","","","ALB","Albumin","CLINICAL CHEMISTRY","","4.8","g/dL","","","4.8",4.8,"g/dL",null,null,"","","","","","SERUM","","","","","","","","Cobas 8000","","","","","","","","",29,"2018-08-27T00:00:00","",29,null,29,"","",null,"","",""],[319,"VECTORSTUDYU1","LB","VECTORSTUDYU1-P0001","",319,"","","","ALB","Albumin","CLINICAL CHEMISTRY","","4.4","g/dL","","","4.4",4.4,"g/dL",null,null,"","","","","","SERUM","","","","","","","","Cobas 8000","","","","","","","","",43,"2018-09-10T00:00:00","",43,null,43,"","",null,"","",""],[320,"VECTORSTUDYU1","LB","VECTORSTUDYU1-P0002","",320,"","","","ALB","Albumin","CLINICAL CHEMISTRY","","5.3","g/dL","","","5.3",5.3,"g/dL",null,null,"","","","","","SERUM","","","","","","","","Cobas 8000","","","","","","","","",43,"2018-09-10T00:00:00","",43,null,43,"","",null,"","",""],[321,"VECTORSTUDYU1","LB","VECTORSTUDYU1-P0003","",321,"","","","ALB","Albumin","CLINICAL CHEMISTRY","","5.2","g/dL","","","5.2",5.2,"g/dL",null,null,"","","","","","SERUM","","","","","","","","Cobas 8000","","","","","","","","",43,"2018-09-10T00:00:00","",43,null,43,"","",null,"","",""],[322,"VECTORSTUDYU1","LB","VECTORSTUDYU1-P0401","",322,"","","","ALB","Albumin","CLINICAL CHEMISTRY","","5.2","g/dL","","","5.2",5.2,"g/dL",null,null,"","","","","","SERUM","","","","","","","","Cobas 8000","","","","","","","","",43,"2018-09-10T00:00:00","",43,null,43,"","",null,"","",""],[323,"VECTORSTUDYU1","LB","VECTORSTUDYU1-P0402","",323,"","","","ALB","Albumin","CLINICAL CHEMISTRY","","5.2","g/dL","","","5.2",5.2,"g/dL",null,null,"","","","","","SERUM","","","","","","","","Cobas 8000","","","","","","","","",43,"2018-09-10T00:00:00","",43,null,43,"","",null,"","",""],[324,"VECTORSTUDYU1","LB","VECTORSTUDYU1-P0403","",324,"","","","ALB","Albumin","CLINICAL CHEMISTRY","","4.8","g/dL","","","4.8",4.8,"g/dL",null,null,"","","","","","SERUM","","","","","","","","Cobas 8000","","","","","","","","",43,"2018-09-10T00:00:00","",43,null,43,"","",null,"","",""],[325,"VECTORSTUDYU1","LB","VECTORSTUDYU1-P0001","",325,"","","","ALB","Albumin","CLINICAL CHEMISTRY","","4.2","g/dL","","","4.2",4.2,"g/dL",null,null,"","","","","","SERUM","","","","","","","","Cobas 8000","","","","","","","","",57,"2018-09-24T00:00:00","",57,null,57,"","",null,"","",""],[326,"VECTORSTUDYU1","LB","VECTORSTUDYU1-P0002","",326,"","","","ALB","Albumin","CLINICAL CHEMISTRY","","5.2","g/dL","","","5.2",5.2,"g/dL",null,null,"","","","","","SERUM","","","","","","","","Cobas 8000","","","","","","","","",57,"2018-09-24T00:00:00","",57,null,57,"","",null,"","",""],[327,"VECTORSTUDYU1","LB","VECTORSTUDYU1-P0003","",327,"","","","ALB","Albumin","CLINICAL CHEMISTRY","","4.9","g/dL","","","4.9",4.9,"g/dL",null,null,"","","","","","SERUM","","","","","","","","Cobas 8000","","","","","","","","",57,"2018-09-24T00:00:00","",57,null,57,"","",null,"","",""],[328,"VECTORSTUDYU1","LB","VECTORSTUDYU1-P0401","",328,"","","","ALB","Albumin","CLINICAL CHEMISTRY","","5.1","g/dL","","","5.1",5.1,"g/dL",null,null,"","","","","","SERUM","","","","","","","","Cobas 8000","","","","","","","","",57,"2018-09-24T00:00:00","",57,null,57,"","",null,"","",""],[329,"VECTORSTUDYU1","LB","VECTORSTUDYU1-P0402","",329,"","","","ALB","Albumin","CLINICAL CHEMISTRY","","4.8","g/dL","","","4.8",4.8,"g/dL",null,null,"","","","","","SERUM","","","","","","","","Cobas 8000","","","","","","","","",57,"2018-09-24T00:00:00","",57,null,57,"","",null,"","",""],[330,"VECTORSTUDYU1","LB","VECTORSTUDYU1-P0403","",330,"","","","ALB","Albumin","CLINICAL CHEMISTRY","","4.6","g/dL","","","4.6",4.6,"g/dL",null,null,"","","","","","SERUM","","","","","","","","Cobas 8000","","","","","","","","",57,"2018-09-24T00:00:00","",57,null,57,"","",null,"","",""],[331,"VECTORSTUDYU1","LB","VECTORSTUDYU1-P0001","",331,"","","","ALB","Albumin","CLINICAL CHEMISTRY","","4.0","g/dL","","","4.0",4,"g/dL",null,null,"","","","","","SERUM","","","","","","","","Cobas 8000","","","","","","","","",71,"2018-10-08T00:00:00","",71,null,71,"","",null,"","",""],[332,"VECTORSTUDYU1","LB","VECTORSTUDYU1-P0002","",332,"","","","ALB","Albumin","CLINICAL CHEMISTRY","","5.0","g/dL","","","5.0",5,"g/dL",null,null,"","","","","","SERUM","","","","","","","","Cobas 8000","","","","","","","","",71,"2018-10-08T00:00:00","",71,null,71,"","",null,"","",""],[333,"VECTORSTUDYU1","LB","VECTORSTUDYU1-P0003","",333,"","","","ALB","Albumin","CLINICAL CHEMISTRY","","4.9","g/dL","","","4.9",4.9,"g/dL",null,null,"","","","","","SERUM","","","","","","","","Cobas 8000","","","","","","","","",71,"2018-10-08T00:00:00","",71,null,71,"","",null,"","",""],[334,"VECTORSTUDYU1","LB","VECTORSTUDYU1-P0401","",334,"","","","ALB","Albumin","CLINICAL CHEMISTRY","","5.0","g/dL","","","5.0",5,"g/dL",null,null,"","","","","","SERUM","","","","","","","","Cobas 8000","","","","","","","","",71,"2018-10-08T00:00:00","",71,null,71,"","",null,"","",""],[335,"VECTORSTUDYU1","LB","VECTORSTUDYU1-P0402","",335,"","","","ALB","Albumin","CLINICAL CHEMISTRY","","4.8","g/dL","","","4.8",4.8,"g/dL",null,null,"","","","","","SERUM","","","","","","","","Cobas 8000","","","","","","","","",71,"2018-10-08T00:00:00","",71,null,71,"","",null,"","",""],[336,"VECTORSTUDYU1","LB","VECTORSTUDYU1-P0403","",336,"","","","ALB","Albumin","CLINICAL CHEMISTRY","","4.7","g/dL","","","4.7",4.7,"g/dL",null,null,"","","","","","SERUM","","","","","","","","Cobas 8000","","","","","","","","",71,"2018-10-08T00:00:00","",71,null,71,"","",null,"","",""],[337,"VECTORSTUDYU1","LB","VECTORSTUDYU1-P0001","",337,"","","","ALB","Albumin","CLINICAL CHEMISTRY","","4.1","g/dL","","","4.1",4.1,"g/dL",null,null,"","","","","","SERUM","","","","","","","","Cobas 8000","","","","","","","","",85,"2018-10-22T00:00:00","",85,null,85,"","",null,"","",""],[338,"VECTORSTUDYU1","LB","VECTORSTUDYU1-P0002","",338,"","","","ALB","Albumin","CLINICAL CHEMISTRY","","5.0","g/dL","","","5.0",5,"g/dL",null,null,"","","","","","SERUM","","","","","","","","Cobas 8000","","","","","","","","",85,"2018-10-22T00:00:00","",85,null,85,"","",null,"","",""],[339,"VECTORSTUDYU1","LB","VECTORSTUDYU1-P0003","",339,"","","","ALB","Albumin","CLINICAL CHEMISTRY","","4.8","g/dL","","","4.8",4.8,"g/dL",null,null,"","","","","","SERUM","","","","","","","","Cobas 8000","","","","","","","","",85,"2018-10-22T00:00:00","",85,null,85,"","",null,"","",""],[340,"VECTORSTUDYU1","LB","VECTORSTUDYU1-P0401","",340,"","","","ALB","Albumin","CLINICAL CHEMISTRY","","5.1","g/dL","","","5.1",5.1,"g/dL",null,null,"","","","","","SERUM","","","","","","","","Cobas 8000","","","","","","","","",85,"2018-10-22T00:00:00","",85,null,85,"","",null,"","",""],[341,"VECTORSTUDYU1","LB","VECTORSTUDYU1-P0402","",341,"","","","ALB","Albumin","CLINICAL CHEMISTRY","","5.1","g/dL","","","5.1",5.1,"g/dL",null,null,"","","","","","SERUM","","","","","","","","Cobas 8000","","","","","","","","",85,"2018-10-22T00:00:00","",85,null,85,"","",null,"","",""],[342,"VECTORSTUDYU1","LB","VECTORSTUDYU1-P0403","",342,"","","","ALB","Albumin","CLINICAL CHEMISTRY","","4.9","g/dL","","","4.9",4.9,"g/dL",null,null,"","","","","","SERUM","","","","","","","","Cobas 8000","","","","","","","","",85,"2018-10-22T00:00:00","",85,null,85,"","",null,"","",""],[343,"VECTORSTUDYU1","LB","VECTORSTUDYU1-P0001","",343,"","","","ALB","Albumin","CLINICAL CHEMISTRY","","4.3","g/dL","","","4.3",4.3,"g/dL",null,null,"","","","","","SERUM","","","","","","","","Cobas 8000","","","","","","","","",113,"2018-11-19T00:00:00","",113,null,113,"","",null,"","",""],[344,"VECTORSTUDYU1","LB","VECTORSTUDYU1-P0002","",344,"","","","ALB","Albumin","CLINICAL CHEMISTRY","","4.9","g/dL","","","4.9",4.9,"g/dL",null,null,"","","","","","SERUM","","","","","","","","Cobas 8000","","","","","","","","",113,"2018-11-19T00:00:00","",113,null,113,"","",null,"","",""],[345,"VECTORSTUDYU1","LB","VECTORSTUDYU1-P0003","",345,"","","","ALB","Albumin","CLINICAL CHEMISTRY","","5.2","g/dL","","","5.2",5.2,"g/dL",null,null,"","","","","","SERUM","","","","","","","","Cobas 8000","","","","","","","","",113,"2018-11-19T00:00:00","",113,null,113,"","",null,"","",""],[346,"VECTORSTUDYU1","LB","VECTORSTUDYU1-P0401","",346,"","","","ALB","Albumin","CLINICAL CHEMISTRY","","5.0","g/dL","","","5.0",5,"g/dL",null,null,"","","","","","SERUM","","","","","","","","Cobas 8000","","","","","","","","",113,"2018-11-19T00:00:00","",113,null,113,"","",null,"","",""],[347,"VECTORSTUDYU1","LB","VECTORSTUDYU1-P0402","",347,"","","","ALB","Albumin","CLINICAL CHEMISTRY","","4.6","g/dL","","","4.6",4.6,"g/dL",null,null,"","","","","","SERUM","","","","","","","","Cobas 8000","","","","","","","","",113,"2018-11-19T00:00:00","",113,null,113,"","",null,"","",""],[348,"VECTORSTUDYU1","LB","VECTORSTUDYU1-P0403","",348,"","","","ALB","Albumin","CLINICAL CHEMISTRY","","4.9","g/dL","","","4.9",4.9,"g/dL",null,null,"","","","","","SERUM","","","","","","","","Cobas 8000","","","","","","","","",113,"2018-11-19T00:00:00","",113,null,113,"","",null,"","",""],[349,"VECTORSTUDYU1","LB","VECTORSTUDYU1-P0001","",349,"","","","ALB","Albumin","CLINICAL CHEMISTRY","","4.4","g/dL","","","4.4",4.4,"g/dL",null,null,"","","","","","SERUM","","","","","","","","Cobas 8000","","","","","","","","",141,"2018-12-17T00:00:00","",141,null,141,"","",null,"","",""],[350,"VECTORSTUDYU1","LB","VECTORSTUDYU1-P0002","",350,"","","","ALB","Albumin","CLINICAL CHEMISTRY","","5.3","g/dL","","","5.3",5.3,"g/dL",null,null,"","","","","","SERUM","","","","","","","","Cobas 8000","","","","","","","","",141,"2018-12-17T00:00:00","",141,null,141,"","",null,"","",""],[351,"VECTORSTUDYU1","LB","VECTORSTUDYU1-P0003","",351,"","","","ALB","Albumin","CLINICAL CHEMISTRY","","4.7","g/dL","","","4.7",4.7,"g/dL",null,null,"","","","","","SERUM","","","","","","","","Cobas 8000","","","","","","","","",141,"2018-12-17T00:00:00","",141,null,141,"","",null,"","",""],[352,"VECTORSTUDYU1","LB","VECTORSTUDYU1-P0401","",352,"","","","ALB","Albumin","CLINICAL CHEMISTRY","","5.1","g/dL","","","5.1",5.1,"g/dL",null,null,"","","","","","SERUM","","","","","","","","Cobas 8000","","","","","","","","",141,"2018-12-17T00:00:00","",141,null,141,"","",null,"","",""],[353,"VECTORSTUDYU1","LB","VECTORSTUDYU1-P0402","",353,"","","","ALB","Albumin","CLINICAL CHEMISTRY","","4.7","g/dL","","","4.7",4.7,"g/dL",null,null,"","","","","","SERUM","","","","","","","","Cobas 8000","","","","","","","","",141,"2018-12-17T00:00:00","",141,null,141,"","",null,"","",""],[354,"VECTORSTUDYU1","LB","VECTORSTUDYU1-P0403","",354,"","","","ALB","Albumin","CLINICAL CHEMISTRY","","4.8","g/dL","","","4.8",4.8,"g/dL",null,null,"","","","","","SERUM","","","","","","","","Cobas 8000","","","","","","","","",141,"2018-12-17T00:00:00","",141,null,141,"","",null,"","",""],[355,"VECTORSTUDYU1","LB","VECTORSTUDYU1-P0001","",355,"","","","ALB","Albumin","CLINICAL CHEMISTRY","","4.3","g/dL","","","4.3",4.3,"g/dL",null,null,"","","","","","SERUM","","","","","","","","Cobas 8000","","","","","","","","",169,"2019-01-14T00:00:00","",169,null,169,"","",null,"","",""],[356,"VECTORSTUDYU1","LB","VECTORSTUDYU1-P0002","",356,"","","","ALB","Albumin","CLINICAL CHEMISTRY","","5.0","g/dL","","","5.0",5,"g/dL",null,null,"","","","","","SERUM","","","","","","","","Cobas 8000","","","","","","","","",169,"2019-01-14T00:00:00","",169,null,169,"","",null,"","",""],[357,"VECTORSTUDYU1","LB","VECTORSTUDYU1-P0003","",357,"","","","ALB","Albumin","CLINICAL CHEMISTRY","","4.7","g/dL","","","4.7",4.7,"g/dL",null,null,"","","","","","SERUM","","","","","","","","Cobas 8000","","","","","","","","",169,"2019-01-14T00:00:00","",169,null,169,"","",null,"","",""],[358,"VECTORSTUDYU1","LB","VECTORSTUDYU1-P0401","",358,"","","","ALB","Albumin","CLINICAL CHEMISTRY","","4.9","g/dL","","","4.9",4.9,"g/dL",null,null,"","","","","","SERUM","","","","","","","","Cobas 8000","","","","","","","","",169,"2019-01-14T00:00:00","",169,null,169,"","",null,"","",""],[359,"VECTORSTUDYU1","LB","VECTORSTUDYU1-P0402","",359,"","","","ALB","Albumin","CLINICAL CHEMISTRY","","5.1","g/dL","","","5.1",5.1,"g/dL",null,null,"","","","","","SERUM","","","","","","","","Cobas 8000","","","","","","","","",169,"2019-01-14T00:00:00","",169,null,169,"","",null,"","",""],[360,"VECTORSTUDYU1","LB","VECTORSTUDYU1-P0403","",360,"","","","ALB","Albumin","CLINICAL CHEMISTRY","","4.6","g/dL","","","4.6",4.6,"g/dL",null,null,"","","","","","SERUM","","","","","","","","Cobas 8000","","","","","","","","",169,"2019-01-14T00:00:00","",169,null,169,"","",null,"","",""],[361,"VECTORSTUDYU1","LB","VECTORSTUDYU1-P0001","",361,"","","","GLOBUL","Globulin","CLINICAL CHEMISTRY","","3.7","g/dL","","","3.7",3.7,"g/dL",null,null,"","","","","","SERUM","","","","","","","","Cobas 8000","","","","","","","","",-47,"2018-06-13T00:00:00","",-47,null,-47,"","",null,"","",""],[362,"VECTORSTUDYU1","LB","VECTORSTUDYU1-P0002","",362,"","","","GLOBUL","Globulin","CLINICAL CHEMISTRY","","2.5","g/dL","","","2.5",2.5,"g/dL",null,null,"","","","","","SERUM","","","","","","","","Cobas 8000","","","","","","","","",-47,"2018-06-13T00:00:00","",-47,null,-47,"","",null,"","",""],[363,"VECTORSTUDYU1","LB","VECTORSTUDYU1-P0003","",363,"","","","GLOBUL","Globulin","CLINICAL CHEMISTRY","","3.1","g/dL","","","3.1",3.1,"g/dL",null,null,"","","","","","SERUM","","","","","","","","Cobas 8000","","","","","","","","",-47,"2018-06-13T00:00:00","",-47,null,-47,"","",null,"","",""],[364,"VECTORSTUDYU1","LB","VECTORSTUDYU1-P0401","",364,"","","","GLOBUL","Globulin","CLINICAL CHEMISTRY","","3.2","g/dL","","","3.2",3.2,"g/dL",null,null,"","","","","","SERUM","","","","","","","","Cobas 8000","","","","","","","","",-47,"2018-06-13T00:00:00","",-47,null,-47,"","",null,"","",""],[365,"VECTORSTUDYU1","LB","VECTORSTUDYU1-P0402","",365,"","","","GLOBUL","Globulin","CLINICAL CHEMISTRY","","2.8","g/dL","","","2.8",2.8,"g/dL",null,null,"","","","","","SERUM","","","","","","","","Cobas 8000","","","","","","","","",-47,"2018-06-13T00:00:00","",-47,null,-47,"","",null,"","",""],[366,"VECTORSTUDYU1","LB","VECTORSTUDYU1-P0403","",366,"","","","GLOBUL","Globulin","CLINICAL CHEMISTRY","","2.4","g/dL","","","2.4",2.4,"g/dL",null,null,"","","","","","SERUM","","","","","","","","Cobas 8000","","","","","","","","",-47,"2018-06-13T00:00:00","",-47,null,-47,"","",null,"","",""],[367,"VECTORSTUDYU1","LB","VECTORSTUDYU1-P0001","",367,"","","","GLOBUL","Globulin","CLINICAL CHEMISTRY","","2.9","g/dL","","","2.9",2.9,"g/dL",null,null,"","","","","","SERUM","","","","","","","","Cobas 8000","","","","","","","","",-27,"2018-07-03T00:00:00","",-27,null,-27,"","",null,"","",""],[368,"VECTORSTUDYU1","LB","VECTORSTUDYU1-P0002","",368,"","","","GLOBUL","Globulin","CLINICAL CHEMISTRY","","2.3","g/dL","","","2.3",2.3,"g/dL",null,null,"","","","","","SERUM","","","","","","","","Cobas 8000","","","","","","","","",-27,"2018-07-03T00:00:00","",-27,null,-27,"","",null,"","",""],[369,"VECTORSTUDYU1","LB","VECTORSTUDYU1-P0003","",369,"","","","GLOBUL","Globulin","CLINICAL CHEMISTRY","","3.0","g/dL","","","3.0",3,"g/dL",null,null,"","","","","","SERUM","","","","","","","","Cobas 8000","","","","","","","","",-27,"2018-07-03T00:00:00","",-27,null,-27,"","",null,"","",""],[370,"VECTORSTUDYU1","LB","VECTORSTUDYU1-P0401","",370,"","","","GLOBUL","Globulin","CLINICAL CHEMISTRY","","2.8","g/dL","","","2.8",2.8,"g/dL",null,null,"","","","","","SERUM","","","","","","","","Cobas 8000","","","","","","","","",-27,"2018-07-03T00:00:00","",-27,null,-27,"","",null,"","",""],[371,"VECTORSTUDYU1","LB","VECTORSTUDYU1-P0402","",371,"","","","GLOBUL","Globulin","CLINICAL CHEMISTRY","","2.7","g/dL","","","2.7",2.7,"g/dL",null,null,"","","","","","SERUM","","","","","","","","Cobas 8000","","","","","","","","",-27,"2018-07-03T00:00:00","",-27,null,-27,"","",null,"","",""],[372,"VECTORSTUDYU1","LB","VECTORSTUDYU1-P0403","",372,"","","","GLOBUL","Globulin","CLINICAL CHEMISTRY","","2.3","g/dL","","","2.3",2.3,"g/dL",null,null,"","","","","","SERUM","","","","","","","","Cobas 8000","","","","","","","","",-27,"2018-07-03T00:00:00","",-27,null,-27,"","",null,"","",""],[373,"VECTORSTUDYU1","LB","VECTORSTUDYU1-P0001","",373,"","","","GLOBUL","Globulin","CLINICAL CHEMISTRY","","3.0","g/dL","","","3.0",3,"g/dL",null,null,"","","","","","SERUM","","","","","","","","Cobas 8000","Y","","","","","","","",1,"2018-07-30T00:00:00","",1,null,1,"","",null,"","",""],[374,"VECTORSTUDYU1","LB","VECTORSTUDYU1-P0002","",374,"","","","GLOBUL","Globulin","CLINICAL CHEMISTRY","","2.4","g/dL","","","2.4",2.4,"g/dL",null,null,"","","","","","SERUM","","","","","","","","Cobas 8000","Y","","","","","","","",1,"2018-07-30T00:00:00","",1,null,1,"","",null,"","",""],[375,"VECTORSTUDYU1","LB","VECTORSTUDYU1-P0003","",375,"","","","GLOBUL","Globulin","CLINICAL CHEMISTRY","","2.8","g/dL","","","2.8",2.8,"g/dL",null,null,"","","","","","SERUM","","","","","","","","Cobas 8000","Y","","","","","","","",1,"2018-07-30T00:00:00","",1,null,1,"","",null,"","",""],[376,"VECTORSTUDYU1","LB","VECTORSTUDYU1-P0401","",376,"","","","GLOBUL","Globulin","CLINICAL CHEMISTRY","","2.8","g/dL","","","2.8",2.8,"g/dL",null,null,"","","","","","SERUM","","","","","","","","Cobas 8000","Y","","","","","","","",1,"2018-07-30T00:00:00","",1,null,1,"","",null,"","",""],[377,"VECTORSTUDYU1","LB","VECTORSTUDYU1-P0402","",377,"","","","GLOBUL","Globulin","CLINICAL CHEMISTRY","","2.5","g/dL","","","2.5",2.5,"g/dL",null,null,"","","","","","SERUM","","","","","","","","Cobas 8000","Y","","","","","","","",1,"2018-07-30T00:00:00","",1,null,1,"","",null,"","",""],[378,"VECTORSTUDYU1","LB","VECTORSTUDYU1-P0403","",378,"","","","GLOBUL","Globulin","CLINICAL CHEMISTRY","","2.4","g/dL","","","2.4",2.4,"g/dL",null,null,"","","","","","SERUM","","","","","","","","Cobas 8000","Y","","","","","","","",1,"2018-07-30T00:00:00","",1,null,1,"","",null,"","",""],[379,"VECTORSTUDYU1","LB","VECTORSTUDYU1-P0001","",379,"","","","GLOBUL","Globulin","CLINICAL CHEMISTRY","","3.2","g/dL","","","3.2",3.2,"g/dL",null,null,"","","","","","SERUM","","","","","","","","Cobas 8000","","","","","","","","",15,"2018-08-13T00:00:00","",15,null,15,"","",null,"","",""],[380,"VECTORSTUDYU1","LB","VECTORSTUDYU1-P0002","",380,"","","","GLOBUL","Globulin","CLINICAL CHEMISTRY","","2.4","g/dL","","","2.4",2.4,"g/dL",null,null,"","","","","","SERUM","","","","","","","","Cobas 8000","","","","","","","","",15,"2018-08-13T00:00:00","",15,null,15,"","",null,"","",""],[381,"VECTORSTUDYU1","LB","VECTORSTUDYU1-P0003","",381,"","","","GLOBUL","Globulin","CLINICAL CHEMISTRY","","2.9","g/dL","","","2.9",2.9,"g/dL",null,null,"","","","","","SERUM","","","","","","","","Cobas 8000","","","","","","","","",15,"2018-08-13T00:00:00","",15,null,15,"","",null,"","",""],[382,"VECTORSTUDYU1","LB","VECTORSTUDYU1-P0401","",382,"","","","GLOBUL","Globulin","CLINICAL CHEMISTRY","","3.0","g/dL","","","3.0",3,"g/dL",null,null,"","","","","","SERUM","","","","","","","","Cobas 8000","","","","","","","","",15,"2018-08-13T00:00:00","",15,null,15,"","",null,"","",""],[383,"VECTORSTUDYU1","LB","VECTORSTUDYU1-P0402","",383,"","","","GLOBUL","Globulin","CLINICAL CHEMISTRY","","2.7","g/dL","","","2.7",2.7,"g/dL",null,null,"","","","","","SERUM","","","","","","","","Cobas 8000","","","","","","","","",15,"2018-08-13T00:00:00","",15,null,15,"","",null,"","",""],[384,"VECTORSTUDYU1","LB","VECTORSTUDYU1-P0403","",384,"","","","GLOBUL","Globulin","CLINICAL CHEMISTRY","","2.3","g/dL","","","2.3",2.3,"g/dL",null,null,"","","","","","SERUM","","","","","","","","Cobas 8000","","","","","","","","",15,"2018-08-13T00:00:00","",15,null,15,"","",null,"","",""],[385,"VECTORSTUDYU1","LB","VECTORSTUDYU1-P0001","",385,"","","","GLOBUL","Globulin","CLINICAL CHEMISTRY","","3.1","g/dL","","","3.1",3.1,"g/dL",null,null,"","","","","","SERUM","","","","","","","","Cobas 8000","","","","","","","","",29,"2018-08-27T00:00:00","",29,null,29,"","",null,"","",""],[386,"VECTORSTUDYU1","LB","VECTORSTUDYU1-P0002","",386,"","","","GLOBUL","Globulin","CLINICAL CHEMISTRY","","2.0","g/dL","","","2.0",2,"g/dL",null,null,"","","","","","SERUM","","","","","","","","Cobas 8000","","","","","","","","",29,"2018-08-27T00:00:00","",29,null,29,"","",null,"","",""],[387,"VECTORSTUDYU1","LB","VECTORSTUDYU1-P0003","",387,"","","","GLOBUL","Globulin","CLINICAL CHEMISTRY","","2.6","g/dL","","","2.6",2.6,"g/dL",null,null,"","","","","","SERUM","","","","","","","","Cobas 8000","","","","","","","","",29,"2018-08-27T00:00:00","",29,null,29,"","",null,"","",""],[388,"VECTORSTUDYU1","LB","VECTORSTUDYU1-P0401","",388,"","","","GLOBUL","Globulin","CLINICAL CHEMISTRY","","2.5","g/dL","","","2.5",2.5,"g/dL",null,null,"","","","","","SERUM","","","","","","","","Cobas 8000","","","","","","","","",29,"2018-08-27T00:00:00","",29,null,29,"","",null,"","",""],[389,"VECTORSTUDYU1","LB","VECTORSTUDYU1-P0402","",389,"","","","GLOBUL","Globulin","CLINICAL CHEMISTRY","","2.4","g/dL","","","2.4",2.4,"g/dL",null,null,"","","","","","SERUM","","","","","","","","Cobas 8000","","","","","","","","",29,"2018-08-27T00:00:00","",29,null,29,"","",null,"","",""],[390,"VECTORSTUDYU1","LB","VECTORSTUDYU1-P0403","",390,"","","","GLOBUL","Globulin","CLINICAL CHEMISTRY","","2.1","g/dL","","","2.1",2.1,"g/dL",null,null,"","","","","","SERUM","","","","","","","","Cobas 8000","","","","","","","","",29,"2018-08-27T00:00:00","",29,null,29,"","",null,"","",""],[391,"VECTORSTUDYU1","LB","VECTORSTUDYU1-P0001","",391,"","","","GLOBUL","Globulin","CLINICAL CHEMISTRY","","3.6","g/dL","","","3.6",3.6,"g/dL",null,null,"","","","","","SERUM","","","","","","","","Cobas 8000","","","","","","","","",43,"2018-09-10T00:00:00","",43,null,43,"","",null,"","",""],[392,"VECTORSTUDYU1","LB","VECTORSTUDYU1-P0002","",392,"","","","GLOBUL","Globulin","CLINICAL CHEMISTRY","","2.4","g/dL","","","2.4",2.4,"g/dL",null,null,"","","","","","SERUM","","","","","","","","Cobas 8000","","","","","","","","",43,"2018-09-10T00:00:00","",43,null,43,"","",null,"","",""],[393,"VECTORSTUDYU1","LB","VECTORSTUDYU1-P0003","",393,"","","","GLOBUL","Globulin","CLINICAL CHEMISTRY","","2.8","g/dL","","","2.8",2.8,"g/dL",null,null,"","","","","","SERUM","","","","","","","","Cobas 8000","","","","","","","","",43,"2018-09-10T00:00:00","",43,null,43,"","",null,"","",""],[394,"VECTORSTUDYU1","LB","VECTORSTUDYU1-P0401","",394,"","","","GLOBUL","Globulin","CLINICAL CHEMISTRY","","2.9","g/dL","","","2.9",2.9,"g/dL",null,null,"","","","","","SERUM","","","","","","","","Cobas 8000","","","","","","","","",43,"2018-09-10T00:00:00","",43,null,43,"","",null,"","",""],[395,"VECTORSTUDYU1","LB","VECTORSTUDYU1-P0402","",395,"","","","GLOBUL","Globulin","CLINICAL CHEMISTRY","","2.7","g/dL","","","2.7",2.7,"g/dL",null,null,"","","","","","SERUM","","","","","","","","Cobas 8000","","","","","","","","",43,"2018-09-10T00:00:00","",43,null,43,"","",null,"","",""],[396,"VECTORSTUDYU1","LB","VECTORSTUDYU1-P0403","",396,"","","","GLOBUL","Globulin","CLINICAL CHEMISTRY","","2.4","g/dL","","","2.4",2.4,"g/dL",null,null,"","","","","","SERUM","","","","","","","","Cobas 8000","","","","","","","","",43,"2018-09-10T00:00:00","",43,null,43,"","",null,"","",""],[397,"VECTORSTUDYU1","LB","VECTORSTUDYU1-P0001","",397,"","","","GLOBUL","Globulin","CLINICAL CHEMISTRY","","3.1","g/dL","","","3.1",3.1,"g/dL",null,null,"","","","","","SERUM","","","","","","","","Cobas 8000","","","","","","","","",57,"2018-09-24T00:00:00","",57,null,57,"","",null,"","",""],[398,"VECTORSTUDYU1","LB","VECTORSTUDYU1-P0002","",398,"","","","GLOBUL","Globulin","CLINICAL CHEMISTRY","","2.3","g/dL","","","2.3",2.3,"g/dL",null,null,"","","","","","SERUM","","","","","","","","Cobas 8000","","","","","","","","",57,"2018-09-24T00:00:00","",57,null,57,"","",null,"","",""],[399,"VECTORSTUDYU1","LB","VECTORSTUDYU1-P0003","",399,"","","","GLOBUL","Globulin","CLINICAL CHEMISTRY","","2.8","g/dL","","","2.8",2.8,"g/dL",null,null,"","","","","","SERUM","","","","","","","","Cobas 8000","","","","","","","","",57,"2018-09-24T00:00:00","",57,null,57,"","",null,"","",""],[400,"VECTORSTUDYU1","LB","VECTORSTUDYU1-P0401","",400,"","","","GLOBUL","Globulin","CLINICAL CHEMISTRY","","2.9","g/dL","","","2.9",2.9,"g/dL",null,null,"","","","","","SERUM","","","","","","","","Cobas 8000","","","","","","","","",57,"2018-09-24T00:00:00","",57,null,57,"","",null,"","",""],[401,"VECTORSTUDYU1","LB","VECTORSTUDYU1-P0402","",401,"","","","GLOBUL","Globulin","CLINICAL CHEMISTRY","","2.7","g/dL","","","2.7",2.7,"g/dL",null,null,"","","","","","SERUM","","","","","","","","Cobas 8000","","","","","","","","",57,"2018-09-24T00:00:00","",57,null,57,"","",null,"","",""],[402,"VECTORSTUDYU1","LB","VECTORSTUDYU1-P0403","",402,"","","","GLOBUL","Globulin","CLINICAL CHEMISTRY","","2.4","g/dL","","","2.4",2.4,"g/dL",null,null,"","","","","","SERUM","","","","","","","","Cobas 8000","","","","","","","","",57,"2018-09-24T00:00:00","",57,null,57,"","",null,"","",""],[403,"VECTORSTUDYU1","LB","VECTORSTUDYU1-P0001","",403,"","","","GLOBUL","Globulin","CLINICAL CHEMISTRY","","3.3","g/dL","","","3.3",3.3,"g/dL",null,null,"","","","","","SERUM","","","","","","","","Cobas 8000","","","","","","","","",71,"2018-10-08T00:00:00","",71,null,71,"","",null,"","",""],[404,"VECTORSTUDYU1","LB","VECTORSTUDYU1-P0002","",404,"","","","GLOBUL","Globulin","CLINICAL CHEMISTRY","","2.8","g/dL","","","2.8",2.8,"g/dL",null,null,"","","","","","SERUM","","","","","","","","Cobas 8000","","","","","","","","",71,"2018-10-08T00:00:00","",71,null,71,"","",null,"","",""],[405,"VECTORSTUDYU1","LB","VECTORSTUDYU1-P0003","",405,"","","","GLOBUL","Globulin","CLINICAL CHEMISTRY","","3.0","g/dL","","","3.0",3,"g/dL",null,null,"","","","","","SERUM","","","","","","","","Cobas 8000","","","","","","","","",71,"2018-10-08T00:00:00","",71,null,71,"","",null,"","",""],[406,"VECTORSTUDYU1","LB","VECTORSTUDYU1-P0401","",406,"","","","GLOBUL","Globulin","CLINICAL CHEMISTRY","","3.3","g/dL","","","3.3",3.3,"g/dL",null,null,"","","","","","SERUM","","","","","","","","Cobas 8000","","","","","","","","",71,"2018-10-08T00:00:00","",71,null,71,"","",null,"","",""],[407,"VECTORSTUDYU1","LB","VECTORSTUDYU1-P0402","",407,"","","","GLOBUL","Globulin","CLINICAL CHEMISTRY","","3.0","g/dL","","","3.0",3,"g/dL",null,null,"","","","","","SERUM","","","","","","","","Cobas 8000","","","","","","","","",71,"2018-10-08T00:00:00","",71,null,71,"","",null,"","",""],[408,"VECTORSTUDYU1","LB","VECTORSTUDYU1-P0403","",408,"","","","GLOBUL","Globulin","CLINICAL CHEMISTRY","","2.9","g/dL","","","2.9",2.9,"g/dL",null,null,"","","","","","SERUM","","","","","","","","Cobas 8000","","","","","","","","",71,"2018-10-08T00:00:00","",71,null,71,"","",null,"","",""],[409,"VECTORSTUDYU1","LB","VECTORSTUDYU1-P0001","",409,"","","","GLOBUL","Globulin","CLINICAL CHEMISTRY","","3.1","g/dL","","","3.1",3.1,"g/dL",null,null,"","","","","","SERUM","","","","","","","","Cobas 8000","","","","","","","","",85,"2018-10-22T00:00:00","",85,null,85,"","",null,"","",""],[410,"VECTORSTUDYU1","LB","VECTORSTUDYU1-P0002","",410,"","","","GLOBUL","Globulin","CLINICAL CHEMISTRY","","2.6","g/dL","","","2.6",2.6,"g/dL",null,null,"","","","","","SERUM","","","","","","","","Cobas 8000","","","","","","","","",85,"2018-10-22T00:00:00","",85,null,85,"","",null,"","",""],[411,"VECTORSTUDYU1","LB","VECTORSTUDYU1-P0003","",411,"","","","GLOBUL","Globulin","CLINICAL CHEMISTRY","","2.9","g/dL","","","2.9",2.9,"g/dL",null,null,"","","","","","SERUM","","","","","","","","Cobas 8000","","","","","","","","",85,"2018-10-22T00:00:00","",85,null,85,"","",null,"","",""],[412,"VECTORSTUDYU1","LB","VECTORSTUDYU1-P0401","",412,"","","","GLOBUL","Globulin","CLINICAL CHEMISTRY","","3.4","g/dL","","","3.4",3.4,"g/dL",null,null,"","","","","","SERUM","","","","","","","","Cobas 8000","","","","","","","","",85,"2018-10-22T00:00:00","",85,null,85,"","",null,"","",""],[413,"VECTORSTUDYU1","LB","VECTORSTUDYU1-P0402","",413,"","","","GLOBUL","Globulin","CLINICAL CHEMISTRY","","3.0","g/dL","","","3.0",3,"g/dL",null,null,"","","","","","SERUM","","","","","","","","Cobas 8000","","","","","","","","",85,"2018-10-22T00:00:00","",85,null,85,"","",null,"","",""],[414,"VECTORSTUDYU1","LB","VECTORSTUDYU1-P0403","",414,"","","","GLOBUL","Globulin","CLINICAL CHEMISTRY","","2.8","g/dL","","","2.8",2.8,"g/dL",null,null,"","","","","","SERUM","","","","","","","","Cobas 8000","","","","","","","","",85,"2018-10-22T00:00:00","",85,null,85,"","",null,"","",""],[415,"VECTORSTUDYU1","LB","VECTORSTUDYU1-P0001","",415,"","","","GLOBUL","Globulin","CLINICAL CHEMISTRY","","3.3","g/dL","","","3.3",3.3,"g/dL",null,null,"","","","","","SERUM","","","","","","","","Cobas 8000","","","","","","","","",113,"2018-11-19T00:00:00","",113,null,113,"","",null,"","",""],[416,"VECTORSTUDYU1","LB","VECTORSTUDYU1-P0002","",416,"","","","GLOBUL","Globulin","CLINICAL CHEMISTRY","","2.8","g/dL","","","2.8",2.8,"g/dL",null,null,"","","","","","SERUM","","","","","","","","Cobas 8000","","","","","","","","",113,"2018-11-19T00:00:00","",113,null,113,"","",null,"","",""],[417,"VECTORSTUDYU1","LB","VECTORSTUDYU1-P0003","",417,"","","","GLOBUL","Globulin","CLINICAL CHEMISTRY","","2.7","g/dL","","","2.7",2.7,"g/dL",null,null,"","","","","","SERUM","","","","","","","","Cobas 8000","","","","","","","","",113,"2018-11-19T00:00:00","",113,null,113,"","",null,"","",""],[418,"VECTORSTUDYU1","LB","VECTORSTUDYU1-P0401","",418,"","","","GLOBUL","Globulin","CLINICAL CHEMISTRY","","3.2","g/dL","","","3.2",3.2,"g/dL",null,null,"","","","","","SERUM","","","","","","","","Cobas 8000","","","","","","","","",113,"2018-11-19T00:00:00","",113,null,113,"","",null,"","",""],[419,"VECTORSTUDYU1","LB","VECTORSTUDYU1-P0402","",419,"","","","GLOBUL","Globulin","CLINICAL CHEMISTRY","","2.8","g/dL","","","2.8",2.8,"g/dL",null,null,"","","","","","SERUM","","","","","","","","Cobas 8000","","","","","","","","",113,"2018-11-19T00:00:00","",113,null,113,"","",null,"","",""],[420,"VECTORSTUDYU1","LB","VECTORSTUDYU1-P0403","",420,"","","","GLOBUL","Globulin","CLINICAL CHEMISTRY","","2.6","g/dL","","","2.6",2.6,"g/dL",null,null,"","","","","","SERUM","","","","","","","","Cobas 8000","","","","","","","","",113,"2018-11-19T00:00:00","",113,null,113,"","",null,"","",""],[421,"VECTORSTUDYU1","LB","VECTORSTUDYU1-P0001","",421,"","","","GLOBUL","Globulin","CLINICAL CHEMISTRY","","2.5","g/dL","","","2.5",2.5,"g/dL",null,null,"","","","","","SERUM","","","","","","","","Cobas 8000","","","","","","","","",141,"2018-12-17T00:00:00","",141,null,141,"","",null,"","",""],[422,"VECTORSTUDYU1","LB","VECTORSTUDYU1-P0002","",422,"","","","GLOBUL","Globulin","CLINICAL CHEMISTRY","","2.5","g/dL","","","2.5",2.5,"g/dL",null,null,"","","","","","SERUM","","","","","","","","Cobas 8000","","","","","","","","",141,"2018-12-17T00:00:00","",141,null,141,"","",null,"","",""],[423,"VECTORSTUDYU1","LB","VECTORSTUDYU1-P0003","",423,"","","","GLOBUL","Globulin","CLINICAL CHEMISTRY","","2.5","g/dL","","","2.5",2.5,"g/dL",null,null,"","","","","","SERUM","","","","","","","","Cobas 8000","","","","","","","","",141,"2018-12-17T00:00:00","",141,null,141,"","",null,"","",""],[424,"VECTORSTUDYU1","LB","VECTORSTUDYU1-P0401","",424,"","","","GLOBUL","Globulin","CLINICAL CHEMISTRY","","2.5","g/dL","","","2.5",2.5,"g/dL",null,null,"","","","","","SERUM","","","","","","","","Cobas 8000","","","","","","","","",141,"2018-12-17T00:00:00","",141,null,141,"","",null,"","",""],[425,"VECTORSTUDYU1","LB","VECTORSTUDYU1-P0402","",425,"","","","GLOBUL","Globulin","CLINICAL CHEMISTRY","","2.4","g/dL","","","2.4",2.4,"g/dL",null,null,"","","","","","SERUM","","","","","","","","Cobas 8000","","","","","","","","",141,"2018-12-17T00:00:00","",141,null,141,"","",null,"","",""],[426,"VECTORSTUDYU1","LB","VECTORSTUDYU1-P0403","",426,"","","","GLOBUL","Globulin","CLINICAL CHEMISTRY","","2.2","g/dL","","","2.2",2.2,"g/dL",null,null,"","","","","","SERUM","","","","","","","","Cobas 8000","","","","","","","","",141,"2018-12-17T00:00:00","",141,null,141,"","",null,"","",""],[427,"VECTORSTUDYU1","LB","VECTORSTUDYU1-P0001","",427,"","","","GLOBUL","Globulin","CLINICAL CHEMISTRY","","2.8","g/dL","","","2.8",2.8,"g/dL",null,null,"","","","","","SERUM","","","","","","","","Cobas 8000","","","","","","","","",169,"2019-01-14T00:00:00","",169,null,169,"","",null,"","",""],[428,"VECTORSTUDYU1","LB","VECTORSTUDYU1-P0002","",428,"","","","GLOBUL","Globulin","CLINICAL CHEMISTRY","","2.5","g/dL","","","2.5",2.5,"g/dL",null,null,"","","","","","SERUM","","","","","","","","Cobas 8000","","","","","","","","",169,"2019-01-14T00:00:00","",169,null,169,"","",null,"","",""],[429,"VECTORSTUDYU1","LB","VECTORSTUDYU1-P0003","",429,"","","","GLOBUL","Globulin","CLINICAL CHEMISTRY","","2.5","g/dL","","","2.5",2.5,"g/dL",null,null,"","","","","","SERUM","","","","","","","","Cobas 8000","","","","","","","","",169,"2019-01-14T00:00:00","",169,null,169,"","",null,"","",""],[430,"VECTORSTUDYU1","LB","VECTORSTUDYU1-P0401","",430,"","","","GLOBUL","Globulin","CLINICAL CHEMISTRY","","2.6","g/dL","","","2.6",2.6,"g/dL",null,null,"","","","","","SERUM","","","","","","","","Cobas 8000","","","","","","","","",169,"2019-01-14T00:00:00","",169,null,169,"","",null,"","",""],[431,"VECTORSTUDYU1","LB","VECTORSTUDYU1-P0402","",431,"","","","GLOBUL","Globulin","CLINICAL CHEMISTRY","","2.5","g/dL","","","2.5",2.5,"g/dL",null,null,"","","","","","SERUM","","","","","","","","Cobas 8000","","","","","","","","",169,"2019-01-14T00:00:00","",169,null,169,"","",null,"","",""],[432,"VECTORSTUDYU1","LB","VECTORSTUDYU1-P0403","",432,"","","","GLOBUL","Globulin","CLINICAL CHEMISTRY","","2.2","g/dL","","","2.2",2.2,"g/dL",null,null,"","","","","","SERUM","","","","","","","","Cobas 8000","","","","","","","","",169,"2019-01-14T00:00:00","",169,null,169,"","",null,"","",""],[433,"VECTORSTUDYU1","LB","VECTORSTUDYU1-P0001","",433,"","","","ALBGLOB","Albumin/Globulin","CLINICAL CHEMISTRY","","1.5","Ratio","","","1.5",1.5,"RATIO",null,null,"","","","","","SERUM","","","","","","","","Cobas 8000","","","","","","","","",-47,"2018-06-13T00:00:00","",-47,null,-47,"","",null,"","",""],[434,"VECTORSTUDYU1","LB","VECTORSTUDYU1-P0002","",434,"","","","ALBGLOB","Albumin/Globulin","CLINICAL CHEMISTRY","","1.9","Ratio","","","1.9",1.9,"RATIO",null,null,"","","","","","SERUM","","","","","","","","Cobas 8000","","","","","","","","",-47,"2018-06-13T00:00:00","",-47,null,-47,"","",null,"","",""],[435,"VECTORSTUDYU1","LB","VECTORSTUDYU1-P0003","",435,"","","","ALBGLOB","Albumin/Globulin","CLINICAL CHEMISTRY","","1.6","Ratio","","","1.6",1.6,"RATIO",null,null,"","","","","","SERUM","","","","","","","","Cobas 8000","","","","","","","","",-47,"2018-06-13T00:00:00","",-47,null,-47,"","",null,"","",""],[436,"VECTORSTUDYU1","LB","VECTORSTUDYU1-P0401","",436,"","","","ALBGLOB","Albumin/Globulin","CLINICAL CHEMISTRY","","1.8","Ratio","","","1.8",1.8,"RATIO",null,null,"","","","","","SERUM","","","","","","","","Cobas 8000","","","","","","","","",-47,"2018-06-13T00:00:00","",-47,null,-47,"","",null,"","",""],[437,"VECTORSTUDYU1","LB","VECTORSTUDYU1-P0402","",437,"","","","ALBGLOB","Albumin/Globulin","CLINICAL CHEMISTRY","","1.8","Ratio","","","1.8",1.8,"RATIO",null,null,"","","","","","SERUM","","","","","","","","Cobas 8000","","","","","","","","",-47,"2018-06-13T00:00:00","",-47,null,-47,"","",null,"","",""],[438,"VECTORSTUDYU1","LB","VECTORSTUDYU1-P0403","",438,"","","","ALBGLOB","Albumin/Globulin","CLINICAL CHEMISTRY","","2.0","Ratio","","","2.0",2,"RATIO",null,null,"","","","","","SERUM","","","","","","","","Cobas 8000","","","","","","","","",-47,"2018-06-13T00:00:00","",-47,null,-47,"","",null,"","",""],[439,"VECTORSTUDYU1","LB","VECTORSTUDYU1-P0001","",439,"","","","ALBGLOB","Albumin/Globulin","CLINICAL CHEMISTRY","","1.5","Ratio","","","1.5",1.5,"RATIO",null,null,"","","","","","SERUM","","","","","","","","Cobas 8000","","","","","","","","",-27,"2018-07-03T00:00:00","",-27,null,-27,"","",null,"","",""],[440,"VECTORSTUDYU1","LB","VECTORSTUDYU1-P0002","",440,"","","","ALBGLOB","Albumin/Globulin","CLINICAL CHEMISTRY","","2.1","Ratio","","","2.1",2.1,"RATIO",null,null,"","","","","","SERUM","","","","","","","","Cobas 8000","","","","","","","","",-27,"2018-07-03T00:00:00","",-27,null,-27,"","",null,"","",""],[441,"VECTORSTUDYU1","LB","VECTORSTUDYU1-P0003","",441,"","","","ALBGLOB","Albumin/Globulin","CLINICAL CHEMISTRY","","1.7","Ratio","","","1.7",1.7,"RATIO",null,null,"","","","","","SERUM","","","","","","","","Cobas 8000","","","","","","","","",-27,"2018-07-03T00:00:00","",-27,null,-27,"","",null,"","",""],[442,"VECTORSTUDYU1","LB","VECTORSTUDYU1-P0401","",442,"","","","ALBGLOB","Albumin/Globulin","CLINICAL CHEMISTRY","","1.8","Ratio","","","1.8",1.8,"RATIO",null,null,"","","","","","SERUM","","","","","","","","Cobas 8000","","","","","","","","",-27,"2018-07-03T00:00:00","",-27,null,-27,"","",null,"","",""],[443,"VECTORSTUDYU1","LB","VECTORSTUDYU1-P0402","",443,"","","","ALBGLOB","Albumin/Globulin","CLINICAL CHEMISTRY","","1.8","Ratio","","","1.8",1.8,"RATIO",null,null,"","","","","","SERUM","","","","","","","","Cobas 8000","","","","","","","","",-27,"2018-07-03T00:00:00","",-27,null,-27,"","",null,"","",""],[444,"VECTORSTUDYU1","LB","VECTORSTUDYU1-P0403","",444,"","","","ALBGLOB","Albumin/Globulin","CLINICAL CHEMISTRY","","2.0","Ratio","","","2.0",2,"RATIO",null,null,"","","","","","SERUM","","","","","","","","Cobas 8000","","","","","","","","",-27,"2018-07-03T00:00:00","",-27,null,-27,"","",null,"","",""],[445,"VECTORSTUDYU1","LB","VECTORSTUDYU1-P0001","",445,"","","","ALBGLOB","Albumin/Globulin","CLINICAL CHEMISTRY","","1.5","Ratio","","","1.5",1.5,"RATIO",null,null,"","","","","","SERUM","","","","","","","","Cobas 8000","Y","","","","","","","",1,"2018-07-30T00:00:00","",1,null,1,"","",null,"","",""],[446,"VECTORSTUDYU1","LB","VECTORSTUDYU1-P0002","",446,"","","","ALBGLOB","Albumin/Globulin","CLINICAL CHEMISTRY","","2.2","Ratio","","","2.2",2.2,"RATIO",null,null,"","","","","","SERUM","","","","","","","","Cobas 8000","Y","","","","","","","",1,"2018-07-30T00:00:00","",1,null,1,"","",null,"","",""],[447,"VECTORSTUDYU1","LB","VECTORSTUDYU1-P0003","",447,"","","","ALBGLOB","Albumin/Globulin","CLINICAL CHEMISTRY","","1.8","Ratio","","","1.8",1.8,"RATIO",null,null,"","","","","","SERUM","","","","","","","","Cobas 8000","Y","","","","","","","",1,"2018-07-30T00:00:00","",1,null,1,"","",null,"","",""],[448,"VECTORSTUDYU1","LB","VECTORSTUDYU1-P0401","",448,"","","","ALBGLOB","Albumin/Globulin","CLINICAL CHEMISTRY","","2.1","Ratio","","","2.1",2.1,"RATIO",null,null,"","","","","","SERUM","","","","","","","","Cobas 8000","Y","","","","","","","",1,"2018-07-30T00:00:00","",1,null,1,"","",null,"","",""],[449,"VECTORSTUDYU1","LB","VECTORSTUDYU1-P0402","",449,"","","","ALBGLOB","Albumin/Globulin","CLINICAL CHEMISTRY","","2.0","Ratio","","","2.0",2,"RATIO",null,null,"","","","","","SERUM","","","","","","","","Cobas 8000","Y","","","","","","","",1,"2018-07-30T00:00:00","",1,null,1,"","",null,"","",""],[450,"VECTORSTUDYU1","LB","VECTORSTUDYU1-P0403","",450,"","","","ALBGLOB","Albumin/Globulin","CLINICAL CHEMISTRY","","2.0","Ratio","","","2.0",2,"RATIO",null,null,"","","","","","SERUM","","","","","","","","Cobas 8000","Y","","","","","","","",1,"2018-07-30T00:00:00","",1,null,1,"","",null,"","",""],[451,"VECTORSTUDYU1","LB","VECTORSTUDYU1-P0001","",451,"","","","ALBGLOB","Albumin/Globulin","CLINICAL CHEMISTRY","","1.5","Ratio","","","1.5",1.5,"RATIO",null,null,"","","","","","SERUM","","","","","","","","Cobas 8000","","","","","","","","",15,"2018-08-13T00:00:00","",15,null,15,"","",null,"","",""],[452,"VECTORSTUDYU1","LB","VECTORSTUDYU1-P0002","",452,"","","","ALBGLOB","Albumin/Globulin","CLINICAL CHEMISTRY","","2.2","Ratio","","","2.2",2.2,"RATIO",null,null,"","","","","","SERUM","","","","","","","","Cobas 8000","","","","","","","","",15,"2018-08-13T00:00:00","",15,null,15,"","",null,"","",""],[453,"VECTORSTUDYU1","LB","VECTORSTUDYU1-P0003","",453,"","","","ALBGLOB","Albumin/Globulin","CLINICAL CHEMISTRY","","1.8","Ratio","","","1.8",1.8,"RATIO",null,null,"","","","","","SERUM","","","","","","","","Cobas 8000","","","","","","","","",15,"2018-08-13T00:00:00","",15,null,15,"","",null,"","",""],[454,"VECTORSTUDYU1","LB","VECTORSTUDYU1-P0401","",454,"","","","ALBGLOB","Albumin/Globulin","CLINICAL CHEMISTRY","","1.9","Ratio","","","1.9",1.9,"RATIO",null,null,"","","","","","SERUM","","","","","","","","Cobas 8000","","","","","","","","",15,"2018-08-13T00:00:00","",15,null,15,"","",null,"","",""],[455,"VECTORSTUDYU1","LB","VECTORSTUDYU1-P0402","",455,"","","","ALBGLOB","Albumin/Globulin","CLINICAL CHEMISTRY","","1.9","Ratio","","","1.9",1.9,"RATIO",null,null,"","","","","","SERUM","","","","","","","","Cobas 8000","","","","","","","","",15,"2018-08-13T00:00:00","",15,null,15,"","",null,"","",""],[456,"VECTORSTUDYU1","LB","VECTORSTUDYU1-P0403","",456,"","","","ALBGLOB","Albumin/Globulin","CLINICAL CHEMISTRY","","2.2","Ratio","","","2.2",2.2,"RATIO",null,null,"","","","","","SERUM","","","","","","","","Cobas 8000","","","","","","","","",15,"2018-08-13T00:00:00","",15,null,15,"","",null,"","",""],[457,"VECTORSTUDYU1","LB","VECTORSTUDYU1-P0001","",457,"","","","ALBGLOB","Albumin/Globulin","CLINICAL CHEMISTRY","","1.4","Ratio","","","1.4",1.4,"RATIO",null,null,"","","","","","SERUM","","","","","","","","Cobas 8000","","","","","","","","",29,"2018-08-27T00:00:00","",29,null,29,"","",null,"","",""],[458,"VECTORSTUDYU1","LB","VECTORSTUDYU1-P0002","",458,"","","","ALBGLOB","Albumin/Globulin","CLINICAL CHEMISTRY","","2.6","Ratio","","","2.6",2.6,"RATIO",null,null,"","","","","","SERUM","","","","","","","","Cobas 8000","","","","","","","","",29,"2018-08-27T00:00:00","",29,null,29,"","",null,"","",""],[459,"VECTORSTUDYU1","LB","VECTORSTUDYU1-P0003","",459,"","","","ALBGLOB","Albumin/Globulin","CLINICAL CHEMISTRY","","1.9","Ratio","","","1.9",1.9,"RATIO",null,null,"","","","","","SERUM","","","","","","","","Cobas 8000","","","","","","","","",29,"2018-08-27T00:00:00","",29,null,29,"","",null,"","",""],[460,"VECTORSTUDYU1","LB","VECTORSTUDYU1-P0401","",460,"","","","ALBGLOB","Albumin/Globulin","CLINICAL CHEMISTRY","","2.2","Ratio","","","2.2",2.2,"RATIO",null,null,"","","","","","SERUM","","","","","","","","Cobas 8000","","","","","","","","",29,"2018-08-27T00:00:00","",29,null,29,"","",null,"","",""],[461,"VECTORSTUDYU1","LB","VECTORSTUDYU1-P0402","",461,"","","","ALBGLOB","Albumin/Globulin","CLINICAL CHEMISTRY","","2.2","Ratio","","","2.2",2.2,"RATIO",null,null,"","","","","","SERUM","","","","","","","","Cobas 8000","","","","","","","","",29,"2018-08-27T00:00:00","",29,null,29,"","",null,"","",""],[462,"VECTORSTUDYU1","LB","VECTORSTUDYU1-P0403","",462,"","","","ALBGLOB","Albumin/Globulin","CLINICAL CHEMISTRY","","2.3","Ratio","","","2.3",2.3,"RATIO",null,null,"","","","","","SERUM","","","","","","","","Cobas 8000","","","","","","","","",29,"2018-08-27T00:00:00","",29,null,29,"","",null,"","",""],[463,"VECTORSTUDYU1","LB","VECTORSTUDYU1-P0001","",463,"","","","ALBGLOB","Albumin/Globulin","CLINICAL CHEMISTRY","","1.2","Ratio","","","1.2",1.2,"RATIO",null,null,"","","","","","SERUM","","","","","","","","Cobas 8000","","","","","","","","",43,"2018-09-10T00:00:00","",43,null,43,"","",null,"","",""],[464,"VECTORSTUDYU1","LB","VECTORSTUDYU1-P0002","",464,"","","","ALBGLOB","Albumin/Globulin","CLINICAL CHEMISTRY","","2.2","Ratio","","","2.2",2.2,"RATIO",null,null,"","","","","","SERUM","","","","","","","","Cobas 8000","","","","","","","","",43,"2018-09-10T00:00:00","",43,null,43,"","",null,"","",""],[465,"VECTORSTUDYU1","LB","VECTORSTUDYU1-P0003","",465,"","","","ALBGLOB","Albumin/Globulin","CLINICAL CHEMISTRY","","1.9","Ratio","","","1.9",1.9,"RATIO",null,null,"","","","","","SERUM","","","","","","","","Cobas 8000","","","","","","","","",43,"2018-09-10T00:00:00","",43,null,43,"","",null,"","",""],[466,"VECTORSTUDYU1","LB","VECTORSTUDYU1-P0401","",466,"","","","ALBGLOB","Albumin/Globulin","CLINICAL CHEMISTRY","","1.8","Ratio","","","1.8",1.8,"RATIO",null,null,"","","","","","SERUM","","","","","","","","Cobas 8000","","","","","","","","",43,"2018-09-10T00:00:00","",43,null,43,"","",null,"","",""],[467,"VECTORSTUDYU1","LB","VECTORSTUDYU1-P0402","",467,"","","","ALBGLOB","Albumin/Globulin","CLINICAL CHEMISTRY","","1.9","Ratio","","","1.9",1.9,"RATIO",null,null,"","","","","","SERUM","","","","","","","","Cobas 8000","","","","","","","","",43,"2018-09-10T00:00:00","",43,null,43,"","",null,"","",""],[468,"VECTORSTUDYU1","LB","VECTORSTUDYU1-P0403","",468,"","","","ALBGLOB","Albumin/Globulin","CLINICAL CHEMISTRY","","2.0","Ratio","","","2.0",2,"RATIO",null,null,"","","","","","SERUM","","","","","","","","Cobas 8000","","","","","","","","",43,"2018-09-10T00:00:00","",43,null,43,"","",null,"","",""],[469,"VECTORSTUDYU1","LB","VECTORSTUDYU1-P0001","",469,"","","","ALBGLOB","Albumin/Globulin","CLINICAL CHEMISTRY","","1.4","Ratio","","","1.4",1.4,"RATIO",null,null,"","","","","","SERUM","","","","","","","","Cobas 8000","","","","","","","","",57,"2018-09-24T00:00:00","",57,null,57,"","",null,"","",""],[470,"VECTORSTUDYU1","LB","VECTORSTUDYU1-P0002","",470,"","","","ALBGLOB","Albumin/Globulin","CLINICAL CHEMISTRY","","2.3","Ratio","","","2.3",2.3,"RATIO",null,null,"","","","","","SERUM","","","","","","","","Cobas 8000","","","","","","","","",57,"2018-09-24T00:00:00","",57,null,57,"","",null,"","",""],[471,"VECTORSTUDYU1","LB","VECTORSTUDYU1-P0003","",471,"","","","ALBGLOB","Albumin/Globulin","CLINICAL CHEMISTRY","","1.8","Ratio","","","1.8",1.8,"RATIO",null,null,"","","","","","SERUM","","","","","","","","Cobas 8000","","","","","","","","",57,"2018-09-24T00:00:00","",57,null,57,"","",null,"","",""],[472,"VECTORSTUDYU1","LB","VECTORSTUDYU1-P0401","",472,"","","","ALBGLOB","Albumin/Globulin","CLINICAL CHEMISTRY","","1.8","Ratio","","","1.8",1.8,"RATIO",null,null,"","","","","","SERUM","","","","","","","","Cobas 8000","","","","","","","","",57,"2018-09-24T00:00:00","",57,null,57,"","",null,"","",""],[473,"VECTORSTUDYU1","LB","VECTORSTUDYU1-P0402","",473,"","","","ALBGLOB","Albumin/Globulin","CLINICAL CHEMISTRY","","1.8","Ratio","","","1.8",1.8,"RATIO",null,null,"","","","","","SERUM","","","","","","","","Cobas 8000","","","","","","","","",57,"2018-09-24T00:00:00","",57,null,57,"","",null,"","",""],[474,"VECTORSTUDYU1","LB","VECTORSTUDYU1-P0403","",474,"","","","ALBGLOB","Albumin/Globulin","CLINICAL CHEMISTRY","","1.9","Ratio","","","1.9",1.9,"RATIO",null,null,"","","","","","SERUM","","","","","","","","Cobas 8000","","","","","","","","",57,"2018-09-24T00:00:00","",57,null,57,"","",null,"","",""],[475,"VECTORSTUDYU1","LB","VECTORSTUDYU1-P0001","",475,"","","","ALBGLOB","Albumin/Globulin","CLINICAL CHEMISTRY","","1.2","Ratio","","","1.2",1.2,"RATIO",null,null,"","","","","","SERUM","","","","","","","","Cobas 8000","","","","","","","","",71,"2018-10-08T00:00:00","",71,null,71,"","",null,"","",""],[476,"VECTORSTUDYU1","LB","VECTORSTUDYU1-P0002","",476,"","","","ALBGLOB","Albumin/Globulin","CLINICAL CHEMISTRY","","1.8","Ratio","","","1.8",1.8,"RATIO",null,null,"","","","","","SERUM","","","","","","","","Cobas 8000","","","","","","","","",71,"2018-10-08T00:00:00","",71,null,71,"","",null,"","",""],[477,"VECTORSTUDYU1","LB","VECTORSTUDYU1-P0003","",477,"","","","ALBGLOB","Albumin/Globulin","CLINICAL CHEMISTRY","","1.6","Ratio","","","1.6",1.6,"RATIO",null,null,"","","","","","SERUM","","","","","","","","Cobas 8000","","","","","","","","",71,"2018-10-08T00:00:00","",71,null,71,"","",null,"","",""],[478,"VECTORSTUDYU1","LB","VECTORSTUDYU1-P0401","",478,"","","","ALBGLOB","Albumin/Globulin","CLINICAL CHEMISTRY","","1.5","Ratio","","","1.5",1.5,"RATIO",null,null,"","","","","","SERUM","","","","","","","","Cobas 8000","","","","","","","","",71,"2018-10-08T00:00:00","",71,null,71,"","",null,"","",""],[479,"VECTORSTUDYU1","LB","VECTORSTUDYU1-P0402","",479,"","","","ALBGLOB","Albumin/Globulin","CLINICAL CHEMISTRY","","1.6","Ratio","","","1.6",1.6,"RATIO",null,null,"","","","","","SERUM","","","","","","","","Cobas 8000","","","","","","","","",71,"2018-10-08T00:00:00","",71,null,71,"","",null,"","",""],[480,"VECTORSTUDYU1","LB","VECTORSTUDYU1-P0403","",480,"","","","ALBGLOB","Albumin/Globulin","CLINICAL CHEMISTRY","","1.6","Ratio","","","1.6",1.6,"RATIO",null,null,"","","","","","SERUM","","","","","","","","Cobas 8000","","","","","","","","",71,"2018-10-08T00:00:00","",71,null,71,"","",null,"","",""],[481,"VECTORSTUDYU1","LB","VECTORSTUDYU1-P0001","",481,"","","","ALBGLOB","Albumin/Globulin","CLINICAL CHEMISTRY","","1.3","Ratio","","","1.3",1.3,"RATIO",null,null,"","","","","","SERUM","","","","","","","","Cobas 8000","","","","","","","","",85,"2018-10-22T00:00:00","",85,null,85,"","",null,"","",""],[482,"VECTORSTUDYU1","LB","VECTORSTUDYU1-P0002","",482,"","","","ALBGLOB","Albumin/Globulin","CLINICAL CHEMISTRY","","1.9","Ratio","","","1.9",1.9,"RATIO",null,null,"","","","","","SERUM","","","","","","","","Cobas 8000","","","","","","","","",85,"2018-10-22T00:00:00","",85,null,85,"","",null,"","",""],[483,"VECTORSTUDYU1","LB","VECTORSTUDYU1-P0003","",483,"","","","ALBGLOB","Albumin/Globulin","CLINICAL CHEMISTRY","","1.7","Ratio","","","1.7",1.7,"RATIO",null,null,"","","","","","SERUM","","","","","","","","Cobas 8000","","","","","","","","",85,"2018-10-22T00:00:00","",85,null,85,"","",null,"","",""],[484,"VECTORSTUDYU1","LB","VECTORSTUDYU1-P0401","",484,"","","","ALBGLOB","Albumin/Globulin","CLINICAL CHEMISTRY","","1.5","Ratio","","","1.5",1.5,"RATIO",null,null,"","","","","","SERUM","","","","","","","","Cobas 8000","","","","","","","","",85,"2018-10-22T00:00:00","",85,null,85,"","",null,"","",""],[485,"VECTORSTUDYU1","LB","VECTORSTUDYU1-P0402","",485,"","","","ALBGLOB","Albumin/Globulin","CLINICAL CHEMISTRY","","1.7","Ratio","","","1.7",1.7,"RATIO",null,null,"","","","","","SERUM","","","","","","","","Cobas 8000","","","","","","","","",85,"2018-10-22T00:00:00","",85,null,85,"","",null,"","",""],[486,"VECTORSTUDYU1","LB","VECTORSTUDYU1-P0403","",486,"","","","ALBGLOB","Albumin/Globulin","CLINICAL CHEMISTRY","","1.8","Ratio","","","1.8",1.8,"RATIO",null,null,"","","","","","SERUM","","","","","","","","Cobas 8000","","","","","","","","",85,"2018-10-22T00:00:00","",85,null,85,"","",null,"","",""],[487,"VECTORSTUDYU1","LB","VECTORSTUDYU1-P0001","",487,"","","","ALBGLOB","Albumin/Globulin","CLINICAL CHEMISTRY","","1.3","Ratio","","","1.3",1.3,"RATIO",null,null,"","","","","","SERUM","","","","","","","","Cobas 8000","","","","","","","","",113,"2018-11-19T00:00:00","",113,null,113,"","",null,"","",""],[488,"VECTORSTUDYU1","LB","VECTORSTUDYU1-P0002","",488,"","","","ALBGLOB","Albumin/Globulin","CLINICAL CHEMISTRY","","1.8","Ratio","","","1.8",1.8,"RATIO",null,null,"","","","","","SERUM","","","","","","","","Cobas 8000","","","","","","","","",113,"2018-11-19T00:00:00","",113,null,113,"","",null,"","",""],[489,"VECTORSTUDYU1","LB","VECTORSTUDYU1-P0003","",489,"","","","ALBGLOB","Albumin/Globulin","CLINICAL CHEMISTRY","","1.9","Ratio","","","1.9",1.9,"RATIO",null,null,"","","","","","SERUM","","","","","","","","Cobas 8000","","","","","","","","",113,"2018-11-19T00:00:00","",113,null,113,"","",null,"","",""],[490,"VECTORSTUDYU1","LB","VECTORSTUDYU1-P0401","",490,"","","","ALBGLOB","Albumin/Globulin","CLINICAL CHEMISTRY","","1.6","Ratio","","","1.6",1.6,"RATIO",null,null,"","","","","","SERUM","","","","","","","","Cobas 8000","","","","","","","","",113,"2018-11-19T00:00:00","",113,null,113,"","",null,"","",""],[491,"VECTORSTUDYU1","LB","VECTORSTUDYU1-P0402","",491,"","","","ALBGLOB","Albumin/Globulin","CLINICAL CHEMISTRY","","1.6","Ratio","","","1.6",1.6,"RATIO",null,null,"","","","","","SERUM","","","","","","","","Cobas 8000","","","","","","","","",113,"2018-11-19T00:00:00","",113,null,113,"","",null,"","",""],[492,"VECTORSTUDYU1","LB","VECTORSTUDYU1-P0403","",492,"","","","ALBGLOB","Albumin/Globulin","CLINICAL CHEMISTRY","","1.9","Ratio","","","1.9",1.9,"RATIO",null,null,"","","","","","SERUM","","","","","","","","Cobas 8000","","","","","","","","",113,"2018-11-19T00:00:00","",113,null,113,"","",null,"","",""],[493,"VECTORSTUDYU1","LB","VECTORSTUDYU1-P0001","",493,"","","","ALBGLOB","Albumin/Globulin","CLINICAL CHEMISTRY","","1.8","Ratio","","","1.8",1.8,"RATIO",null,null,"","","","","","SERUM","","","","","","","","Cobas 8000","","","","","","","","",141,"2018-12-17T00:00:00","",141,null,141,"","",null,"","",""],[494,"VECTORSTUDYU1","LB","VECTORSTUDYU1-P0002","",494,"","","","ALBGLOB","Albumin/Globulin","CLINICAL CHEMISTRY","","2.1","Ratio","","","2.1",2.1,"RATIO",null,null,"","","","","","SERUM","","","","","","","","Cobas 8000","","","","","","","","",141,"2018-12-17T00:00:00","",141,null,141,"","",null,"","",""],[495,"VECTORSTUDYU1","LB","VECTORSTUDYU1-P0003","",495,"","","","ALBGLOB","Albumin/Globulin","CLINICAL CHEMISTRY","","1.9","Ratio","","","1.9",1.9,"RATIO",null,null,"","","","","","SERUM","","","","","","","","Cobas 8000","","","","","","","","",141,"2018-12-17T00:00:00","",141,null,141,"","",null,"","",""],[496,"VECTORSTUDYU1","LB","VECTORSTUDYU1-P0401","",496,"","","","ALBGLOB","Albumin/Globulin","CLINICAL CHEMISTRY","","2.0","Ratio","","","2.0",2,"RATIO",null,null,"","","","","","SERUM","","","","","","","","Cobas 8000","","","","","","","","",141,"2018-12-17T00:00:00","",141,null,141,"","",null,"","",""],[497,"VECTORSTUDYU1","LB","VECTORSTUDYU1-P0402","",497,"","","","ALBGLOB","Albumin/Globulin","CLINICAL CHEMISTRY","","2.0","Ratio","","","2.0",2,"RATIO",null,null,"","","","","","SERUM","","","","","","","","Cobas 8000","","","","","","","","",141,"2018-12-17T00:00:00","",141,null,141,"","",null,"","",""],[498,"VECTORSTUDYU1","LB","VECTORSTUDYU1-P0403","",498,"","","","ALBGLOB","Albumin/Globulin","CLINICAL CHEMISTRY","","2.2","Ratio","","","2.2",2.2,"RATIO",null,null,"","","","","","SERUM","","","","","","","","Cobas 8000","","","","","","","","",141,"2018-12-17T00:00:00","",141,null,141,"","",null,"","",""],[499,"VECTORSTUDYU1","LB","VECTORSTUDYU1-P0001","",499,"","","","ALBGLOB","Albumin/Globulin","CLINICAL CHEMISTRY","","1.5","Ratio","","","1.5",1.5,"RATIO",null,null,"","","","","","SERUM","","","","","","","","Cobas 8000","","","","","","","","",169,"2019-01-14T00:00:00","",169,null,169,"","",null,"","",""],[500,"VECTORSTUDYU1","LB","VECTORSTUDYU1-P0002","",500,"","","","ALBGLOB","Albumin/Globulin","CLINICAL CHEMISTRY","","2.0","Ratio","","","2.0",2,"RATIO",null,null,"","","","","","SERUM","","","","","","","","Cobas 8000","","","","","","","","",169,"2019-01-14T00:00:00","",169,null,169,"","",null,"","",""],[501,"VECTORSTUDYU1","LB","VECTORSTUDYU1-P0003","",501,"","","","ALBGLOB","Albumin/Globulin","CLINICAL CHEMISTRY","","1.9","Ratio","","","1.9",1.9,"RATIO",null,null,"","","","","","SERUM","","","","","","","","Cobas 8000","","","","","","","","",169,"2019-01-14T00:00:00","",169,null,169,"","",null,"","",""],[502,"VECTORSTUDYU1","LB","VECTORSTUDYU1-P0401","",502,"","","","ALBGLOB","Albumin/Globulin","CLINICAL CHEMISTRY","","1.9","Ratio","","","1.9",1.9,"RATIO",null,null,"","","","","","SERUM","","","","","","","","Cobas 8000","","","","","","","","",169,"2019-01-14T00:00:00","",169,null,169,"","",null,"","",""],[503,"VECTORSTUDYU1","LB","VECTORSTUDYU1-P0402","",503,"","","","ALBGLOB","Albumin/Globulin","CLINICAL CHEMISTRY","","2.0","Ratio","","","2.0",2,"RATIO",null,null,"","","","","","SERUM","","","","","","","","Cobas 8000","","","","","","","","",169,"2019-01-14T00:00:00","",169,null,169,"","",null,"","",""],[504,"VECTORSTUDYU1","LB","VECTORSTUDYU1-P0403","",504,"","","","ALBGLOB","Albumin/Globulin","CLINICAL CHEMISTRY","","2.1","Ratio","","","2.1",2.1,"RATIO",null,null,"","","","","","SERUM","","","","","","","","Cobas 8000","","","","","","","","",169,"2019-01-14T00:00:00","",169,null,169,"","",null,"","",""],[505,"VECTORSTUDYU1","LB","VECTORSTUDYU1-P0001","",505,"","","","CHOL","Cholesterol","CLINICAL CHEMISTRY","","181","mg/dL","","","181",181,"mg/dL",null,null,"","","","","","SERUM","","","","","","","","Cobas 8000","","","","","","","","",-47,"2018-06-13T00:00:00","",-47,null,-47,"","",null,"","",""],[506,"VECTORSTUDYU1","LB","VECTORSTUDYU1-P0002","",506,"","","","CHOL","Cholesterol","CLINICAL CHEMISTRY","","82","mg/dL","","","82",82,"mg/dL",null,null,"","","","","","SERUM","","","","","","","","Cobas 8000","","","","","","","","",-47,"2018-06-13T00:00:00","",-47,null,-47,"","",null,"","",""],[507,"VECTORSTUDYU1","LB","VECTORSTUDYU1-P0003","",507,"","","","CHOL","Cholesterol","CLINICAL CHEMISTRY","","151","mg/dL","","","151",151,"mg/dL",null,null,"","","","","","SERUM","","","","","","","","Cobas 8000","","","","","","","","",-47,"2018-06-13T00:00:00","",-47,null,-47,"","",null,"","",""],[508,"VECTORSTUDYU1","LB","VECTORSTUDYU1-P0401","",508,"","","","CHOL","Cholesterol","CLINICAL CHEMISTRY","","128","mg/dL","","","128",128,"mg/dL",null,null,"","","","","","SERUM","","","","","","","","Cobas 8000","","","","","","","","",-47,"2018-06-13T00:00:00","",-47,null,-47,"","",null,"","",""],[509,"VECTORSTUDYU1","LB","VECTORSTUDYU1-P0402","",509,"","","","CHOL","Cholesterol","CLINICAL CHEMISTRY","","116","mg/dL","","","116",116,"mg/dL",null,null,"","","","","","SERUM","","","","","","","","Cobas 8000","","","","","","","","",-47,"2018-06-13T00:00:00","",-47,null,-47,"","",null,"","",""],[510,"VECTORSTUDYU1","LB","VECTORSTUDYU1-P0403","",510,"","","","CHOL","Cholesterol","CLINICAL CHEMISTRY","","167","mg/dL","","","167",167,"mg/dL",null,null,"","","","","","SERUM","","","","","","","","Cobas 8000","","","","","","","","",-47,"2018-06-13T00:00:00","",-47,null,-47,"","",null,"","",""],[511,"VECTORSTUDYU1","LB","VECTORSTUDYU1-P0001","",511,"","","","CHOL","Cholesterol","CLINICAL CHEMISTRY","","114","mg/dL","","","114",114,"mg/dL",null,null,"","","","","","SERUM","","","","","","","","Cobas 8000","","","","","","","","",-27,"2018-07-03T00:00:00","",-27,null,-27,"","",null,"","",""],[512,"VECTORSTUDYU1","LB","VECTORSTUDYU1-P0002","",512,"","","","CHOL","Cholesterol","CLINICAL CHEMISTRY","","84","mg/dL","","","84",84,"mg/dL",null,null,"","","","","","SERUM","","","","","","","","Cobas 8000","","","","","","","","",-27,"2018-07-03T00:00:00","",-27,null,-27,"","",null,"","",""],[513,"VECTORSTUDYU1","LB","VECTORSTUDYU1-P0003","",513,"","","","CHOL","Cholesterol","CLINICAL CHEMISTRY","","143","mg/dL","","","143",143,"mg/dL",null,null,"","","","","","SERUM","","","","","","","","Cobas 8000","","","","","","","","",-27,"2018-07-03T00:00:00","",-27,null,-27,"","",null,"","",""],[514,"VECTORSTUDYU1","LB","VECTORSTUDYU1-P0401","",514,"","","","CHOL","Cholesterol","CLINICAL CHEMISTRY","","129","mg/dL","","","129",129,"mg/dL",null,null,"","","","","","SERUM","","","","","","","","Cobas 8000","","","","","","","","",-27,"2018-07-03T00:00:00","",-27,null,-27,"","",null,"","",""],[515,"VECTORSTUDYU1","LB","VECTORSTUDYU1-P0402","",515,"","","","CHOL","Cholesterol","CLINICAL CHEMISTRY","","108","mg/dL","","","108",108,"mg/dL",null,null,"","","","","","SERUM","","","","","","","","Cobas 8000","","","","","","","","",-27,"2018-07-03T00:00:00","",-27,null,-27,"","",null,"","",""],[516,"VECTORSTUDYU1","LB","VECTORSTUDYU1-P0403","",516,"","","","CHOL","Cholesterol","CLINICAL CHEMISTRY","","158","mg/dL","","","158",158,"mg/dL",null,null,"","","","","","SERUM","","","","","","","","Cobas 8000","","","","","","","","",-27,"2018-07-03T00:00:00","",-27,null,-27,"","",null,"","",""],[517,"VECTORSTUDYU1","LB","VECTORSTUDYU1-P0001","",517,"","","","CHOL","Cholesterol","CLINICAL CHEMISTRY","","142","mg/dL","","","142",142,"mg/dL",null,null,"","","","","","SERUM","","","","","","","","Cobas 8000","Y","","","","","","","",1,"2018-07-30T00:00:00","",1,null,1,"","",null,"","",""],[518,"VECTORSTUDYU1","LB","VECTORSTUDYU1-P0002","",518,"","","","CHOL","Cholesterol","CLINICAL CHEMISTRY","","80","mg/dL","","","80",80,"mg/dL",null,null,"","","","","","SERUM","","","","","","","","Cobas 8000","Y","","","","","","","",1,"2018-07-30T00:00:00","",1,null,1,"","",null,"","",""],[519,"VECTORSTUDYU1","LB","VECTORSTUDYU1-P0003","",519,"","","","CHOL","Cholesterol","CLINICAL CHEMISTRY","","138","mg/dL","","","138",138,"mg/dL",null,null,"","","","","","SERUM","","","","","","","","Cobas 8000","Y","","","","","","","",1,"2018-07-30T00:00:00","",1,null,1,"","",null,"","",""],[520,"VECTORSTUDYU1","LB","VECTORSTUDYU1-P0401","",520,"","","","CHOL","Cholesterol","CLINICAL CHEMISTRY","","122","mg/dL","","","122",122,"mg/dL",null,null,"","","","","","SERUM","","","","","","","","Cobas 8000","Y","","","","","","","",1,"2018-07-30T00:00:00","",1,null,1,"","",null,"","",""],[521,"VECTORSTUDYU1","LB","VECTORSTUDYU1-P0402","",521,"","","","CHOL","Cholesterol","CLINICAL CHEMISTRY","","101","mg/dL","","","101",101,"mg/dL",null,null,"","","","","","SERUM","","","","","","","","Cobas 8000","Y","","","","","","","",1,"2018-07-30T00:00:00","",1,null,1,"","",null,"","",""],[522,"VECTORSTUDYU1","LB","VECTORSTUDYU1-P0403","",522,"","","","CHOL","Cholesterol","CLINICAL CHEMISTRY","","142","mg/dL","","","142",142,"mg/dL",null,null,"","","","","","SERUM","","","","","","","","Cobas 8000","Y","","","","","","","",1,"2018-07-30T00:00:00","",1,null,1,"","",null,"","",""],[523,"VECTORSTUDYU1","LB","VECTORSTUDYU1-P0001","",523,"","","","CHOL","Cholesterol","CLINICAL CHEMISTRY","","197","mg/dL","","","197",197,"mg/dL",null,null,"","","","","","SERUM","","","","","","","","Cobas 8000","","","","","","","","",15,"2018-08-13T00:00:00","",15,null,15,"","",null,"","",""],[524,"VECTORSTUDYU1","LB","VECTORSTUDYU1-P0002","",524,"","","","CHOL","Cholesterol","CLINICAL CHEMISTRY","","96","mg/dL","","","96",96,"mg/dL",null,null,"","","","","","SERUM","","","","","","","","Cobas 8000","","","","","","","","",15,"2018-08-13T00:00:00","",15,null,15,"","",null,"","",""],[525,"VECTORSTUDYU1","LB","VECTORSTUDYU1-P0003","",525,"","","","CHOL","Cholesterol","CLINICAL CHEMISTRY","","220","mg/dL","","","220",220,"mg/dL",null,null,"","","","","","SERUM","","","","","","","","Cobas 8000","","","","","","","","",15,"2018-08-13T00:00:00","",15,null,15,"","",null,"","",""],[526,"VECTORSTUDYU1","LB","VECTORSTUDYU1-P0401","",526,"","","","CHOL","Cholesterol","CLINICAL CHEMISTRY","","145","mg/dL","","","145",145,"mg/dL",null,null,"","","","","","SERUM","","","","","","","","Cobas 8000","","","","","","","","",15,"2018-08-13T00:00:00","",15,null,15,"","",null,"","",""],[527,"VECTORSTUDYU1","LB","VECTORSTUDYU1-P0402","",527,"","","","CHOL","Cholesterol","CLINICAL CHEMISTRY","","119","mg/dL","","","119",119,"mg/dL",null,null,"","","","","","SERUM","","","","","","","","Cobas 8000","","","","","","","","",15,"2018-08-13T00:00:00","",15,null,15,"","",null,"","",""],[528,"VECTORSTUDYU1","LB","VECTORSTUDYU1-P0403","",528,"","","","CHOL","Cholesterol","CLINICAL CHEMISTRY","","155","mg/dL","","","155",155,"mg/dL",null,null,"","","","","","SERUM","","","","","","","","Cobas 8000","","","","","","","","",15,"2018-08-13T00:00:00","",15,null,15,"","",null,"","",""],[529,"VECTORSTUDYU1","LB","VECTORSTUDYU1-P0001","",529,"","","","CHOL","Cholesterol","CLINICAL CHEMISTRY","","162","mg/dL","","","162",162,"mg/dL",null,null,"","","","","","SERUM","","","","","","","","Cobas 8000","","","","","","","","",29,"2018-08-27T00:00:00","",29,null,29,"","",null,"","",""],[530,"VECTORSTUDYU1","LB","VECTORSTUDYU1-P0002","",530,"","","","CHOL","Cholesterol","CLINICAL CHEMISTRY","","84","mg/dL","","","84",84,"mg/dL",null,null,"","","","","","SERUM","","","","","","","","Cobas 8000","","","","","","","","",29,"2018-08-27T00:00:00","",29,null,29,"","",null,"","",""],[531,"VECTORSTUDYU1","LB","VECTORSTUDYU1-P0003","",531,"","","","CHOL","Cholesterol","CLINICAL CHEMISTRY","","223","mg/dL","","","223",223,"mg/dL",null,null,"","","","","","SERUM","","","","","","","","Cobas 8000","","","","","","","","",29,"2018-08-27T00:00:00","",29,null,29,"","",null,"","",""],[532,"VECTORSTUDYU1","LB","VECTORSTUDYU1-P0401","",532,"","","","CHOL","Cholesterol","CLINICAL CHEMISTRY","","116","mg/dL","","","116",116,"mg/dL",null,null,"","","","","","SERUM","","","","","","","","Cobas 8000","","","","","","","","",29,"2018-08-27T00:00:00","",29,null,29,"","",null,"","",""],[533,"VECTORSTUDYU1","LB","VECTORSTUDYU1-P0402","",533,"","","","CHOL","Cholesterol","CLINICAL CHEMISTRY","","112","mg/dL","","","112",112,"mg/dL",null,null,"","","","","","SERUM","","","","","","","","Cobas 8000","","","","","","","","",29,"2018-08-27T00:00:00","",29,null,29,"","",null,"","",""],[534,"VECTORSTUDYU1","LB","VECTORSTUDYU1-P0403","",534,"","","","CHOL","Cholesterol","CLINICAL CHEMISTRY","","140","mg/dL","","","140",140,"mg/dL",null,null,"","","","","","SERUM","","","","","","","","Cobas 8000","","","","","","","","",29,"2018-08-27T00:00:00","",29,null,29,"","",null,"","",""],[535,"VECTORSTUDYU1","LB","VECTORSTUDYU1-P0001","",535,"","","","CHOL","Cholesterol","CLINICAL CHEMISTRY","","209","mg/dL","","","209",209,"mg/dL",null,null,"","","","","","SERUM","","","","","","","","Cobas 8000","","","","","","","","",43,"2018-09-10T00:00:00","",43,null,43,"","",null,"","",""],[536,"VECTORSTUDYU1","LB","VECTORSTUDYU1-P0002","",536,"","","","CHOL","Cholesterol","CLINICAL CHEMISTRY","","88","mg/dL","","","88",88,"mg/dL",null,null,"","","","","","SERUM","","","","","","","","Cobas 8000","","","","","","","","",43,"2018-09-10T00:00:00","",43,null,43,"","",null,"","",""],[537,"VECTORSTUDYU1","LB","VECTORSTUDYU1-P0003","",537,"","","","CHOL","Cholesterol","CLINICAL CHEMISTRY","","191","mg/dL","","","191",191,"mg/dL",null,null,"","","","","","SERUM","","","","","","","","Cobas 8000","","","","","","","","",43,"2018-09-10T00:00:00","",43,null,43,"","",null,"","",""],[538,"VECTORSTUDYU1","LB","VECTORSTUDYU1-P0401","",538,"","","","CHOL","Cholesterol","CLINICAL CHEMISTRY","","111","mg/dL","","","111",111,"mg/dL",null,null,"","","","","","SERUM","","","","","","","","Cobas 8000","","","","","","","","",43,"2018-09-10T00:00:00","",43,null,43,"","",null,"","",""],[539,"VECTORSTUDYU1","LB","VECTORSTUDYU1-P0402","",539,"","","","CHOL","Cholesterol","CLINICAL CHEMISTRY","","115","mg/dL","","","115",115,"mg/dL",null,null,"","","","","","SERUM","","","","","","","","Cobas 8000","","","","","","","","",43,"2018-09-10T00:00:00","",43,null,43,"","",null,"","",""],[540,"VECTORSTUDYU1","LB","VECTORSTUDYU1-P0403","",540,"","","","CHOL","Cholesterol","CLINICAL CHEMISTRY","","144","mg/dL","","","144",144,"mg/dL",null,null,"","","","","","SERUM","","","","","","","","Cobas 8000","","","","","","","","",43,"2018-09-10T00:00:00","",43,null,43,"","",null,"","",""],[541,"VECTORSTUDYU1","LB","VECTORSTUDYU1-P0001","",541,"","","","CHOL","Cholesterol","CLINICAL CHEMISTRY","","147","mg/dL","","","147",147,"mg/dL",null,null,"","","","","","SERUM","","","","","","","","Cobas 8000","","","","","","","","",57,"2018-09-24T00:00:00","",57,null,57,"","",null,"","",""],[542,"VECTORSTUDYU1","LB","VECTORSTUDYU1-P0002","",542,"","","","CHOL","Cholesterol","CLINICAL CHEMISTRY","","87","mg/dL","","","87",87,"mg/dL",null,null,"","","","","","SERUM","","","","","","","","Cobas 8000","","","","","","","","",57,"2018-09-24T00:00:00","",57,null,57,"","",null,"","",""],[543,"VECTORSTUDYU1","LB","VECTORSTUDYU1-P0003","",543,"","","","CHOL","Cholesterol","CLINICAL CHEMISTRY","","176","mg/dL","","","176",176,"mg/dL",null,null,"","","","","","SERUM","","","","","","","","Cobas 8000","","","","","","","","",57,"2018-09-24T00:00:00","",57,null,57,"","",null,"","",""],[544,"VECTORSTUDYU1","LB","VECTORSTUDYU1-P0401","",544,"","","","CHOL","Cholesterol","CLINICAL CHEMISTRY","","122","mg/dL","","","122",122,"mg/dL",null,null,"","","","","","SERUM","","","","","","","","Cobas 8000","","","","","","","","",57,"2018-09-24T00:00:00","",57,null,57,"","",null,"","",""],[545,"VECTORSTUDYU1","LB","VECTORSTUDYU1-P0402","",545,"","","","CHOL","Cholesterol","CLINICAL CHEMISTRY","","99","mg/dL","","","99",99,"mg/dL",null,null,"","","","","","SERUM","","","","","","","","Cobas 8000","","","","","","","","",57,"2018-09-24T00:00:00","",57,null,57,"","",null,"","",""],[546,"VECTORSTUDYU1","LB","VECTORSTUDYU1-P0403","",546,"","","","CHOL","Cholesterol","CLINICAL CHEMISTRY","","153","mg/dL","","","153",153,"mg/dL",null,null,"","","","","","SERUM","","","","","","","","Cobas 8000","","","","","","","","",57,"2018-09-24T00:00:00","",57,null,57,"","",null,"","",""],[547,"VECTORSTUDYU1","LB","VECTORSTUDYU1-P0001","",547,"","","","CHOL","Cholesterol","CLINICAL CHEMISTRY","","134","mg/dL","","","134",134,"mg/dL",null,null,"","","","","","SERUM","","","","","","","","Cobas 8000","","","","","","","","",71,"2018-10-08T00:00:00","",71,null,71,"","",null,"","",""],[548,"VECTORSTUDYU1","LB","VECTORSTUDYU1-P0002","",548,"","","","CHOL","Cholesterol","CLINICAL CHEMISTRY","","87","mg/dL","","","87",87,"mg/dL",null,null,"","","","","","SERUM","","","","","","","","Cobas 8000","","","","","","","","",71,"2018-10-08T00:00:00","",71,null,71,"","",null,"","",""],[549,"VECTORSTUDYU1","LB","VECTORSTUDYU1-P0003","",549,"","","","CHOL","Cholesterol","CLINICAL CHEMISTRY","","163","mg/dL","","","163",163,"mg/dL",null,null,"","","","","","SERUM","","","","","","","","Cobas 8000","","","","","","","","",71,"2018-10-08T00:00:00","",71,null,71,"","",null,"","",""],[550,"VECTORSTUDYU1","LB","VECTORSTUDYU1-P0401","",550,"","","","CHOL","Cholesterol","CLINICAL CHEMISTRY","","125","mg/dL","","","125",125,"mg/dL",null,null,"","","","","","SERUM","","","","","","","","Cobas 8000","","","","","","","","",71,"2018-10-08T00:00:00","",71,null,71,"","",null,"","",""],[551,"VECTORSTUDYU1","LB","VECTORSTUDYU1-P0402","",551,"","","","CHOL","Cholesterol","CLINICAL CHEMISTRY","","100","mg/dL","","","100",100,"mg/dL",null,null,"","","","","","SERUM","","","","","","","","Cobas 8000","","","","","","","","",71,"2018-10-08T00:00:00","",71,null,71,"","",null,"","",""],[552,"VECTORSTUDYU1","LB","VECTORSTUDYU1-P0403","",552,"","","","CHOL","Cholesterol","CLINICAL CHEMISTRY","","139","mg/dL","","","139",139,"mg/dL",null,null,"","","","","","SERUM","","","","","","","","Cobas 8000","","","","","","","","",71,"2018-10-08T00:00:00","",71,null,71,"","",null,"","",""],[553,"VECTORSTUDYU1","LB","VECTORSTUDYU1-P0001","",553,"","","","CHOL","Cholesterol","CLINICAL CHEMISTRY","","150","mg/dL","","","150",150,"mg/dL",null,null,"","","","","","SERUM","","","","","","","","Cobas 8000","","","","","","","","",85,"2018-10-22T00:00:00","",85,null,85,"","",null,"","",""],[554,"VECTORSTUDYU1","LB","VECTORSTUDYU1-P0002","",554,"","","","CHOL","Cholesterol","CLINICAL CHEMISTRY","","97","mg/dL","","","97",97,"mg/dL",null,null,"","","","","","SERUM","","","","","","","","Cobas 8000","","","","","","","","",85,"2018-10-22T00:00:00","",85,null,85,"","",null,"","",""],[555,"VECTORSTUDYU1","LB","VECTORSTUDYU1-P0003","",555,"","","","CHOL","Cholesterol","CLINICAL CHEMISTRY","","171","mg/dL","","","171",171,"mg/dL",null,null,"","","","","","SERUM","","","","","","","","Cobas 8000","","","","","","","","",85,"2018-10-22T00:00:00","",85,null,85,"","",null,"","",""],[556,"VECTORSTUDYU1","LB","VECTORSTUDYU1-P0401","",556,"","","","CHOL","Cholesterol","CLINICAL CHEMISTRY","","136","mg/dL","","","136",136,"mg/dL",null,null,"","","","","","SERUM","","","","","","","","Cobas 8000","","","","","","","","",85,"2018-10-22T00:00:00","",85,null,85,"","",null,"","",""],[557,"VECTORSTUDYU1","LB","VECTORSTUDYU1-P0402","",557,"","","","CHOL","Cholesterol","CLINICAL CHEMISTRY","","117","mg/dL","","","117",117,"mg/dL",null,null,"","","","","","SERUM","","","","","","","","Cobas 8000","","","","","","","","",85,"2018-10-22T00:00:00","",85,null,85,"","",null,"","",""],[558,"VECTORSTUDYU1","LB","VECTORSTUDYU1-P0403","",558,"","","","CHOL","Cholesterol","CLINICAL CHEMISTRY","","160","mg/dL","","","160",160,"mg/dL",null,null,"","","","","","SERUM","","","","","","","","Cobas 8000","","","","","","","","",85,"2018-10-22T00:00:00","",85,null,85,"","",null,"","",""],[559,"VECTORSTUDYU1","LB","VECTORSTUDYU1-P0001","",559,"","","","CHOL","Cholesterol","CLINICAL CHEMISTRY","","117","mg/dL","","","117",117,"mg/dL",null,null,"","","","","","SERUM","","","","","","","","Cobas 8000","","","","","","","","",113,"2018-11-19T00:00:00","",113,null,113,"","",null,"","",""],[560,"VECTORSTUDYU1","LB","VECTORSTUDYU1-P0002","",560,"","","","CHOL","Cholesterol","CLINICAL CHEMISTRY","","85","mg/dL","","","85",85,"mg/dL",null,null,"","","","","","SERUM","","","","","","","","Cobas 8000","","","","","","","","",113,"2018-11-19T00:00:00","",113,null,113,"","",null,"","",""],[561,"VECTORSTUDYU1","LB","VECTORSTUDYU1-P0003","",561,"","","","CHOL","Cholesterol","CLINICAL CHEMISTRY","","188","mg/dL","","","188",188,"mg/dL",null,null,"","","","","","SERUM","","","","","","","","Cobas 8000","","","","","","","","",113,"2018-11-19T00:00:00","",113,null,113,"","",null,"","",""],[562,"VECTORSTUDYU1","LB","VECTORSTUDYU1-P0401","",562,"","","","CHOL","Cholesterol","CLINICAL CHEMISTRY","","124","mg/dL","","","124",124,"mg/dL",null,null,"","","","","","SERUM","","","","","","","","Cobas 8000","","","","","","","","",113,"2018-11-19T00:00:00","",113,null,113,"","",null,"","",""],[563,"VECTORSTUDYU1","LB","VECTORSTUDYU1-P0402","",563,"","","","CHOL","Cholesterol","CLINICAL CHEMISTRY","","101","mg/dL","","","101",101,"mg/dL",null,null,"","","","","","SERUM","","","","","","","","Cobas 8000","","","","","","","","",113,"2018-11-19T00:00:00","",113,null,113,"","",null,"","",""],[564,"VECTORSTUDYU1","LB","VECTORSTUDYU1-P0403","",564,"","","","CHOL","Cholesterol","CLINICAL CHEMISTRY","","165","mg/dL","","","165",165,"mg/dL",null,null,"","","","","","SERUM","","","","","","","","Cobas 8000","","","","","","","","",113,"2018-11-19T00:00:00","",113,null,113,"","",null,"","",""],[565,"VECTORSTUDYU1","LB","VECTORSTUDYU1-P0001","",565,"","","","CHOL","Cholesterol","CLINICAL CHEMISTRY","","101","mg/dL","","","101",101,"mg/dL",null,null,"","","","","","SERUM","","","","","","","","Cobas 8000","","","","","","","","",141,"2018-12-17T00:00:00","",141,null,141,"","",null,"","",""],[566,"VECTORSTUDYU1","LB","VECTORSTUDYU1-P0002","",566,"","","","CHOL","Cholesterol","CLINICAL CHEMISTRY","","89","mg/dL","","","89",89,"mg/dL",null,null,"","","","","","SERUM","","","","","","","","Cobas 8000","","","","","","","","",141,"2018-12-17T00:00:00","",141,null,141,"","",null,"","",""],[567,"VECTORSTUDYU1","LB","VECTORSTUDYU1-P0003","",567,"","","","CHOL","Cholesterol","CLINICAL CHEMISTRY","","144","mg/dL","","","144",144,"mg/dL",null,null,"","","","","","SERUM","","","","","","","","Cobas 8000","","","","","","","","",141,"2018-12-17T00:00:00","",141,null,141,"","",null,"","",""],[568,"VECTORSTUDYU1","LB","VECTORSTUDYU1-P0401","",568,"","","","CHOL","Cholesterol","CLINICAL CHEMISTRY","","121","mg/dL","","","121",121,"mg/dL",null,null,"","","","","","SERUM","","","","","","","","Cobas 8000","","","","","","","","",141,"2018-12-17T00:00:00","",141,null,141,"","",null,"","",""],[569,"VECTORSTUDYU1","LB","VECTORSTUDYU1-P0402","",569,"","","","CHOL","Cholesterol","CLINICAL CHEMISTRY","","98","mg/dL","","","98",98,"mg/dL",null,null,"","","","","","SERUM","","","","","","","","Cobas 8000","","","","","","","","",141,"2018-12-17T00:00:00","",141,null,141,"","",null,"","",""],[570,"VECTORSTUDYU1","LB","VECTORSTUDYU1-P0403","",570,"","","","CHOL","Cholesterol","CLINICAL CHEMISTRY","","146","mg/dL","","","146",146,"mg/dL",null,null,"","","","","","SERUM","","","","","","","","Cobas 8000","","","","","","","","",141,"2018-12-17T00:00:00","",141,null,141,"","",null,"","",""],[571,"VECTORSTUDYU1","LB","VECTORSTUDYU1-P0001","",571,"","","","CHOL","Cholesterol","CLINICAL CHEMISTRY","","126","mg/dL","","","126",126,"mg/dL",null,null,"","","","","","SERUM","","","","","","","","Cobas 8000","","","","","","","","",169,"2019-01-14T00:00:00","",169,null,169,"","",null,"","",""],[572,"VECTORSTUDYU1","LB","VECTORSTUDYU1-P0002","",572,"","","","CHOL","Cholesterol","CLINICAL CHEMISTRY","","96","mg/dL","","","96",96,"mg/dL",null,null,"","","","","","SERUM","","","","","","","","Cobas 8000","","","","","","","","",169,"2019-01-14T00:00:00","",169,null,169,"","",null,"","",""],[573,"VECTORSTUDYU1","LB","VECTORSTUDYU1-P0003","",573,"","","","CHOL","Cholesterol","CLINICAL CHEMISTRY","","160","mg/dL","","","160",160,"mg/dL",null,null,"","","","","","SERUM","","","","","","","","Cobas 8000","","","","","","","","",169,"2019-01-14T00:00:00","",169,null,169,"","",null,"","",""],[574,"VECTORSTUDYU1","LB","VECTORSTUDYU1-P0401","",574,"","","","CHOL","Cholesterol","CLINICAL CHEMISTRY","","130","mg/dL","","","130",130,"mg/dL",null,null,"","","","","","SERUM","","","","","","","","Cobas 8000","","","","","","","","",169,"2019-01-14T00:00:00","",169,null,169,"","",null,"","",""],[575,"VECTORSTUDYU1","LB","VECTORSTUDYU1-P0402","",575,"","","","CHOL","Cholesterol","CLINICAL CHEMISTRY","","135","mg/dL","","","135",135,"mg/dL",null,null,"","","","","","SERUM","","","","","","","","Cobas 8000","","","","","","","","",169,"2019-01-14T00:00:00","",169,null,169,"","",null,"","",""],[576,"VECTORSTUDYU1","LB","VECTORSTUDYU1-P0403","",576,"","","","CHOL","Cholesterol","CLINICAL CHEMISTRY","","169","mg/dL","","","169",169,"mg/dL",null,null,"","","","","","SERUM","","","","","","","","Cobas 8000","","","","","","","","",169,"2019-01-14T00:00:00","",169,null,169,"","",null,"","",""],[577,"VECTORSTUDYU1","LB","VECTORSTUDYU1-P0001","",577,"","","","TRIG","Triglycerides","CLINICAL CHEMISTRY","","43","mg/dL","","","43",43,"mg/dL",null,null,"","","","","","SERUM","","","","","","","","Cobas 8000","","","","","","","","",-47,"2018-06-13T00:00:00","",-47,null,-47,"","",null,"","",""],[578,"VECTORSTUDYU1","LB","VECTORSTUDYU1-P0002","",578,"","","","TRIG","Triglycerides","CLINICAL CHEMISTRY","","16","mg/dL","","","16",16,"mg/dL",null,null,"","","","","","SERUM","","","","","","","","Cobas 8000","","","","","","","","",-47,"2018-06-13T00:00:00","",-47,null,-47,"","",null,"","",""],[579,"VECTORSTUDYU1","LB","VECTORSTUDYU1-P0003","",579,"","","","TRIG","Triglycerides","CLINICAL CHEMISTRY","","24","mg/dL","","","24",24,"mg/dL",null,null,"","","","","","SERUM","","","","","","","","Cobas 8000","","","","","","","","",-47,"2018-06-13T00:00:00","",-47,null,-47,"","",null,"","",""],[580,"VECTORSTUDYU1","LB","VECTORSTUDYU1-P0401","",580,"","","","TRIG","Triglycerides","CLINICAL CHEMISTRY","","24","mg/dL","","","24",24,"mg/dL",null,null,"","","","","","SERUM","","","","","","","","Cobas 8000","","","","","","","","",-47,"2018-06-13T00:00:00","",-47,null,-47,"","",null,"","",""],[581,"VECTORSTUDYU1","LB","VECTORSTUDYU1-P0402","",581,"","","","TRIG","Triglycerides","CLINICAL CHEMISTRY","","30","mg/dL","","","30",30,"mg/dL",null,null,"","","","","","SERUM","","","","","","","","Cobas 8000","","","","","","","","",-47,"2018-06-13T00:00:00","",-47,null,-47,"","",null,"","",""],[582,"VECTORSTUDYU1","LB","VECTORSTUDYU1-P0403","",582,"","","","TRIG","Triglycerides","CLINICAL CHEMISTRY","","33","mg/dL","","","33",33,"mg/dL",null,null,"","","","","","SERUM","","","","","","","","Cobas 8000","","","","","","","","",-47,"2018-06-13T00:00:00","",-47,null,-47,"","",null,"","",""],[583,"VECTORSTUDYU1","LB","VECTORSTUDYU1-P0001","",583,"","","","TRIG","Triglycerides","CLINICAL CHEMISTRY","","25","mg/dL","","","25",25,"mg/dL",null,null,"","","","","","SERUM","","","","","","","","Cobas 8000","","","","","","","","",-27,"2018-07-03T00:00:00","",-27,null,-27,"","",null,"","",""],[584,"VECTORSTUDYU1","LB","VECTORSTUDYU1-P0002","",584,"","","","TRIG","Triglycerides","CLINICAL CHEMISTRY","","22","mg/dL","","","22",22,"mg/dL",null,null,"","","","","","SERUM","","","","","","","","Cobas 8000","","","","","","","","",-27,"2018-07-03T00:00:00","",-27,null,-27,"","",null,"","",""],[585,"VECTORSTUDYU1","LB","VECTORSTUDYU1-P0003","",585,"","","","TRIG","Triglycerides","CLINICAL CHEMISTRY","","32","mg/dL","","","32",32,"mg/dL",null,null,"","","","","","SERUM","","","","","","","","Cobas 8000","","","","","","","","",-27,"2018-07-03T00:00:00","",-27,null,-27,"","",null,"","",""],[586,"VECTORSTUDYU1","LB","VECTORSTUDYU1-P0401","",586,"","","","TRIG","Triglycerides","CLINICAL CHEMISTRY","","32","mg/dL","","","32",32,"mg/dL",null,null,"","","","","","SERUM","","","","","","","","Cobas 8000","","","","","","","","",-27,"2018-07-03T00:00:00","",-27,null,-27,"","",null,"","",""],[587,"VECTORSTUDYU1","LB","VECTORSTUDYU1-P0402","",587,"","","","TRIG","Triglycerides","CLINICAL CHEMISTRY","","35","mg/dL","","","35",35,"mg/dL",null,null,"","","","","","SERUM","","","","","","","","Cobas 8000","","","","","","","","",-27,"2018-07-03T00:00:00","",-27,null,-27,"","",null,"","",""],[588,"VECTORSTUDYU1","LB","VECTORSTUDYU1-P0403","",588,"","","","TRIG","Triglycerides","CLINICAL CHEMISTRY","","41","mg/dL","","","41",41,"mg/dL",null,null,"","","","","","SERUM","","","","","","","","Cobas 8000","","","","","","","","",-27,"2018-07-03T00:00:00","",-27,null,-27,"","",null,"","",""],[589,"VECTORSTUDYU1","LB","VECTORSTUDYU1-P0001","",589,"","","","TRIG","Triglycerides","CLINICAL CHEMISTRY","","46","mg/dL","","","46",46,"mg/dL",null,null,"","","","","","SERUM","","","","","","","","Cobas 8000","Y","","","","","","","",1,"2018-07-30T00:00:00","",1,null,1,"","",null,"","",""],[590,"VECTORSTUDYU1","LB","VECTORSTUDYU1-P0002","",590,"","","","TRIG","Triglycerides","CLINICAL CHEMISTRY","","22","mg/dL","","","22",22,"mg/dL",null,null,"","","","","","SERUM","","","","","","","","Cobas 8000","Y","","","","","","","",1,"2018-07-30T00:00:00","",1,null,1,"","",null,"","",""],[591,"VECTORSTUDYU1","LB","VECTORSTUDYU1-P0003","",591,"","","","TRIG","Triglycerides","CLINICAL CHEMISTRY","","39","mg/dL","","","39",39,"mg/dL",null,null,"","","","","","SERUM","","","","","","","","Cobas 8000","Y","","","","","","","",1,"2018-07-30T00:00:00","",1,null,1,"","",null,"","",""],[592,"VECTORSTUDYU1","LB","VECTORSTUDYU1-P0401","",592,"","","","TRIG","Triglycerides","CLINICAL CHEMISTRY","","24","mg/dL","","","24",24,"mg/dL",null,null,"","","","","","SERUM","","","","","","","","Cobas 8000","Y","","","","","","","",1,"2018-07-30T00:00:00","",1,null,1,"","",null,"","",""],[593,"VECTORSTUDYU1","LB","VECTORSTUDYU1-P0402","",593,"","","","TRIG","Triglycerides","CLINICAL CHEMISTRY","","33","mg/dL","","","33",33,"mg/dL",null,null,"","","","","","SERUM","","","","","","","","Cobas 8000","Y","","","","","","","",1,"2018-07-30T00:00:00","",1,null,1,"","",null,"","",""],[594,"VECTORSTUDYU1","LB","VECTORSTUDYU1-P0403","",594,"","","","TRIG","Triglycerides","CLINICAL CHEMISTRY","","52","mg/dL","","","52",52,"mg/dL",null,null,"","","","","","SERUM","","","","","","","","Cobas 8000","Y","","","","","","","",1,"2018-07-30T00:00:00","",1,null,1,"","",null,"","",""],[595,"VECTORSTUDYU1","LB","VECTORSTUDYU1-P0001","",595,"","","","TRIG","Triglycerides","CLINICAL CHEMISTRY","","54","mg/dL","","","54",54,"mg/dL",null,null,"","","","","","SERUM","","","","","","","","Cobas 8000","","","","","","","","",15,"2018-08-13T00:00:00","",15,null,15,"","",null,"","",""],[596,"VECTORSTUDYU1","LB","VECTORSTUDYU1-P0002","",596,"","","","TRIG","Triglycerides","CLINICAL CHEMISTRY","","35","mg/dL","","","35",35,"mg/dL",null,null,"","","","","","SERUM","","","","","","","","Cobas 8000","","","","","","","","",15,"2018-08-13T00:00:00","",15,null,15,"","",null,"","",""],[597,"VECTORSTUDYU1","LB","VECTORSTUDYU1-P0003","",597,"","","","TRIG","Triglycerides","CLINICAL CHEMISTRY","","24","mg/dL","","","24",24,"mg/dL",null,null,"","","","","","SERUM","","","","","","","","Cobas 8000","","","","","","","","",15,"2018-08-13T00:00:00","",15,null,15,"","",null,"","",""],[598,"VECTORSTUDYU1","LB","VECTORSTUDYU1-P0401","",598,"","","","TRIG","Triglycerides","CLINICAL CHEMISTRY","","28","mg/dL","","","28",28,"mg/dL",null,null,"","","","","","SERUM","","","","","","","","Cobas 8000","","","","","","","","",15,"2018-08-13T00:00:00","",15,null,15,"","",null,"","",""],[599,"VECTORSTUDYU1","LB","VECTORSTUDYU1-P0402","",599,"","","","TRIG","Triglycerides","CLINICAL CHEMISTRY","","50","mg/dL","","","50",50,"mg/dL",null,null,"","","","","","SERUM","","","","","","","","Cobas 8000","","","","","","","","",15,"2018-08-13T00:00:00","",15,null,15,"","",null,"","",""],[600,"VECTORSTUDYU1","LB","VECTORSTUDYU1-P0403","",600,"","","","TRIG","Triglycerides","CLINICAL CHEMISTRY","","66","mg/dL","","","66",66,"mg/dL",null,null,"","","","","","SERUM","","","","","","","","Cobas 8000","","","","","","","","",15,"2018-08-13T00:00:00","",15,null,15,"","",null,"","",""],[601,"VECTORSTUDYU1","LB","VECTORSTUDYU1-P0001","",601,"","","","TRIG","Triglycerides","CLINICAL CHEMISTRY","","42","mg/dL","","","42",42,"mg/dL",null,null,"","","","","","SERUM","","","","","","","","Cobas 8000","","","","","","","","",29,"2018-08-27T00:00:00","",29,null,29,"","",null,"","",""],[602,"VECTORSTUDYU1","LB","VECTORSTUDYU1-P0002","",602,"","","","TRIG","Triglycerides","CLINICAL CHEMISTRY","","28","mg/dL","","","28",28,"mg/dL",null,null,"","","","","","SERUM","","","","","","","","Cobas 8000","","","","","","","","",29,"2018-08-27T00:00:00","",29,null,29,"","",null,"","",""],[603,"VECTORSTUDYU1","LB","VECTORSTUDYU1-P0003","",603,"","","","TRIG","Triglycerides","CLINICAL CHEMISTRY","","32","mg/dL","","","32",32,"mg/dL",null,null,"","","","","","SERUM","","","","","","","","Cobas 8000","","","","","","","","",29,"2018-08-27T00:00:00","",29,null,29,"","",null,"","",""],[604,"VECTORSTUDYU1","LB","VECTORSTUDYU1-P0401","",604,"","","","TRIG","Triglycerides","CLINICAL CHEMISTRY","","31","mg/dL","","","31",31,"mg/dL",null,null,"","","","","","SERUM","","","","","","","","Cobas 8000","","","","","","","","",29,"2018-08-27T00:00:00","",29,null,29,"","",null,"","",""],[605,"VECTORSTUDYU1","LB","VECTORSTUDYU1-P0402","",605,"","","","TRIG","Triglycerides","CLINICAL CHEMISTRY","","59","mg/dL","","","59",59,"mg/dL",null,null,"","","","","","SERUM","","","","","","","","Cobas 8000","","","","","","","","",29,"2018-08-27T00:00:00","",29,null,29,"","",null,"","",""],[606,"VECTORSTUDYU1","LB","VECTORSTUDYU1-P0403","",606,"","","","TRIG","Triglycerides","CLINICAL CHEMISTRY","","43","mg/dL","","","43",43,"mg/dL",null,null,"","","","","","SERUM","","","","","","","","Cobas 8000","","","","","","","","",29,"2018-08-27T00:00:00","",29,null,29,"","",null,"","",""],[607,"VECTORSTUDYU1","LB","VECTORSTUDYU1-P0001","",607,"","","","TRIG","Triglycerides","CLINICAL CHEMISTRY","","96","mg/dL","","","96",96,"mg/dL",null,null,"","","","","","SERUM","","","","","","","","Cobas 8000","","","","","","","","",43,"2018-09-10T00:00:00","",43,null,43,"","",null,"","",""],[608,"VECTORSTUDYU1","LB","VECTORSTUDYU1-P0002","",608,"","","","TRIG","Triglycerides","CLINICAL CHEMISTRY","","16","mg/dL","","","16",16,"mg/dL",null,null,"","","","","","SERUM","","","","","","","","Cobas 8000","","","","","","","","",43,"2018-09-10T00:00:00","",43,null,43,"","",null,"","",""],[609,"VECTORSTUDYU1","LB","VECTORSTUDYU1-P0003","",609,"","","","TRIG","Triglycerides","CLINICAL CHEMISTRY","","26","mg/dL","","","26",26,"mg/dL",null,null,"","","","","","SERUM","","","","","","","","Cobas 8000","","","","","","","","",43,"2018-09-10T00:00:00","",43,null,43,"","",null,"","",""],[610,"VECTORSTUDYU1","LB","VECTORSTUDYU1-P0401","",610,"","","","TRIG","Triglycerides","CLINICAL CHEMISTRY","","115","mg/dL","","","115",115,"mg/dL",null,null,"","","","","","SERUM","","","","","","","","Cobas 8000","","","","","","","","",43,"2018-09-10T00:00:00","",43,null,43,"","",null,"","",""],[611,"VECTORSTUDYU1","LB","VECTORSTUDYU1-P0402","",611,"","","","TRIG","Triglycerides","CLINICAL CHEMISTRY","","61","mg/dL","","","61",61,"mg/dL",null,null,"","","","","","SERUM","","","","","","","","Cobas 8000","","","","","","","","",43,"2018-09-10T00:00:00","",43,null,43,"","",null,"","",""],[612,"VECTORSTUDYU1","LB","VECTORSTUDYU1-P0403","",612,"","","","TRIG","Triglycerides","CLINICAL CHEMISTRY","","57","mg/dL","","","57",57,"mg/dL",null,null,"","","","","","SERUM","","","","","","","","Cobas 8000","","","","","","","","",43,"2018-09-10T00:00:00","",43,null,43,"","",null,"","",""],[613,"VECTORSTUDYU1","LB","VECTORSTUDYU1-P0001","",613,"","","","TRIG","Triglycerides","CLINICAL CHEMISTRY","","65","mg/dL","","","65",65,"mg/dL",null,null,"","","","","","SERUM","","","","","","","","Cobas 8000","","","","","","","","",57,"2018-09-24T00:00:00","",57,null,57,"","",null,"","",""],[614,"VECTORSTUDYU1","LB","VECTORSTUDYU1-P0002","",614,"","","","TRIG","Triglycerides","CLINICAL CHEMISTRY","","17","mg/dL","","","17",17,"mg/dL",null,null,"","","","","","SERUM","","","","","","","","Cobas 8000","","","","","","","","",57,"2018-09-24T00:00:00","",57,null,57,"","",null,"","",""],[615,"VECTORSTUDYU1","LB","VECTORSTUDYU1-P0003","",615,"","","","TRIG","Triglycerides","CLINICAL CHEMISTRY","","26","mg/dL","","","26",26,"mg/dL",null,null,"","","","","","SERUM","","","","","","","","Cobas 8000","","","","","","","","",57,"2018-09-24T00:00:00","",57,null,57,"","",null,"","",""],[616,"VECTORSTUDYU1","LB","VECTORSTUDYU1-P0401","",616,"","","","TRIG","Triglycerides","CLINICAL CHEMISTRY","","51","mg/dL","","","51",51,"mg/dL",null,null,"","","","","","SERUM","","","","","","","","Cobas 8000","","","","","","","","",57,"2018-09-24T00:00:00","",57,null,57,"","",null,"","",""],[617,"VECTORSTUDYU1","LB","VECTORSTUDYU1-P0402","",617,"","","","TRIG","Triglycerides","CLINICAL CHEMISTRY","","65","mg/dL","","","65",65,"mg/dL",null,null,"","","","","","SERUM","","","","","","","","Cobas 8000","","","","","","","","",57,"2018-09-24T00:00:00","",57,null,57,"","",null,"","",""],[618,"VECTORSTUDYU1","LB","VECTORSTUDYU1-P0403","",618,"","","","TRIG","Triglycerides","CLINICAL CHEMISTRY","","52","mg/dL","","","52",52,"mg/dL",null,null,"","","","","","SERUM","","","","","","","","Cobas 8000","","","","","","","","",57,"2018-09-24T00:00:00","",57,null,57,"","",null,"","",""],[619,"VECTORSTUDYU1","LB","VECTORSTUDYU1-P0001","",619,"","","","TRIG","Triglycerides","CLINICAL CHEMISTRY","","49","mg/dL","","","49",49,"mg/dL",null,null,"","","","","","SERUM","","","","","","","","Cobas 8000","","","","","","","","",71,"2018-10-08T00:00:00","",71,null,71,"","",null,"","",""],[620,"VECTORSTUDYU1","LB","VECTORSTUDYU1-P0002","",620,"","","","TRIG","Triglycerides","CLINICAL CHEMISTRY","","18","mg/dL","","","18",18,"mg/dL",null,null,"","","","","","SERUM","","","","","","","","Cobas 8000","","","","","","","","",71,"2018-10-08T00:00:00","",71,null,71,"","",null,"","",""],[621,"VECTORSTUDYU1","LB","VECTORSTUDYU1-P0003","",621,"","","","TRIG","Triglycerides","CLINICAL CHEMISTRY","","21","mg/dL","","","21",21,"mg/dL",null,null,"","","","","","SERUM","","","","","","","","Cobas 8000","","","","","","","","",71,"2018-10-08T00:00:00","",71,null,71,"","",null,"","",""],[622,"VECTORSTUDYU1","LB","VECTORSTUDYU1-P0401","",622,"","","","TRIG","Triglycerides","CLINICAL CHEMISTRY","","67","mg/dL","","","67",67,"mg/dL",null,null,"","","","","","SERUM","","","","","","","","Cobas 8000","","","","","","","","",71,"2018-10-08T00:00:00","",71,null,71,"","",null,"","",""],[623,"VECTORSTUDYU1","LB","VECTORSTUDYU1-P0402","",623,"","","","TRIG","Triglycerides","CLINICAL CHEMISTRY","","78","mg/dL","","","78",78,"mg/dL",null,null,"","","","","","SERUM","","","","","","","","Cobas 8000","","","","","","","","",71,"2018-10-08T00:00:00","",71,null,71,"","",null,"","",""],[624,"VECTORSTUDYU1","LB","VECTORSTUDYU1-P0403","",624,"","","","TRIG","Triglycerides","CLINICAL CHEMISTRY","","45","mg/dL","","","45",45,"mg/dL",null,null,"","","","","","SERUM","","","","","","","","Cobas 8000","","","","","","","","",71,"2018-10-08T00:00:00","",71,null,71,"","",null,"","",""],[625,"VECTORSTUDYU1","LB","VECTORSTUDYU1-P0001","",625,"","","","TRIG","Triglycerides","CLINICAL CHEMISTRY","","67","mg/dL","","","67",67,"mg/dL",null,null,"","","","","","SERUM","","","","","","","","Cobas 8000","","","","","","","","",85,"2018-10-22T00:00:00","",85,null,85,"","",null,"","",""],[626,"VECTORSTUDYU1","LB","VECTORSTUDYU1-P0002","",626,"","","","TRIG","Triglycerides","CLINICAL CHEMISTRY","","41","mg/dL","","","41",41,"mg/dL",null,null,"","","","","","SERUM","","","","","","","","Cobas 8000","","","","","","","","",85,"2018-10-22T00:00:00","",85,null,85,"","",null,"","",""],[627,"VECTORSTUDYU1","LB","VECTORSTUDYU1-P0003","",627,"","","","TRIG","Triglycerides","CLINICAL CHEMISTRY","","40","mg/dL","","","40",40,"mg/dL",null,null,"","","","","","SERUM","","","","","","","","Cobas 8000","","","","","","","","",85,"2018-10-22T00:00:00","",85,null,85,"","",null,"","",""],[628,"VECTORSTUDYU1","LB","VECTORSTUDYU1-P0401","",628,"","","","TRIG","Triglycerides","CLINICAL CHEMISTRY","","40","mg/dL","","","40",40,"mg/dL",null,null,"","","","","","SERUM","","","","","","","","Cobas 8000","","","","","","","","",85,"2018-10-22T00:00:00","",85,null,85,"","",null,"","",""],[629,"VECTORSTUDYU1","LB","VECTORSTUDYU1-P0402","",629,"","","","TRIG","Triglycerides","CLINICAL CHEMISTRY","","68","mg/dL","","","68",68,"mg/dL",null,null,"","","","","","SERUM","","","","","","","","Cobas 8000","","","","","","","","",85,"2018-10-22T00:00:00","",85,null,85,"","",null,"","",""],[630,"VECTORSTUDYU1","LB","VECTORSTUDYU1-P0403","",630,"","","","TRIG","Triglycerides","CLINICAL CHEMISTRY","","74","mg/dL","","","74",74,"mg/dL",null,null,"","","","","","SERUM","","","","","","","","Cobas 8000","","","","","","","","",85,"2018-10-22T00:00:00","",85,null,85,"","",null,"","",""],[631,"VECTORSTUDYU1","LB","VECTORSTUDYU1-P0001","",631,"","","","TRIG","Triglycerides","CLINICAL CHEMISTRY","","72","mg/dL","","","72",72,"mg/dL",null,null,"","","","","","SERUM","","","","","","","","Cobas 8000","","","","","","","","",113,"2018-11-19T00:00:00","",113,null,113,"","",null,"","",""],[632,"VECTORSTUDYU1","LB","VECTORSTUDYU1-P0002","",632,"","","","TRIG","Triglycerides","CLINICAL CHEMISTRY","","26","mg/dL","","","26",26,"mg/dL",null,null,"","","","","","SERUM","","","","","","","","Cobas 8000","","","","","","","","",113,"2018-11-19T00:00:00","",113,null,113,"","",null,"","",""],[633,"VECTORSTUDYU1","LB","VECTORSTUDYU1-P0003","",633,"","","","TRIG","Triglycerides","CLINICAL CHEMISTRY","","46","mg/dL","","","46",46,"mg/dL",null,null,"","","","","","SERUM","","","","","","","","Cobas 8000","","","","","","","","",113,"2018-11-19T00:00:00","",113,null,113,"","",null,"","",""],[634,"VECTORSTUDYU1","LB","VECTORSTUDYU1-P0401","",634,"","","","TRIG","Triglycerides","CLINICAL CHEMISTRY","","44","mg/dL","","","44",44,"mg/dL",null,null,"","","","","","SERUM","","","","","","","","Cobas 8000","","","","","","","","",113,"2018-11-19T00:00:00","",113,null,113,"","",null,"","",""],[635,"VECTORSTUDYU1","LB","VECTORSTUDYU1-P0402","",635,"","","","TRIG","Triglycerides","CLINICAL CHEMISTRY","","57","mg/dL","","","57",57,"mg/dL",null,null,"","","","","","SERUM","","","","","","","","Cobas 8000","","","","","","","","",113,"2018-11-19T00:00:00","",113,null,113,"","",null,"","",""],[636,"VECTORSTUDYU1","LB","VECTORSTUDYU1-P0403","",636,"","","","TRIG","Triglycerides","CLINICAL CHEMISTRY","","65","mg/dL","","","65",65,"mg/dL",null,null,"","","","","","SERUM","","","","","","","","Cobas 8000","","","","","","","","",113,"2018-11-19T00:00:00","",113,null,113,"","",null,"","",""],[637,"VECTORSTUDYU1","LB","VECTORSTUDYU1-P0001","",637,"","","","TRIG","Triglycerides","CLINICAL CHEMISTRY","","51","mg/dL","","","51",51,"mg/dL",null,null,"","","","","","SERUM","","","","","","","","Cobas 8000","","","","","","","","",141,"2018-12-17T00:00:00","",141,null,141,"","",null,"","",""],[638,"VECTORSTUDYU1","LB","VECTORSTUDYU1-P0002","",638,"","","","TRIG","Triglycerides","CLINICAL CHEMISTRY","","19","mg/dL","","","19",19,"mg/dL",null,null,"","","","","","SERUM","","","","","","","","Cobas 8000","","","","","","","","",141,"2018-12-17T00:00:00","",141,null,141,"","",null,"","",""],[639,"VECTORSTUDYU1","LB","VECTORSTUDYU1-P0003","",639,"","","","TRIG","Triglycerides","CLINICAL CHEMISTRY","","31","mg/dL","","","31",31,"mg/dL",null,null,"","","","","","SERUM","","","","","","","","Cobas 8000","","","","","","","","",141,"2018-12-17T00:00:00","",141,null,141,"","",null,"","",""],[640,"VECTORSTUDYU1","LB","VECTORSTUDYU1-P0401","",640,"","","","TRIG","Triglycerides","CLINICAL CHEMISTRY","","36","mg/dL","","","36",36,"mg/dL",null,null,"","","","","","SERUM","","","","","","","","Cobas 8000","","","","","","","","",141,"2018-12-17T00:00:00","",141,null,141,"","",null,"","",""],[641,"VECTORSTUDYU1","LB","VECTORSTUDYU1-P0402","",641,"","","","TRIG","Triglycerides","CLINICAL CHEMISTRY","","45","mg/dL","","","45",45,"mg/dL",null,null,"","","","","","SERUM","","","","","","","","Cobas 8000","","","","","","","","",141,"2018-12-17T00:00:00","",141,null,141,"","",null,"","",""],[642,"VECTORSTUDYU1","LB","VECTORSTUDYU1-P0403","",642,"","","","TRIG","Triglycerides","CLINICAL CHEMISTRY","","61","mg/dL","","","61",61,"mg/dL",null,null,"","","","","","SERUM","","","","","","","","Cobas 8000","","","","","","","","",141,"2018-12-17T00:00:00","",141,null,141,"","",null,"","",""],[643,"VECTORSTUDYU1","LB","VECTORSTUDYU1-P0001","",643,"","","","TRIG","Triglycerides","CLINICAL CHEMISTRY","","67","mg/dL","","","67",67,"mg/dL",null,null,"","","","","","SERUM","","","","","","","","Cobas 8000","","","","","","","","",169,"2019-01-14T00:00:00","",169,null,169,"","",null,"","",""],[644,"VECTORSTUDYU1","LB","VECTORSTUDYU1-P0002","",644,"","","","TRIG","Triglycerides","CLINICAL CHEMISTRY","","45","mg/dL","","","45",45,"mg/dL",null,null,"","","","","","SERUM","","","","","","","","Cobas 8000","","","","","","","","",169,"2019-01-14T00:00:00","",169,null,169,"","",null,"","",""],[645,"VECTORSTUDYU1","LB","VECTORSTUDYU1-P0003","",645,"","","","TRIG","Triglycerides","CLINICAL CHEMISTRY","","56","mg/dL","","","56",56,"mg/dL",null,null,"","","","","","SERUM","","","","","","","","Cobas 8000","","","","","","","","",169,"2019-01-14T00:00:00","",169,null,169,"","",null,"","",""],[646,"VECTORSTUDYU1","LB","VECTORSTUDYU1-P0401","",646,"","","","TRIG","Triglycerides","CLINICAL CHEMISTRY","","64","mg/dL","","","64",64,"mg/dL",null,null,"","","","","","SERUM","","","","","","","","Cobas 8000","","","","","","","","",169,"2019-01-14T00:00:00","",169,null,169,"","",null,"","",""],[647,"VECTORSTUDYU1","LB","VECTORSTUDYU1-P0402","",647,"","","","TRIG","Triglycerides","CLINICAL CHEMISTRY","","51","mg/dL","","","51",51,"mg/dL",null,null,"","","","","","SERUM","","","","","","","","Cobas 8000","","","","","","","","",169,"2019-01-14T00:00:00","",169,null,169,"","",null,"","",""],[648,"VECTORSTUDYU1","LB","VECTORSTUDYU1-P0403","",648,"","","","TRIG","Triglycerides","CLINICAL CHEMISTRY","","82","mg/dL","","","82",82,"mg/dL",null,null,"","","","","","SERUM","","","","","","","","Cobas 8000","","","","","","","","",169,"2019-01-14T00:00:00","",169,null,169,"","",null,"","",""],[649,"VECTORSTUDYU1","LB","VECTORSTUDYU1-P0001","",649,"","","","BILI","Bilirubin","CLINICAL CHEMISTRY","","0.3","mg/dL","","","0.3",0.3,"mg/dL",null,null,"","","","","","SERUM","","","","","","","","Cobas 8000","","","","","","","","",-47,"2018-06-13T00:00:00","",-47,null,-47,"","",null,"","",""],[650,"VECTORSTUDYU1","LB","VECTORSTUDYU1-P0002","",650,"","","","BILI","Bilirubin","CLINICAL CHEMISTRY","","0.2","mg/dL","","","0.2",0.2,"mg/dL",null,null,"","","","","","SERUM","","","","","","","","Cobas 8000","","","","","","","","",-47,"2018-06-13T00:00:00","",-47,null,-47,"","",null,"","",""],[651,"VECTORSTUDYU1","LB","VECTORSTUDYU1-P0003","",651,"","","","BILI","Bilirubin","CLINICAL CHEMISTRY","","0.2","mg/dL","","","0.2",0.2,"mg/dL",null,null,"","","","","","SERUM","","","","","","","","Cobas 8000","","","","","","","","",-47,"2018-06-13T00:00:00","",-47,null,-47,"","",null,"","",""],[652,"VECTORSTUDYU1","LB","VECTORSTUDYU1-P0401","",652,"","","","BILI","Bilirubin","CLINICAL CHEMISTRY","","0.2","mg/dL","","","0.2",0.2,"mg/dL",null,null,"","","","","","SERUM","","","","","","","","Cobas 8000","","","","","","","","",-47,"2018