{"creationDateTime":"2023-08-01T10:34:33","datasetJSONVersion":"1.0.0","fileOID":"www.cdisc.org/StudyMSGv2/1/Define-XML_2.0.0/2023-08-01/ma","originator":"CDISC SEND Team","sourceSystem":"Sponsor System","sourceSystemVersion":"1.0","clinicalData":{"studyOID":"VECTORSTUDYU1.SEND-IG.3.1","metaDataVersionOID":"MDV.VECTORSTUDYU1.SEND-IG.3.1","metaDataRef":"https://metadata.location.org/TDF_SEND_SENDIG31/define.xml","itemGroupData":{"IG.MA":{"records":270,"name":"MA","label":"MACROSCOPIC FINDINGS","items":[{"OID":"ITEMGROUPDATASEQ","name":"ITEMGROUPDATASEQ","label":"Record Identifier","type":"integer"},{"OID":"IT.MA.STUDYID","name":"STUDYID","label":"Study Identifier","type":"string","length":13,"keySequence":1},{"OID":"IT.MA.DOMAIN","name":"DOMAIN","label":"Domain Abbreviation","type":"string","length":2,"displayFormat":"$2"},{"OID":"IT.MA.USUBJID","name":"USUBJID","label":"Unique Subject Identifier","type":"string","length":19,"keySequence":2},{"OID":"IT.MA.FOCID","name":"FOCID","label":"Focus of Study-Specific Interest","type":"string","length":1},{"OID":"IT.MA.MASEQ","name":"MASEQ","label":"Sequence Number","type":"integer","length":8},{"OID":"IT.MA.MAGRPID","name":"MAGRPID","label":"Group Identifier","type":"string","length":1},{"OID":"IT.MA.MAREFID","name":"MAREFID","label":"Specimen Reference Identifier","type":"string","length":1},{"OID":"IT.MA.MASPID","name":"MASPID","label":"Mass Identifier","type":"string","length":1},{"OID":"IT.MA.MATESTCD","name":"MATESTCD","label":"Macroscopic Examination Short Name","type":"string","length":8,"keySequence":3},{"OID":"IT.MA.MATEST","name":"MATEST","label":"Macroscopic Examination Name","type":"string","length":30},{"OID":"IT.MA.MABODSYS","name":"MABODSYS","label":"Body System or Organ Class","type":"string","length":1},{"OID":"IT.MA.MAORRES","name":"MAORRES","label":"Result or Findings as Collected","type":"string","length":128,"keySequence":4},{"OID":"IT.MA.MASTRESC","name":"MASTRESC","label":"Standardized Result in Character Format","type":"string","length":20},{"OID":"IT.MA.MASTAT","name":"MASTAT","label":"Completion Status","type":"string","length":1},{"OID":"IT.MA.MAREASND","name":"MAREASND","label":"Reason Not Done","type":"string","length":1},{"OID":"IT.MA.MANAM","name":"MANAM","label":"Laboratory Name","type":"string","length":1},{"OID":"IT.MA.MASPEC","name":"MASPEC","label":"Specimen Material Type","type":"string","length":25,"keySequence":5},{"OID":"IT.MA.MAANTREG","name":"MAANTREG","label":"Anatomical Region of Specimen","type":"string","length":1,"keySequence":6},{"OID":"IT.MA.MASPCCND","name":"MASPCCND","label":"Specimen Condition","type":"string","length":1},{"OID":"IT.MA.MASPCUFL","name":"MASPCUFL","label":"Specimen Usability for the Test","type":"string","length":1},{"OID":"IT.MA.MALAT","name":"MALAT","label":"Specimen Laterality within Subject","type":"string","length":1,"keySequence":7},{"OID":"IT.MA.MADIR","name":"MADIR","label":"Specimen Directionality within Subject","type":"string","length":1,"keySequence":8},{"OID":"IT.MA.MAPORTOT","name":"MAPORTOT","label":"Portion or Totality","type":"string","length":1},{"OID":"IT.MA.MAEVAL","name":"MAEVAL","label":"Evaluator","type":"string","length":1},{"OID":"IT.MA.MASEV","name":"MASEV","label":"Severity","type":"string","length":1},{"OID":"IT.MA.MADTHREL","name":"MADTHREL","label":"Relationship to Death","type":"string","length":1},{"OID":"IT.MA.MADTC","name":"MADTC","label":"Date/Time","type":"string"},{"OID":"IT.MA.MADY","name":"MADY","label":"Study Day","type":"integer","length":8}],"itemData":[[1,"VECTORSTUDYU1","MA","VECTORSTUDYU1-P0001","",1,"","","","GROSPATH","Gross Pathological Examination","","GLAND, ADRENAL: UNREMARKABLE","UNREMARKABLE","","","","GLAND, ADRENAL","","","","","","","","","","2019-01-14T00:00:00",169],[2,"VECTORSTUDYU1","MA","VECTORSTUDYU1-P0001","",2,"","","","GROSPATH","Gross Pathological Examination","","WHOLE ANIMAL: UNREMARKABLE","UNREMARKABLE","","","","WHOLE ANIMAL","","","","","","","","","","2019-01-14T00:00:00",169],[3,"VECTORSTUDYU1","MA","VECTORSTUDYU1-P0001","",3,"","","","GROSPATH","Gross Pathological Examination","","ARTERY, AORTA: UNREMARKABLE","UNREMARKABLE","","","","ARTERY, AORTA","","","","","","","","","","2019-01-14T00:00:00",169],[4,"VECTORSTUDYU1","MA","VECTORSTUDYU1-P0001","",4,"","","","GROSPATH","Gross Pathological Examination","","BRAIN: UNREMARKABLE","UNREMARKABLE","","","","BRAIN","","","","","","","","","","2019-01-14T00:00:00",169],[5,"VECTORSTUDYU1","MA","VECTORSTUDYU1-P0001","",5,"","","","GROSPATH","Gross Pathological Examination","","LARGE INTESTINE, CECUM: UNREMARKABLE","UNREMARKABLE","","","","LARGE INTESTINE, CECUM","","","","","","","","","","2019-01-14T00:00:00",169],[6,"VECTORSTUDYU1","MA","VECTORSTUDYU1-P0001","",6,"","","","GROSPATH","Gross Pathological Examination","","LARGE INTESTINE, COLON: UNREMARKABLE","UNREMARKABLE","","","","LARGE INTESTINE, COLON","","","","","","","","","","2019-01-14T00:00:00",169],[7,"VECTORSTUDYU1","MA","VECTORSTUDYU1-P0001","",7,"","","","GROSPATH","Gross Pathological Examination","","SMALL INTESTINE, DUODENUM: UNREMARKABLE","UNREMARKABLE","","","","SMALL INTESTINE, DUODENUM","","","","","","","","","","2019-01-14T00:00:00",169],[8,"VECTORSTUDYU1","MA","VECTORSTUDYU1-P0001","",8,"","","","GROSPATH","Gross Pathological Examination","","EPIDIDYMIS: UNREMARKABLE","UNREMARKABLE","","","","EPIDIDYMIS","","","","","","","","","","2019-01-14T00:00:00",169],[9,"VECTORSTUDYU1","MA","VECTORSTUDYU1-P0001","",9,"","","","GROSPATH","Gross Pathological Examination","","ESOPHAGUS: UNREMARKABLE","UNREMARKABLE","","","","ESOPHAGUS","","","","","","","","","","2019-01-14T00:00:00",169],[10,"VECTORSTUDYU1","MA","VECTORSTUDYU1-P0001","",10,"","","","GROSPATH","Gross Pathological Examination","","EYE: UNREMARKABLE","UNREMARKABLE","","","","EYE","","","","","","","","","","2019-01-14T00:00:00",169],[11,"VECTORSTUDYU1","MA","VECTORSTUDYU1-P0001","",11,"","","","GROSPATH","Gross Pathological Examination","","BONE, FEMUR: UNREMARKABLE","UNREMARKABLE","","","","BONE, FEMUR","","","","","","","","","","2019-01-14T00:00:00",169],[12,"VECTORSTUDYU1","MA","VECTORSTUDYU1-P0001","",12,"","","","GROSPATH","Gross Pathological Examination","","PEYER'S PATCH: UNREMARKABLE","UNREMARKABLE","","","","PEYER'S PATCH","","","","","","","","","","2019-01-14T00:00:00",169],[13,"VECTORSTUDYU1","MA","VECTORSTUDYU1-P0001","",13,"","","","GROSPATH","Gross Pathological Examination","","GALLBLADDER: UNREMARKABLE","UNREMARKABLE","","","","GALLBLADDER","","","","","","","","","","2019-01-14T00:00:00",169],[14,"VECTORSTUDYU1","MA","VECTORSTUDYU1-P0001","",14,"","","","GROSPATH","Gross Pathological Examination","","HEART: UNREMARKABLE","UNREMARKABLE","","","","HEART","","","","","","","","","","2019-01-14T00:00:00",169],[15,"VECTORSTUDYU1","MA","VECTORSTUDYU1-P0001","",15,"","","","GROSPATH","Gross Pathological Examination","","SMALL INTESTINE, ILEUM: UNREMARKABLE","UNREMARKABLE","","","","SMALL INTESTINE, ILEUM","","","","","","","","","","2019-01-14T00:00:00",169],[16,"VECTORSTUDYU1","MA","VECTORSTUDYU1-P0001","",16,"","","","GROSPATH","Gross Pathological Examination","","SITE, INJECTION: UNREMARKABLE","UNREMARKABLE","","","","SITE, INJECTION","","","","","","","","","","2019-01-14T00:00:00",169],[17,"VECTORSTUDYU1","MA","VECTORSTUDYU1-P0001","",17,"","","","GROSPATH","Gross Pathological Examination","","SMALL INTESTINE, JEJUNUM: UNREMARKABLE","UNREMARKABLE","","","","SMALL INTESTINE, JEJUNUM","","","","","","","","","","2019-01-14T00:00:00",169],[18,"VECTORSTUDYU1","MA","VECTORSTUDYU1-P0001","",18,"","","","GROSPATH","Gross Pathological Examination","","KIDNEY: UNREMARKABLE","UNREMARKABLE","","","","KIDNEY","","","","","","","","","","2019-01-14T00:00:00",169],[19,"VECTORSTUDYU1","MA","VECTORSTUDYU1-P0001","",19,"","","","GROSPATH","Gross Pathological Examination","","LIVER: UNREMARKABLE","UNREMARKABLE","","","","LIVER","","","","","","","","","","2019-01-14T00:00:00",169],[20,"VECTORSTUDYU1","MA","VECTORSTUDYU1-P0001","",20,"","","","GROSPATH","Gross Pathological Examination","","LUNG: UNREMARKABLE","UNREMARKABLE","","","","LUNG","","","","","","","","","","2019-01-14T00:00:00",169],[21,"VECTORSTUDYU1","MA","VECTORSTUDYU1-P0001","",21,"","","","GROSPATH","Gross Pathological Examination","","LYMPH NODE, MANDIBULAR: UNREMARKABLE","UNREMARKABLE","","","","LYMPH NODE, MANDIBULAR","","","","","","","","","","2019-01-14T00:00:00",169],[22,"VECTORSTUDYU1","MA","VECTORSTUDYU1-P0001","",22,"","","","GROSPATH","Gross Pathological Examination","","LYMPH NODE, MESENTERIC: UNREMARKABLE","UNREMARKABLE","","","","LYMPH NODE, MESENTERIC","","","","","","","","","","2019-01-14T00:00:00",169],[23,"VECTORSTUDYU1","MA","VECTORSTUDYU1-P0001","",23,"","","","GROSPATH","Gross Pathological Examination","","GLAND, SALIVARY: UNREMARKABLE","UNREMARKABLE","","","","GLAND, SALIVARY","","","","","","","","","","2019-01-14T00:00:00",169],[24,"VECTORSTUDYU1","MA","VECTORSTUDYU1-P0001","",24,"","","","GROSPATH","Gross Pathological Examination","","BONE MARROW, FEMUR: UNREMARKABLE","UNREMARKABLE","","","","BONE MARROW, FEMUR","","","","","","","","","","2019-01-14T00:00:00",169],[25,"VECTORSTUDYU1","MA","VECTORSTUDYU1-P0001","",25,"","","","GROSPATH","Gross Pathological Examination","","BONE MARROW, STERNUM: UNREMARKABLE","UNREMARKABLE","","","","BONE MARROW, STERNUM","","","","","","","","","","2019-01-14T00:00:00",169],[26,"VECTORSTUDYU1","MA","VECTORSTUDYU1-P0001","",26,"","","","GROSPATH","Gross Pathological Examination","","MUSCLE, BICEPS FEMORIS: UNREMARKABLE","UNREMARKABLE","","","","MUSCLE, BICEPS FEMORIS","","","","","","","","","","2019-01-14T00:00:00",169],[27,"VECTORSTUDYU1","MA","VECTORSTUDYU1-P0001","",27,"","","","GROSPATH","Gross Pathological Examination","","NERVE, OPTIC: UNREMARKABLE","UNREMARKABLE","","","","NERVE, OPTIC","","","","","","","","","","2019-01-14T00:00:00",169],[28,"VECTORSTUDYU1","MA","VECTORSTUDYU1-P0001","",28,"","","","GROSPATH","Gross Pathological Examination","","NERVE, SCIATIC: UNREMARKABLE","UNREMARKABLE","","","","NERVE, SCIATIC","","","","","","","","","","2019-01-14T00:00:00",169],[29,"VECTORSTUDYU1","MA","VECTORSTUDYU1-P0001","",29,"","","","GROSPATH","Gross Pathological Examination","","PANCREAS: UNREMARKABLE","UNREMARKABLE","","","","PANCREAS","","","","","","","","","","2019-01-14T00:00:00",169],[30,"VECTORSTUDYU1","MA","VECTORSTUDYU1-P0001","",30,"","","","GROSPATH","Gross Pathological Examination","","GLAND, PARATHYROID: UNREMARKABLE","UNREMARKABLE","","","","GLAND, PARATHYROID","","","","","","","","","","2019-01-14T00:00:00",169],[31,"VECTORSTUDYU1","MA","VECTORSTUDYU1-P0001","",31,"","","","GROSPATH","Gross Pathological Examination","","GLAND, PITUITARY: UNREMARKABLE","UNREMARKABLE","","","","GLAND, PITUITARY","","","","","","","","","","2019-01-14T00:00:00",169],[32,"VECTORSTUDYU1","MA","VECTORSTUDYU1-P0001","",32,"","","","GROSPATH","Gross Pathological Examination","","GLAND, PROSTATE: UNREMARKABLE","UNREMARKABLE","","","","GLAND, PROSTATE","","","","","","","","","","2019-01-14T00:00:00",169],[33,"VECTORSTUDYU1","MA","VECTORSTUDYU1-P0001","",33,"","","","GROSPATH","Gross Pathological Examination","","LARGE INTESTINE, RECTUM: UNREMARKABLE","UNREMARKABLE","","","","LARGE INTESTINE, RECTUM","","","","","","","","","","2019-01-14T00:00:00",169],[34,"VECTORSTUDYU1","MA","VECTORSTUDYU1-P0001","",34,"","","","GROSPATH","Gross Pathological Examination","","GLAND, SEMINAL VESICLE: UNREMARKABLE","UNREMARKABLE","","","","GLAND, SEMINAL VESICLE","","","","","","","","","","2019-01-14T00:00:00",169],[35,"VECTORSTUDYU1","MA","VECTORSTUDYU1-P0001","",35,"","","","GROSPATH","Gross Pathological Examination","","SKIN/SUBCUTIS: UNREMARKABLE","UNREMARKABLE","","","","SKIN/SUBCUTIS","","","","","","","","","","2019-01-14T00:00:00",169],[36,"VECTORSTUDYU1","MA","VECTORSTUDYU1-P0001","",36,"","","","GROSPATH","Gross Pathological Examination","","SPINAL CORD: UNREMARKABLE","UNREMARKABLE","","","","SPINAL CORD","","","","","","","","","","2019-01-14T00:00:00",169],[37,"VECTORSTUDYU1","MA","VECTORSTUDYU1-P0001","",37,"","","","GROSPATH","Gross Pathological Examination","","SPLEEN: UNREMARKABLE","UNREMARKABLE","","","","SPLEEN","","","","","","","","","","2019-01-14T00:00:00",169],[38,"VECTORSTUDYU1","MA","VECTORSTUDYU1-P0001","",38,"","","","GROSPATH","Gross Pathological Examination","","BONE, STERNUM: UNREMARKABLE","UNREMARKABLE","","","","BONE, STERNUM","","","","","","","","","","2019-01-14T00:00:00",169],[39,"VECTORSTUDYU1","MA","VECTORSTUDYU1-P0001","",39,"","","","GROSPATH","Gross Pathological Examination","","STOMACH: UNREMARKABLE","UNREMARKABLE","","","","STOMACH","","","","","","","","","","2019-01-14T00:00:00",169],[40,"VECTORSTUDYU1","MA","VECTORSTUDYU1-P0001","",40,"","","","GROSPATH","Gross Pathological Examination","","TESTIS: UNREMARKABLE","UNREMARKABLE","","","","TESTIS","","","","","","","","","","2019-01-14T00:00:00",169],[41,"VECTORSTUDYU1","MA","VECTORSTUDYU1-P0001","",41,"","","","GROSPATH","Gross Pathological Examination","","THYMUS: UNREMARKABLE","UNREMARKABLE","","","","THYMUS","","","","","","","","","","2019-01-14T00:00:00",169],[42,"VECTORSTUDYU1","MA","VECTORSTUDYU1-P0001","",42,"","","","GROSPATH","Gross Pathological Examination","","GLAND, THYROID: UNREMARKABLE","UNREMARKABLE","","","","GLAND, THYROID","","","","","","","","","","2019-01-14T00:00:00",169],[43,"VECTORSTUDYU1","MA","VECTORSTUDYU1-P0001","",43,"","","","GROSPATH","Gross Pathological Examination","","TONGUE: UNREMARKABLE","UNREMARKABLE","","","","TONGUE","","","","","","","","","","2019-01-14T00:00:00",169],[44,"VECTORSTUDYU1","MA","VECTORSTUDYU1-P0001","",44,"","","","GROSPATH","Gross Pathological Examination","","TRACHEA: UNREMARKABLE","UNREMARKABLE","","","","TRACHEA","","","","","","","","","","2019-01-14T00:00:00",169],[45,"VECTORSTUDYU1","MA","VECTORSTUDYU1-P0001","",45,"","","","GROSPATH","Gross Pathological Examination","","URINARY BLADDER: UNREMARKABLE","UNREMARKABLE","","","","URINARY BLADDER","","","","","","","","","","2019-01-14T00:00:00",169],[46,"VECTORSTUDYU1","MA","VECTORSTUDYU1-P0002","",46,"","","","GROSPATH","Gross Pathological Examination","","GLAND, ADRENAL: UNREMARKABLE","UNREMARKABLE","","","","GLAND, ADRENAL","","","","","","","","","","2019-01-14T00:00:00",169],[47,"VECTORSTUDYU1","MA","VECTORSTUDYU1-P0002","",47,"","","","GROSPATH","Gross Pathological Examination","","WHOLE ANIMAL: UNREMARKABLE","UNREMARKABLE","","","","WHOLE ANIMAL","","","","","","","","","","2019-01-14T00:00:00",169],[48,"VECTORSTUDYU1","MA","VECTORSTUDYU1-P0002","",48,"","","","GROSPATH","Gross Pathological Examination","","ARTERY, AORTA: UNREMARKABLE","UNREMARKABLE","","","","ARTERY, AORTA","","","","","","","","","","2019-01-14T00:00:00",169],[49,"VECTORSTUDYU1","MA","VECTORSTUDYU1-P0002","",49,"","","","GROSPATH","Gross Pathological Examination","","BRAIN: UNREMARKABLE","UNREMARKABLE","","","","BRAIN","","","","","","","","","","2019-01-14T00:00:00",169],[50,"VECTORSTUDYU1","MA","VECTORSTUDYU1-P0002","",50,"","","","GROSPATH","Gross Pathological Examination","","LARGE INTESTINE, CECUM: UNREMARKABLE","UNREMARKABLE","","","","LARGE INTESTINE, CECUM","","","","","","","","","","2019-01-14T00:00:00",169],[51,"VECTORSTUDYU1","MA","VECTORSTUDYU1-P0002","",51,"","","","GROSPATH","Gross Pathological Examination","","LARGE INTESTINE, COLON: UNREMARKABLE","UNREMARKABLE","","","","LARGE INTESTINE, COLON","","","","","","","","","","2019-01-14T00:00:00",169],[52,"VECTORSTUDYU1","MA","VECTORSTUDYU1-P0002","",52,"","","","GROSPATH","Gross Pathological Examination","","SMALL INTESTINE, DUODENUM: UNREMARKABLE","UNREMARKABLE","","","","SMALL INTESTINE, DUODENUM","","","","","","","","","","2019-01-14T00:00:00",169],[53,"VECTORSTUDYU1","MA","VECTORSTUDYU1-P0002","",53,"","","","GROSPATH","Gross Pathological Examination","","EPIDIDYMIS: UNREMARKABLE","UNREMARKABLE","","","","EPIDIDYMIS","","","","","","","","","","2019-01-14T00:00:00",169],[54,"VECTORSTUDYU1","MA","VECTORSTUDYU1-P0002","",54,"","","","GROSPATH","Gross Pathological Examination","","ESOPHAGUS: UNREMARKABLE","UNREMARKABLE","","","","ESOPHAGUS","","","","","","","","","","2019-01-14T00:00:00",169],[55,"VECTORSTUDYU1","MA","VECTORSTUDYU1-P0002","",55,"","","","GROSPATH","Gross Pathological Examination","","EYE: UNREMARKABLE","UNREMARKABLE","","","","EYE","","","","","","","","","","2019-01-14T00:00:00",169],[56,"VECTORSTUDYU1","MA","VECTORSTUDYU1-P0002","",56,"","","","GROSPATH","Gross Pathological Examination","","BONE, FEMUR: UNREMARKABLE","UNREMARKABLE","","","","BONE, FEMUR","","","","","","","","","","2019-01-14T00:00:00",169],[57,"VECTORSTUDYU1","MA","VECTORSTUDYU1-P0002","",57,"","","","GROSPATH","Gross Pathological Examination","","PEYER'S PATCH: UNREMARKABLE","UNREMARKABLE","","","","PEYER'S PATCH","","","","","","","","","","2019-01-14T00:00:00",169],[58,"VECTORSTUDYU1","MA","VECTORSTUDYU1-P0002","",58,"","","","GROSPATH","Gross Pathological Examination","","GALLBLADDER: UNREMARKABLE","UNREMARKABLE","","","","GALLBLADDER","","","","","","","","","","2019-01-14T00:00:00",169],[59,"VECTORSTUDYU1","MA","VECTORSTUDYU1-P0002","",59,"","","","GROSPATH","Gross Pathological Examination","","HEART: UNREMARKABLE","UNREMARKABLE","","","","HEART","","","","","","","","","","2019-01-14T00:00:00",169],[60,"VECTORSTUDYU1","MA","VECTORSTUDYU1-P0002","",60,"","","","GROSPATH","Gross Pathological Examination","","SMALL INTESTINE, ILEUM: UNREMARKABLE","UNREMARKABLE","","","","SMALL INTESTINE, ILEUM","","","","","","","","","","2019-01-14T00:00:00",169],[61,"VECTORSTUDYU1","MA","VECTORSTUDYU1-P0002","",61,"","","","GROSPATH","Gross Pathological Examination","","SITE, INJECTION: UNREMARKABLE","UNREMARKABLE","","","","SITE, INJECTION","","","","","","","","","","2019-01-14T00:00:00",169],[62,"VECTORSTUDYU1","MA","VECTORSTUDYU1-P0002","",62,"","","","GROSPATH","Gross Pathological Examination","","SMALL INTESTINE, JEJUNUM: UNREMARKABLE","UNREMARKABLE","","","","SMALL INTESTINE, JEJUNUM","","","","","","","","","","2019-01-14T00:00:00",169],[63,"VECTORSTUDYU1","MA","VECTORSTUDYU1-P0002","",63,"","","","GROSPATH","Gross Pathological Examination","","KIDNEY: UNREMARKABLE","UNREMARKABLE","","","","KIDNEY","","","","","","","","","","2019-01-14T00:00:00",169],[64,"VECTORSTUDYU1","MA","VECTORSTUDYU1-P0002","",64,"","","","GROSPATH","Gross Pathological Examination","","LIVER: UNREMARKABLE","UNREMARKABLE","","","","LIVER","","","","","","","","","","2019-01-14T00:00:00",169],[65,"VECTORSTUDYU1","MA","VECTORSTUDYU1-P0002","",65,"","","","GROSPATH","Gross Pathological Examination","","LUNG: UNREMARKABLE","UNREMARKABLE","","","","LUNG","","","","","","","","","","2019-01-14T00:00:00",169],[66,"VECTORSTUDYU1","MA","VECTORSTUDYU1-P0002","",66,"","","","GROSPATH","Gross Pathological Examination","","LYMPH NODE, MANDIBULAR: UNREMARKABLE","UNREMARKABLE","","","","LYMPH NODE, MANDIBULAR","","","","","","","","","","2019-01-14T00:00:00",169],[67,"VECTORSTUDYU1","MA","VECTORSTUDYU1-P0002","",67,"","","","GROSPATH","Gross Pathological Examination","","LYMPH NODE, MESENTERIC: UNREMARKABLE","UNREMARKABLE","","","","LYMPH NODE, MESENTERIC","","","","","","","","","","2019-01-14T00:00:00",169],[68,"VECTORSTUDYU1","MA","VECTORSTUDYU1-P0002","",68,"","","","GROSPATH","Gross Pathological Examination","","GLAND, SALIVARY: UNREMARKABLE","UNREMARKABLE","","","","GLAND, SALIVARY","","","","","","","","","","2019-01-14T00:00:00",169],[69,"VECTORSTUDYU1","MA","VECTORSTUDYU1-P0002","",69,"","","","GROSPATH","Gross Pathological Examination","","BONE MARROW, FEMUR: UNREMARKABLE","UNREMARKABLE","","","","BONE MARROW, FEMUR","","","","","","","","","","2019-01-14T00:00:00",169],[70,"VECTORSTUDYU1","MA","VECTORSTUDYU1-P0002","",70,"","","","GROSPATH","Gross Pathological Examination","","BONE MARROW, STERNUM: UNREMARKABLE","UNREMARKABLE","","","","BONE MARROW, STERNUM","","","","","","","","","","2019-01-14T00:00:00",169],[71,"VECTORSTUDYU1","MA","VECTORSTUDYU1-P0002","",71,"","","","GROSPATH","Gross Pathological Examination","","MUSCLE, BICEPS FEMORIS: UNREMARKABLE","UNREMARKABLE","","","","MUSCLE, BICEPS FEMORIS","","","","","","","","","","2019-01-14T00:00:00",169],[72,"VECTORSTUDYU1","MA","VECTORSTUDYU1-P0002","",72,"","","","GROSPATH","Gross Pathological Examination","","NERVE, OPTIC: UNREMARKABLE","UNREMARKABLE","","","","NERVE, OPTIC","","","","","","","","","","2019-01-14T00:00:00",169],[73,"VECTORSTUDYU1","MA","VECTORSTUDYU1-P0002","",73,"","","","GROSPATH","Gross Pathological Examination","","NERVE, SCIATIC: UNREMARKABLE","UNREMARKABLE","","","","NERVE, SCIATIC","","","","","","","","","","2019-01-14T00:00:00",169],[74,"VECTORSTUDYU1","MA","VECTORSTUDYU1-P0002","",74,"","","","GROSPATH","Gross Pathological Examination","","PANCREAS: UNREMARKABLE","UNREMARKABLE","","","","PANCREAS","","","","","","","","","","2019-01-14T00:00:00",169],[75,"VECTORSTUDYU1","MA","VECTORSTUDYU1-P0002","",75,"","","","GROSPATH","Gross Pathological Examination","","GLAND, PARATHYROID: UNREMARKABLE","UNREMARKABLE","","","","GLAND, PARATHYROID","","","","","","","","","","2019-01-14T00:00:00",169],[76,"VECTORSTUDYU1","MA","VECTORSTUDYU1-P0002","",76,"","","","GROSPATH","Gross Pathological Examination","","GLAND, PITUITARY: UNREMARKABLE","UNREMARKABLE","","","","GLAND, PITUITARY","","","","","","","","","","2019-01-14T00:00:00",169],[77,"VECTORSTUDYU1","MA","VECTORSTUDYU1-P0002","",77,"","","","GROSPATH","Gross Pathological Examination","","GLAND, PROSTATE: UNREMARKABLE","UNREMARKABLE","","","","GLAND, PROSTATE","","","","","","","","","","2019-01-14T00:00:00",169],[78,"VECTORSTUDYU1","MA","VECTORSTUDYU1-P0002","",78,"","","","GROSPATH","Gross Pathological Examination","","LARGE INTESTINE, RECTUM: UNREMARKABLE","UNREMARKABLE","","","","LARGE INTESTINE, RECTUM","","","","","","","","","","2019-01-14T00:00:00",169],[79,"VECTORSTUDYU1","MA","VECTORSTUDYU1-P0002","",79,"","","","GROSPATH","Gross Pathological Examination","","GLAND, SEMINAL VESICLE: UNREMARKABLE","UNREMARKABLE","","","","GLAND, SEMINAL VESICLE","","","","","","","","","","2019-01-14T00:00:00",169],[80,"VECTORSTUDYU1","MA","VECTORSTUDYU1-P0002","",80,"","","","GROSPATH","Gross Pathological Examination","","SKIN/SUBCUTIS: Scab; tail, distal end; single, up to 10 mm2; red; collected","Scab, red; tail","","","","SKIN/SUBCUTIS","","","","","","SINGLE","","","","2019-01-14T00:00:00",169],[81,"VECTORSTUDYU1","MA","VECTORSTUDYU1-P0002","",81,"","","","GROSPATH","Gross Pathological Examination","","SPINAL CORD: UNREMARKABLE","UNREMARKABLE","","","","SPINAL CORD","","","","","","","","","","2019-01-14T00:00:00",169],[82,"VECTORSTUDYU1","MA","VECTORSTUDYU1-P0002","",82,"","","","GROSPATH","Gross Pathological Examination","","SPLEEN: UNREMARKABLE","UNREMARKABLE","","","","SPLEEN","","","","","","","","","","2019-01-14T00:00:00",169],[83,"VECTORSTUDYU1","MA","VECTORSTUDYU1-P0002","",83,"","","","GROSPATH","Gross Pathological Examination","","BONE, STERNUM: UNREMARKABLE","UNREMARKABLE","","","","BONE, STERNUM","","","","","","","","","","2019-01-14T00:00:00",169],[84,"VECTORSTUDYU1","MA","VECTORSTUDYU1-P0002","",84,"","","","GROSPATH","Gross Pathological Examination","","STOMACH: UNREMARKABLE","UNREMARKABLE","","","","STOMACH","","","","","","","","","","2019-01-14T00:00:00",169],[85,"VECTORSTUDYU1","MA","VECTORSTUDYU1-P0002","",85,"","","","GROSPATH","Gross Pathological Examination","","TESTIS: UNREMARKABLE","UNREMARKABLE","","","","TESTIS","","","","","","","","","","2019-01-14T00:00:00",169],[86,"VECTORSTUDYU1","MA","VECTORSTUDYU1-P0002","",86,"","","","GROSPATH","Gross Pathological Examination","","THYMUS: UNREMARKABLE","UNREMARKABLE","","","","THYMUS","","","","","","","","","","2019-01-14T00:00:00",169],[87,"VECTORSTUDYU1","MA","VECTORSTUDYU1-P0002","",87,"","","","GROSPATH","Gross Pathological Examination","","GLAND, THYROID: UNREMARKABLE","UNREMARKABLE","","","","GLAND, THYROID","","","","","","","","","","2019-01-14T00:00:00",169],[88,"VECTORSTUDYU1","MA","VECTORSTUDYU1-P0002","",88,"","","","GROSPATH","Gross Pathological Examination","","TONGUE: UNREMARKABLE","UNREMARKABLE","","","","TONGUE","","","","","","","","","","2019-01-14T00:00:00",169],[89,"VECTORSTUDYU1","MA","VECTORSTUDYU1-P0002","",89,"","","","GROSPATH","Gross Pathological Examination","","TRACHEA: UNREMARKABLE","UNREMARKABLE","","","","TRACHEA","","","","","","","","","","2019-01-14T00:00:00",169],[90,"VECTORSTUDYU1","MA","VECTORSTUDYU1-P0002","",90,"","","","GROSPATH","Gross Pathological Examination","","URINARY BLADDER: UNREMARKABLE","UNREMARKABLE","","","","URINARY BLADDER","","","","","","","","","","2019-01-14T00:00:00",169],[91,"VECTORSTUDYU1","MA","VECTORSTUDYU1-P0003","",91,"","","","GROSPATH","Gross Pathological Examination","","GLAND, ADRENAL: UNREMARKABLE","UNREMARKABLE","","","","GLAND, ADRENAL","","","","","","","","","","2019-01-14T00:00:00",169],[92,"VECTORSTUDYU1","MA","VECTORSTUDYU1-P0003","",92,"","","","GROSPATH","Gross Pathological Examination","","WHOLE ANIMAL: UNREMARKABLE","UNREMARKABLE","","","","WHOLE ANIMAL","","","","","","","","","","2019-01-14T00:00:00",169],[93,"VECTORSTUDYU1","MA","VECTORSTUDYU1-P0003","",93,"","","","GROSPATH","Gross Pathological Examination","","ARTERY, AORTA: UNREMARKABLE","UNREMARKABLE","","","","ARTERY, AORTA","","","","","","","","","","2019-01-14T00:00:00",169],[94,"VECTORSTUDYU1","MA","VECTORSTUDYU1-P0003","",94,"","","","GROSPATH","Gross Pathological Examination","","BRAIN: UNREMARKABLE","UNREMARKABLE","","","","BRAIN","","","","","","","","","","2019-01-14T00:00:00",169],[95,"VECTORSTUDYU1","MA","VECTORSTUDYU1-P0003","",95,"","","","GROSPATH","Gross Pathological Examination","","LARGE INTESTINE, CECUM: UNREMARKABLE","UNREMARKABLE","","","","LARGE INTESTINE, CECUM","","","","","","","","","","2019-01-14T00:00:00",169],[96,"VECTORSTUDYU1","MA","VECTORSTUDYU1-P0003","",96,"","","","GROSPATH","Gross Pathological Examination","","LARGE INTESTINE, COLON: UNREMARKABLE","UNREMARKABLE","","","","LARGE INTESTINE, COLON","","","","","","","","","","2019-01-14T00:00:00",169],[97,"VECTORSTUDYU1","MA","VECTORSTUDYU1-P0003","",97,"","","","GROSPATH","Gross Pathological Examination","","SMALL INTESTINE, DUODENUM: UNREMARKABLE","UNREMARKABLE","","","","SMALL INTESTINE, DUODENUM","","","","","","","","","","2019-01-14T00:00:00",169],[98,"VECTORSTUDYU1","MA","VECTORSTUDYU1-P0003","",98,"","","","GROSPATH","Gross Pathological Examination","","EPIDIDYMIS: UNREMARKABLE","UNREMARKABLE","","","","EPIDIDYMIS","","","","","","","","","","2019-01-14T00:00:00",169],[99,"VECTORSTUDYU1","MA","VECTORSTUDYU1-P0003","",99,"","","","GROSPATH","Gross Pathological Examination","","ESOPHAGUS: UNREMARKABLE","UNREMARKABLE","","","","ESOPHAGUS","","","","","","","","","","2019-01-14T00:00:00",169],[100,"VECTORSTUDYU1","MA","VECTORSTUDYU1-P0003","",100,"","","","GROSPATH","Gross Pathological Examination","","EYE: UNREMARKABLE","UNREMARKABLE","","","","EYE","","","","","","","","","","2019-01-14T00:00:00",169],[101,"VECTORSTUDYU1","MA","VECTORSTUDYU1-P0003","",101,"","","","GROSPATH","Gross Pathological Examination","","BONE, FEMUR: UNREMARKABLE","UNREMARKABLE","","","","BONE, FEMUR","","","","","","","","","","2019-01-14T00:00:00",169],[102,"VECTORSTUDYU1","MA","VECTORSTUDYU1-P0003","",102,"","","","GROSPATH","Gross Pathological Examination","","PEYER'S PATCH: UNREMARKABLE","UNREMARKABLE","","","","PEYER'S PATCH","","","","","","","","","","2019-01-14T00:00:00",169],[103,"VECTORSTUDYU1","MA","VECTORSTUDYU1-P0003","",103,"","","","GROSPATH","Gross Pathological Examination","","GALLBLADDER: UNREMARKABLE","UNREMARKABLE","","","","GALLBLADDER","","","","","","","","","","2019-01-14T00:00:00",169],[104,"VECTORSTUDYU1","MA","VECTORSTUDYU1-P0003","",104,"","","","GROSPATH","Gross Pathological Examination","","HEART: UNREMARKABLE","UNREMARKABLE","","","","HEART","","","","","","","","","","2019-01-14T00:00:00",169],[105,"VECTORSTUDYU1","MA","VECTORSTUDYU1-P0003","",105,"","","","GROSPATH","Gross Pathological Examination","","SMALL INTESTINE, ILEUM: Discolored; mucosa; single, up to 10 mm2; dark red; collected/ileocecal junction","Discolored, dark red","","","","SMALL INTESTINE, ILEUM","MUCOSA","","","","","SINGLE","","","","2019-01-14T00:00:00",169],[106,"VECTORSTUDYU1","MA","VECTORSTUDYU1-P0003","",106,"","","","GROSPATH","Gross Pathological Examination","","SITE, INJECTION: UNREMARKABLE","UNREMARKABLE","","","","SITE, INJECTION","","","","","","","","","","2019-01-14T00:00:00",169],[107,"VECTORSTUDYU1","MA","VECTORSTUDYU1-P0003","",107,"","","","GROSPATH","Gross Pathological Examination","","SMALL INTESTINE, JEJUNUM: UNREMARKABLE","UNREMARKABLE","","","","SMALL INTESTINE, JEJUNUM","","","","","","","","","","2019-01-14T00:00:00",169],[108,"VECTORSTUDYU1","MA","VECTORSTUDYU1-P0003","",108,"","","","GROSPATH","Gross Pathological Examination","","KIDNEY: UNREMARKABLE","UNREMARKABLE","","","","KIDNEY","","","","","","","","","","2019-01-14T00:00:00",169],[109,"VECTORSTUDYU1","MA","VECTORSTUDYU1-P0003","",109,"","","","GROSPATH","Gross Pathological Examination","","LIVER: UNREMARKABLE","UNREMARKABLE","","","","LIVER","","","","","","","","","","2019-01-14T00:00:00",169],[110,"VECTORSTUDYU1","MA","VECTORSTUDYU1-P0003","",110,"","","","GROSPATH","Gross Pathological Examination","","LUNG: UNREMARKABLE","UNREMARKABLE","","","","LUNG","","","","","","","","","","2019-01-14T00:00:00",169],[111,"VECTORSTUDYU1","MA","VECTORSTUDYU1-P0003","",111,"","","","GROSPATH","Gross Pathological Examination","","LYMPH NODE, MANDIBULAR: UNREMARKABLE","UNREMARKABLE","","","","LYMPH NODE, MANDIBULAR","","","","","","","","","","2019-01-14T00:00:00",169],[112,"VECTORSTUDYU1","MA","VECTORSTUDYU1-P0003","",112,"","","","GROSPATH","Gross Pathological Examination","","LYMPH NODE, MESENTERIC: UNREMARKABLE","UNREMARKABLE","","","","LYMPH NODE, MESENTERIC","","","","","","","","","","2019-01-14T00:00:00",169],[113,"VECTORSTUDYU1","MA","VECTORSTUDYU1-P0003","",113,"","","","GROSPATH","Gross Pathological Examination","","GLAND, SALIVARY: UNREMARKABLE","UNREMARKABLE","","","","GLAND, SALIVARY","","","","","","","","","","2019-01-14T00:00:00",169],[114,"VECTORSTUDYU1","MA","VECTORSTUDYU1-P0003","",114,"","","","GROSPATH","Gross Pathological Examination","","BONE MARROW, FEMUR: UNREMARKABLE","UNREMARKABLE","","","","BONE MARROW, FEMUR","","","","","","","","","","2019-01-14T00:00:00",169],[115,"VECTORSTUDYU1","MA","VECTORSTUDYU1-P0003","",115,"","","","GROSPATH","Gross Pathological Examination","","BONE MARROW, STERNUM: UNREMARKABLE","UNREMARKABLE","","","","BONE MARROW, STERNUM","","","","","","","","","","2019-01-14T00:00:00",169],[116,"VECTORSTUDYU1","MA","VECTORSTUDYU1-P0003","",116,"","","","GROSPATH","Gross Pathological Examination","","MUSCLE, BICEPS FEMORIS: UNREMARKABLE","UNREMARKABLE","","","","MUSCLE, BICEPS FEMORIS","","","","","","","","","","2019-01-14T00:00:00",169],[117,"VECTORSTUDYU1","MA","VECTORSTUDYU1-P0003","",117,"","","","GROSPATH","Gross Pathological Examination","","NERVE, OPTIC: UNREMARKABLE","UNREMARKABLE","","","","NERVE, OPTIC","","","","","","","","","","2019-01-14T00:00:00",169],[118,"VECTORSTUDYU1","MA","VECTORSTUDYU1-P0003","",118,"","","","GROSPATH","Gross Pathological Examination","","NERVE, SCIATIC: UNREMARKABLE","UNREMARKABLE","","","","NERVE, SCIATIC","","","","","","","","","","2019-01-14T00:00:00",169],[119,"VECTORSTUDYU1","MA","VECTORSTUDYU1-P0003","",119,"","","","GROSPATH","Gross Pathological Examination","","PANCREAS: UNREMARKABLE","UNREMARKABLE","","","","PANCREAS","","","","","","","","","","2019-01-14T00:00:00",169],[120,"VECTORSTUDYU1","MA","VECTORSTUDYU1-P0003","",120,"","","","GROSPATH","Gross Pathological Examination","","GLAND, PARATHYROID: UNREMARKABLE","UNREMARKABLE","","","","GLAND, PARATHYROID","","","","","","","","","","2019-01-14T00:00:00",169],[121,"VECTORSTUDYU1","MA","VECTORSTUDYU1-P0003","",121,"","","","GROSPATH","Gross Pathological Examination","","GLAND, PITUITARY: UNREMARKABLE","UNREMARKABLE","","","","GLAND, PITUITARY","","","","","","","","","","2019-01-14T00:00:00",169],[122,"VECTORSTUDYU1","MA","VECTORSTUDYU1-P0003","",122,"","","","GROSPATH","Gross Pathological Examination","","GLAND, PROSTATE: UNREMARKABLE","UNREMARKABLE","","","","GLAND, PROSTATE","","","","","","","","","","2019-01-14T00:00:00",169],[123,"VECTORSTUDYU1","MA","VECTORSTUDYU1-P0003","",123,"","","","GROSPATH","Gross Pathological Examination","","LARGE INTESTINE, RECTUM: UNREMARKABLE","UNREMARKABLE","","","","LARGE INTESTINE, RECTUM","","","","","","","","","","2019-01-14T00:00:00",169],[124,"VECTORSTUDYU1","MA","VECTORSTUDYU1-P0003","",124,"","","","GROSPATH","Gross Pathological Examination","","GLAND, SEMINAL VESICLE: UNREMARKABLE","UNREMARKABLE","","","","GLAND, SEMINAL VESICLE","","","","","","","","","","2019-01-14T00:00:00",169],[125,"VECTORSTUDYU1","MA","VECTORSTUDYU1-P0003","",125,"","","","GROSPATH","Gross Pathological Examination","","SKIN/SUBCUTIS: UNREMARKABLE","UNREMARKABLE","","","","SKIN/SUBCUTIS","","","","","","","","","","2019-01-14T00:00:00",169],[126,"VECTORSTUDYU1","MA","VECTORSTUDYU1-P0003","",126,"","","","GROSPATH","Gross Pathological Examination","","SPINAL CORD: UNREMARKABLE","UNREMARKABLE","","","","SPINAL CORD","","","","","","","","","","2019-01-14T00:00:00",169],[127,"VECTORSTUDYU1","MA","VECTORSTUDYU1-P0003","",127,"","","","GROSPATH","Gross Pathological Examination","","SPLEEN: UNREMARKABLE","UNREMARKABLE","","","","SPLEEN","","","","","","","","","","2019-01-14T00:00:00",169],[128,"VECTORSTUDYU1","MA","VECTORSTUDYU1-P0003","",128,"","","","GROSPATH","Gross Pathological Examination","","BONE, STERNUM: UNREMARKABLE","UNREMARKABLE","","","","BONE, STERNUM","","","","","","","","","","2019-01-14T00:00:00",169],[129,"VECTORSTUDYU1","MA","VECTORSTUDYU1-P0003","",129,"","","","GROSPATH","Gross Pathological Examination","","STOMACH: UNREMARKABLE","UNREMARKABLE","","","","STOMACH","","","","","","","","","","2019-01-14T00:00:00",169],[130,"VECTORSTUDYU1","MA","VECTORSTUDYU1-P0003","",130,"","","","GROSPATH","Gross Pathological Examination","","TESTIS: UNREMARKABLE","UNREMARKABLE","","","","TESTIS","","","","","","","","","","2019-01-14T00:00:00",169],[131,"VECTORSTUDYU1","MA","VECTORSTUDYU1-P0003","",131,"","","","GROSPATH","Gross Pathological Examination","","THYMUS: UNREMARKABLE","UNREMARKABLE","","","","THYMUS","","","","","","","","","","2019-01-14T00:00:00",169],[132,"VECTORSTUDYU1","MA","VECTORSTUDYU1-P0003","",132,"","","","GROSPATH","Gross Pathological Examination","","GLAND, THYROID: UNREMARKABLE","UNREMARKABLE","","","","GLAND, THYROID","","","","","","","","","","2019-01-14T00:00:00",169],[133,"VECTORSTUDYU1","MA","VECTORSTUDYU1-P0003","",133,"","","","GROSPATH","Gross Pathological Examination","","TONGUE: UNREMARKABLE","UNREMARKABLE","","","","TONGUE","","","","","","","","","","2019-01-14T00:00:00",169],[134,"VECTORSTUDYU1","MA","VECTORSTUDYU1-P0003","",134,"","","","GROSPATH","Gross Pathological Examination","","TRACHEA: UNREMARKABLE","UNREMARKABLE","","","","TRACHEA","","","","","","","","","","2019-01-14T00:00:00",169],[135,"VECTORSTUDYU1","MA","VECTORSTUDYU1-P0003","",135,"","","","GROSPATH","Gross Pathological Examination","","URINARY BLADDER: UNREMARKABLE","UNREMARKABLE","","","","URINARY BLADDER","","","","","","","","","","2019-01-14T00:00:00",169],[136,"VECTORSTUDYU1","MA","VECTORSTUDYU1-P0401","",136,"","","","GROSPATH","Gross Pathological Examination","","GLAND, ADRENAL: UNREMARKABLE","UNREMARKABLE","","","","GLAND, ADRENAL","","","","","","","","","","2019-01-14T00:00:00",169],[137,"VECTORSTUDYU1","MA","VECTORSTUDYU1-P0401","",137,"","","","GROSPATH","Gross Pathological Examination","","WHOLE ANIMAL: UNREMARKABLE","UNREMARKABLE","","","","WHOLE ANIMAL","","","","","","","","","","2019-01-14T00:00:00",169],[138,"VECTORSTUDYU1","MA","VECTORSTUDYU1-P0401","",138,"","","","GROSPATH","Gross Pathological Examination","","ARTERY, AORTA: UNREMARKABLE","UNREMARKABLE","","","","ARTERY, AORTA","","","","","","","","","","2019-01-14T00:00:00",169],[139,"VECTORSTUDYU1","MA","VECTORSTUDYU1-P0401","",139,"","","","GROSPATH","Gross Pathological Examination","","BRAIN: UNREMARKABLE","UNREMARKABLE","","","","BRAIN","","","","","","","","","","2019-01-14T00:00:00",169],[140,"VECTORSTUDYU1","MA","VECTORSTUDYU1-P0401","",140,"","","","GROSPATH","Gross Pathological Examination","","LARGE INTESTINE, CECUM: Discolored; mucosa; single, up to 10 mm2; red; collected/discoloration located on the ileocecal junction","Discolored, red","","","","LARGE INTESTINE, CECUM","MUCOSA","","","","","SINGLE","","","","2019-01-14T00:00:00",169],[141,"VECTORSTUDYU1","MA","VECTORSTUDYU1-P0401","",141,"","","","GROSPATH","Gross Pathological Examination","","LARGE INTESTINE, COLON: Discolored; mucosa; multiple, up to 10 mm2; red; collected/collected on routine section","Discolored, red","","","","LARGE INTESTINE, COLON","MUCOSA","","","","","MULTIPLE","","","","2019-01-14T00:00:00",169],[142,"VECTORSTUDYU1","MA","VECTORSTUDYU1-P0401","",142,"","","","GROSPATH","Gross Pathological Examination","","SMALL INTESTINE, DUODENUM: UNREMARKABLE","UNREMARKABLE","","","","SMALL INTESTINE, DUODENUM","","","","","","","","","","2019-01-14T00:00:00",169],[143,"VECTORSTUDYU1","MA","VECTORSTUDYU1-P0401","",143,"","","","GROSPATH","Gross Pathological Examination","","EPIDIDYMIS: UNREMARKABLE","UNREMARKABLE","","","","EPIDIDYMIS","","","","","","","","","","2019-01-14T00:00:00",169],[144,"VECTORSTUDYU1","MA","VECTORSTUDYU1-P0401","",144,"","","","GROSPATH","Gross Pathological Examination","","ESOPHAGUS: UNREMARKABLE","UNREMARKABLE","","","","ESOPHAGUS","","","","","","","","","","2019-01-14T00:00:00",169],[145,"VECTORSTUDYU1","MA","VECTORSTUDYU1-P0401","",145,"","","","GROSPATH","Gross Pathological Examination","","EYE: UNREMARKABLE","UNREMARKABLE","","","","EYE","","","","","","","","","","2019-01-14T00:00:00",169],[146,"VECTORSTUDYU1","MA","VECTORSTUDYU1-P0401","",146,"","","","GROSPATH","Gross Pathological Examination","","BONE, FEMUR: UNREMARKABLE","UNREMARKABLE","","","","BONE, FEMUR","","","","","","","","","","2019-01-14T00:00:00",169],[147,"VECTORSTUDYU1","MA","VECTORSTUDYU1-P0401","",147,"","","","GROSPATH","Gross Pathological Examination","","PEYER'S PATCH: UNREMARKABLE","UNREMARKABLE","","","","PEYER'S PATCH","","","","","","","","","","2019-01-14T00:00:00",169],[148,"VECTORSTUDYU1","MA","VECTORSTUDYU1-P0401","",148,"","","","GROSPATH","Gross Pathological Examination","","GALLBLADDER: UNREMARKABLE","UNREMARKABLE","","","","GALLBLADDER","","","","","","","","","","2019-01-14T00:00:00",169],[149,"VECTORSTUDYU1","MA","VECTORSTUDYU1-P0401","",149,"","","","GROSPATH","Gross Pathological Examination","","HEART: UNREMARKABLE","UNREMARKABLE","","","","HEART","","","","","","","","","","2019-01-14T00:00:00",169],[150,"VECTORSTUDYU1","MA","VECTORSTUDYU1-P0401","",150,"","","","GROSPATH","Gross Pathological Examination","","SMALL INTESTINE, ILEUM: Discolored; mucosa; single, up to 10 mm2; red; collected/collected on routine section","Discolored, red","","","","SMALL INTESTINE, ILEUM","MUCOSA","","","","","SINGLE","","","","2019-01-14T00:00:00",169],[151,"VECTORSTUDYU1","MA","VECTORSTUDYU1-P0401","",151,"","","","GROSPATH","Gross Pathological Examination","","SITE, INJECTION: UNREMARKABLE","UNREMARKABLE","","","","SITE, INJECTION","","","","","","","","","","2019-01-14T00:00:00",169],[152,"VECTORSTUDYU1","MA","VECTORSTUDYU1-P0401","",152,"","","","GROSPATH","Gross Pathological Examination","","SMALL INTESTINE, JEJUNUM: UNREMARKABLE","UNREMARKABLE","","","","SMALL INTESTINE, JEJUNUM","","","","","","","","","","2019-01-14T00:00:00",169],[153,"VECTORSTUDYU1","MA","VECTORSTUDYU1-P0401","",153,"","","","GROSPATH","Gross Pathological Examination","","KIDNEY: UNREMARKABLE","UNREMARKABLE","","","","KIDNEY","","","","","","","","","","2019-01-14T00:00:00",169],[154,"VECTORSTUDYU1","MA","VECTORSTUDYU1-P0401","",154,"","","","GROSPATH","Gross Pathological Examination","","LIVER: UNREMARKABLE","UNREMARKABLE","","","","LIVER","","","","","","","","","","2019-01-14T00:00:00",169],[155,"VECTORSTUDYU1","MA","VECTORSTUDYU1-P0401","",155,"","","","GROSPATH","Gross Pathological Examination","","LUNG: UNREMARKABLE","UNREMARKABLE","","","","LUNG","","","","","","","","","","2019-01-14T00:00:00",169],[156,"VECTORSTUDYU1","MA","VECTORSTUDYU1-P0401","",156,"","","","GROSPATH","Gross Pathological Examination","","LYMPH NODE, MANDIBULAR: UNREMARKABLE","UNREMARKABLE","","","","LYMPH NODE, MANDIBULAR","","","","","","","","","","2019-01-14T00:00:00",169],[157,"VECTORSTUDYU1","MA","VECTORSTUDYU1-P0401","",157,"","","","GROSPATH","Gross Pathological Examination","","LYMPH NODE, MESENTERIC: UNREMARKABLE","UNREMARKABLE","","","","LYMPH NODE, MESENTERIC","","","","","","","","","","2019-01-14T00:00:00",169],[158,"VECTORSTUDYU1","MA","VECTORSTUDYU1-P0401","",158,"","","","GROSPATH","Gross Pathological Examination","","GLAND, SALIVARY: UNREMARKABLE","UNREMARKABLE","","","","GLAND, SALIVARY","","","","","","","","","","2019-01-14T00:00:00",169],[159,"VECTORSTUDYU1","MA","VECTORSTUDYU1-P0401","",159,"","","","GROSPATH","Gross Pathological Examination","","BONE MARROW, FEMUR: UNREMARKABLE","UNREMARKABLE","","","","BONE MARROW, FEMUR","","","","","","","","","","2019-01-14T00:00:00",169],[160,"VECTORSTUDYU1","MA","VECTORSTUDYU1-P0401","",160,"","","","GROSPATH","Gross Pathological Examination","","BONE MARROW, STERNUM: UNREMARKABLE","UNREMARKABLE","","","","BONE MARROW, STERNUM","","","","","","","","","","2019-01-14T00:00:00",169],[161,"VECTORSTUDYU1","MA","VECTORSTUDYU1-P0401","",161,"","","","GROSPATH","Gross Pathological Examination","","MUSCLE, BICEPS FEMORIS: UNREMARKABLE","UNREMARKABLE","","","","MUSCLE, BICEPS FEMORIS","","","","","","","","","","2019-01-14T00:00:00",169],[162,"VECTORSTUDYU1","MA","VECTORSTUDYU1-P0401","",162,"","","","GROSPATH","Gross Pathological Examination","","NERVE, OPTIC: UNREMARKABLE","UNREMARKABLE","","","","NERVE, OPTIC","","","","","","","","","","2019-01-14T00:00:00",169],[163,"VECTORSTUDYU1","MA","VECTORSTUDYU1-P0401","",163,"","","","GROSPATH","Gross Pathological Examination","","NERVE, SCIATIC: UNREMARKABLE","UNREMARKABLE","","","","NERVE, SCIATIC","","","","","","","","","","2019-01-14T00:00:00",169],[164,"VECTORSTUDYU1","MA","VECTORSTUDYU1-P0401","",164,"","","","GROSPATH","Gross Pathological Examination","","PANCREAS: UNREMARKABLE","UNREMARKABLE","","","","PANCREAS","","","","","","","","","","2019-01-14T00:00:00",169],[165,"VECTORSTUDYU1","MA","VECTORSTUDYU1-P0401","",165,"","","","GROSPATH","Gross Pathological Examination","","GLAND, PARATHYROID: UNREMARKABLE","UNREMARKABLE","","","","GLAND, PARATHYROID","","","","","","","","","","2019-01-14T00:00:00",169],[166,"VECTORSTUDYU1","MA","VECTORSTUDYU1-P0401","",166,"","","","GROSPATH","Gross Pathological Examination","","GLAND, PITUITARY: UNREMARKABLE","UNREMARKABLE","","","","GLAND, PITUITARY","","","","","","","","","","2019-01-14T00:00:00",169],[167,"VECTORSTUDYU1","MA","VECTORSTUDYU1-P0401","",167,"","","","GROSPATH","Gross Pathological Examination","","GLAND, PROSTATE: UNREMARKABLE","UNREMARKABLE","","","","GLAND, PROSTATE","","","","","","","","","","2019-01-14T00:00:00",169],[168,"VECTORSTUDYU1","MA","VECTORSTUDYU1-P0401","",168,"","","","GROSPATH","Gross Pathological Examination","","LARGE INTESTINE, RECTUM: UNREMARKABLE","UNREMARKABLE","","","","LARGE INTESTINE, RECTUM","","","","","","","","","","2019-01-14T00:00:00",169],[169,"VECTORSTUDYU1","MA","VECTORSTUDYU1-P0401","",169,"","","","GROSPATH","Gross Pathological Examination","","GLAND, SEMINAL VESICLE: UNREMARKABLE","UNREMARKABLE","","","","GLAND, SEMINAL VESICLE","","","","","","","","","","2019-01-14T00:00:00",169],[170,"VECTORSTUDYU1","MA","VECTORSTUDYU1-P0401","",170,"","","","GROSPATH","Gross Pathological Examination","","SKIN/SUBCUTIS: Scab; tail, distal end; single, linear, up to 10 mm in length; red; collected","Scab, red; tail","","","","SKIN/SUBCUTIS","","","","","","SINGLE","","","","2019-01-14T00:00:00",169],[171,"VECTORSTUDYU1","MA","VECTORSTUDYU1-P0401","",171,"","","","GROSPATH","Gross Pathological Examination","","SPINAL CORD: UNREMARKABLE","UNREMARKABLE","","","","SPINAL CORD","","","","","","","","","","2019-01-14T00:00:00",169],[172,"VECTORSTUDYU1","MA","VECTORSTUDYU1-P0401","",172,"","","","GROSPATH","Gross Pathological Examination","","SPLEEN: UNREMARKABLE","UNREMARKABLE","","","","SPLEEN","","","","","","","","","","2019-01-14T00:00:00",169],[173,"VECTORSTUDYU1","MA","VECTORSTUDYU1-P0401","",173,"","","","GROSPATH","Gross Pathological Examination","","BONE, STERNUM: UNREMARKABLE","UNREMARKABLE","","","","BONE, STERNUM","","","","","","","","","","2019-01-14T00:00:00",169],[174,"VECTORSTUDYU1","MA","VECTORSTUDYU1-P0401","",174,"","","","GROSPATH","Gross Pathological Examination","","STOMACH: UNREMARKABLE","UNREMARKABLE","","","","STOMACH","","","","","","","","","","2019-01-14T00:00:00",169],[175,"VECTORSTUDYU1","MA","VECTORSTUDYU1-P0401","",175,"","","","GROSPATH","Gross Pathological Examination","","TESTIS: UNREMARKABLE","UNREMARKABLE","","","","TESTIS","","","","","","","","","","2019-01-14T00:00:00",169],[176,"VECTORSTUDYU1","MA","VECTORSTUDYU1-P0401","",176,"","","","GROSPATH","Gross Pathological Examination","","THYMUS: UNREMARKABLE","UNREMARKABLE","","","","THYMUS","","","","","","","","","","2019-01-14T00:00:00",169],[177,"VECTORSTUDYU1","MA","VECTORSTUDYU1-P0401","",177,"","","","GROSPATH","Gross Pathological Examination","","GLAND, THYROID: UNREMARKABLE","UNREMARKABLE","","","","GLAND, THYROID","","","","","","","","","","2019-01-14T00:00:00",169],[178,"VECTORSTUDYU1","MA","VECTORSTUDYU1-P0401","",178,"","","","GROSPATH","Gross Pathological Examination","","TONGUE: UNREMARKABLE","UNREMARKABLE","","","","TONGUE","","","","","","","","","","2019-01-14T00:00:00",169],[179,"VECTORSTUDYU1","MA","VECTORSTUDYU1-P0401","",179,"","","","GROSPATH","Gross Pathological Examination","","TRACHEA: UNREMARKABLE","UNREMARKABLE","","","","TRACHEA","","","","","","","","","","2019-01-14T00:00:00",169],[180,"VECTORSTUDYU1","MA","VECTORSTUDYU1-P0401","",180,"","","","GROSPATH","Gross Pathological Examination","","URINARY BLADDER: UNREMARKABLE","UNREMARKABLE","","","","URINARY BLADDER","","","","","","","","","","2019-01-14T00:00:00",169],[181,"VECTORSTUDYU1","MA","VECTORSTUDYU1-P0402","",181,"","","","GROSPATH","Gross Pathological Examination","","GLAND, ADRENAL: UNREMARKABLE","UNREMARKABLE","","","","GLAND, ADRENAL","","","","","","","","","","2019-01-14T00:00:00",169],[182,"VECTORSTUDYU1","MA","VECTORSTUDYU1-P0402","",182,"","","","GROSPATH","Gross Pathological Examination","","WHOLE ANIMAL: UNREMARKABLE","UNREMARKABLE","","","","WHOLE ANIMAL","","","","","","","","","","2019-01-14T00:00:00",169],[183,"VECTORSTUDYU1","MA","VECTORSTUDYU1-P0402","",183,"","","","GROSPATH","Gross Pathological Examination","","ARTERY, AORTA: UNREMARKABLE","UNREMARKABLE","","","","ARTERY, AORTA","","","","","","","","","","2019-01-14T00:00:00",169],[184,"VECTORSTUDYU1","MA","VECTORSTUDYU1-P0402","",184,"","","","GROSPATH","Gross Pathological Examination","","BRAIN: UNREMARKABLE","UNREMARKABLE","","","","BRAIN","","","","","","","","","","2019-01-14T00:00:00",169],[185,"VECTORSTUDYU1","MA","VECTORSTUDYU1-P0402","",185,"","","","GROSPATH","Gross Pathological Examination","","LARGE INTESTINE, CECUM: UNREMARKABLE","UNREMARKABLE","","","","LARGE INTESTINE, CECUM","","","","","","","","","","2019-01-14T00:00:00",169],[186,"VECTORSTUDYU1","MA","VECTORSTUDYU1-P0402","",186,"","","","GROSPATH","Gross Pathological Examination","","LARGE INTESTINE, COLON: UNREMARKABLE","UNREMARKABLE","","","","LARGE INTESTINE, COLON","","","","","","","","","","2019-01-14T00:00:00",169],[187,"VECTORSTUDYU1","MA","VECTORSTUDYU1-P0402","",187,"","","","GROSPATH","Gross Pathological Examination","","SMALL INTESTINE, DUODENUM: UNREMARKABLE","UNREMARKABLE","","","","SMALL INTESTINE, DUODENUM","","","","","","","","","","2019-01-14T00:00:00",169],[188,"VECTORSTUDYU1","MA","VECTORSTUDYU1-P0402","",188,"","","","GROSPATH","Gross Pathological Examination","","EPIDIDYMIS: UNREMARKABLE","UNREMARKABLE","","","","EPIDIDYMIS","","","","","","","","","","2019-01-14T00:00:00",169],[189,"VECTORSTUDYU1","MA","VECTORSTUDYU1-P0402","",189,"","","","GROSPATH","Gross Pathological Examination","","ESOPHAGUS: UNREMARKABLE","UNREMARKABLE","","","","ESOPHAGUS","","","","","","","","","","2019-01-14T00:00:00",169],[190,"VECTORSTUDYU1","MA","VECTORSTUDYU1-P0402","",190,"","","","GROSPATH","Gross Pathological Examination","","EYE: UNREMARKABLE","UNREMARKABLE","","","","EYE","","","","","","","","","","2019-01-14T00:00:00",169],[191,"VECTORSTUDYU1","MA","VECTORSTUDYU1-P0402","",191,"","","","GROSPATH","Gross Pathological Examination","","BONE, FEMUR: UNREMARKABLE","UNREMARKABLE","","","","BONE, FEMUR","","","","","","","","","","2019-01-14T00:00:00",169],[192,"VECTORSTUDYU1","MA","VECTORSTUDYU1-P0402","",192,"","","","GROSPATH","Gross Pathological Examination","","PEYER'S PATCH: UNREMARKABLE","UNREMARKABLE","","","","PEYER'S PATCH","","","","","","","","","","2019-01-14T00:00:00",169],[193,"VECTORSTUDYU1","MA","VECTORSTUDYU1-P0402","",193,"","","","GROSPATH","Gross Pathological Examination","","GALLBLADDER: UNREMARKABLE","UNREMARKABLE","","","","GALLBLADDER","","","","","","","","","","2019-01-14T00:00:00",169],[194,"VECTORSTUDYU1","MA","VECTORSTUDYU1-P0402","",194,"","","","GROSPATH","Gross Pathological Examination","","HEART: UNREMARKABLE","UNREMARKABLE","","","","HEART","","","","","","","","","","2019-01-14T00:00:00",169],[195,"VECTORSTUDYU1","MA","VECTORSTUDYU1-P0402","",195,"","","","GROSPATH","Gross Pathological Examination","","SMALL INTESTINE, ILEUM: UNREMARKABLE","UNREMARKABLE","","","","SMALL INTESTINE, ILEUM","","","","","","","","","","2019-01-14T00:00:00",169],[196,"VECTORSTUDYU1","MA","VECTORSTUDYU1-P0402","",196,"","","","GROSPATH","Gross Pathological Examination","","SITE, INJECTION: UNREMARKABLE","UNREMARKABLE","","","","SITE, INJECTION","","","","","","","","","","2019-01-14T00:00:00",169],[197,"VECTORSTUDYU1","MA","VECTORSTUDYU1-P0402","",197,"","","","GROSPATH","Gross Pathological Examination","","SMALL INTESTINE, JEJUNUM: UNREMARKABLE","UNREMARKABLE","","","","SMALL INTESTINE, JEJUNUM","","","","","","","","","","2019-01-14T00:00:00",169],[198,"VECTORSTUDYU1","MA","VECTORSTUDYU1-P0402","",198,"","","","GROSPATH","Gross Pathological Examination","","KIDNEY: UNREMARKABLE","UNREMARKABLE","","","","KIDNEY","","","","","","","","","","2019-01-14T00:00:00",169],[199,"VECTORSTUDYU1","MA","VECTORSTUDYU1-P0402","",199,"","","","GROSPATH","Gross Pathological Examination","","LIVER: UNREMARKABLE","UNREMARKABLE","","","","LIVER","","","","","","","","","","2019-01-14T00:00:00",169],[200,"VECTORSTUDYU1","MA","VECTORSTUDYU1-P0402","",200,"","","","GROSPATH","Gross Pathological Examination","","LUNG: UNREMARKABLE","UNREMARKABLE","","","","LUNG","","","","","","","","","","2019-01-14T00:00:00",169],[201,"VECTORSTUDYU1","MA","VECTORSTUDYU1-P0402","",201,"","","","GROSPATH","Gross Pathological Examination","","LYMPH NODE, MANDIBULAR: UNREMARKABLE","UNREMARKABLE","","","","LYMPH NODE, MANDIBULAR","","","","","","","","","","2019-01-14T00:00:00",169],[202,"VECTORSTUDYU1","MA","VECTORSTUDYU1-P0402","",202,"","","","GROSPATH","Gross Pathological Examination","","LYMPH NODE, MESENTERIC: UNREMARKABLE","UNREMARKABLE","","","","LYMPH NODE, MESENTERIC","","","","","","","","","","2019-01-14T00:00:00",169],[203,"VECTORSTUDYU1","MA","VECTORSTUDYU1-P0402","",203,"","","","GROSPATH","Gross Pathological Examination","","GLAND, SALIVARY: UNREMARKABLE","UNREMARKABLE","","","","GLAND, SALIVARY","","","","","","","","","","2019-01-14T00:00:00",169],[204,"VECTORSTUDYU1","MA","VECTORSTUDYU1-P0402","",204,"","","","GROSPATH","Gross Pathological Examination","","BONE MARROW, FEMUR: UNREMARKABLE","UNREMARKABLE","","","","BONE MARROW, FEMUR","","","","","","","","","","2019-01-14T00:00:00",169],[205,"VECTORSTUDYU1","MA","VECTORSTUDYU1-P0402","",205,"","","","GROSPATH","Gross Pathological Examination","","BONE MARROW, STERNUM: UNREMARKABLE","UNREMARKABLE","","","","BONE MARROW, STERNUM","","","","","","","","","","2019-01-14T00:00:00",169],[206,"VECTORSTUDYU1","MA","VECTORSTUDYU1-P0402","",206,"","","","GROSPATH","Gross Pathological Examination","","MUSCLE, BICEPS FEMORIS: UNREMARKABLE","UNREMARKABLE","","","","MUSCLE, BICEPS FEMORIS","","","","","","","","","","2019-01-14T00:00:00",169],[207,"VECTORSTUDYU1","MA","VECTORSTUDYU1-P0402","",207,"","","","GROSPATH","Gross Pathological Examination","","NERVE, OPTIC: UNREMARKABLE","UNREMARKABLE","","","","NERVE, OPTIC","","","","","","","","","","2019-01-14T00:00:00",169],[208,"VECTORSTUDYU1","MA","VECTORSTUDYU1-P0402","",208,"","","","GROSPATH","Gross Pathological Examination","","NERVE, SCIATIC: UNREMARKABLE","UNREMARKABLE","","","","NERVE, SCIATIC","","","","","","","","","","2019-01-14T00:00:00",169],[209,"VECTORSTUDYU1","MA","VECTORSTUDYU1-P0402","",209,"","","","GROSPATH","Gross Pathological Examination","","PANCREAS: UNREMARKABLE","UNREMARKABLE","","","","PANCREAS","","","","","","","","","","2019-01-14T00:00:00",169],[210,"VECTORSTUDYU1","MA","VECTORSTUDYU1-P0402","",210,"","","","GROSPATH","Gross Pathological Examination","","GLAND, PARATHYROID: UNREMARKABLE","UNREMARKABLE","","","","GLAND, PARATHYROID","","","","","","","","","","2019-01-14T00:00:00",169],[211,"VECTORSTUDYU1","MA","VECTORSTUDYU1-P0402","",211,"","","","GROSPATH","Gross Pathological Examination","","GLAND, PITUITARY: UNREMARKABLE","UNREMARKABLE","","","","GLAND, PITUITARY","","","","","","","","","","2019-01-14T00:00:00",169],[212,"VECTORSTUDYU1","MA","VECTORSTUDYU1-P0402","",212,"","","","GROSPATH","Gross Pathological Examination","","GLAND, PROSTATE: UNREMARKABLE","UNREMARKABLE","","","","GLAND, PROSTATE","","","","","","","","","","2019-01-14T00:00:00",169],[213,"VECTORSTUDYU1","MA","VECTORSTUDYU1-P0402","",213,"","","","GROSPATH","Gross Pathological Examination","","LARGE INTESTINE, RECTUM: UNREMARKABLE","UNREMARKABLE","","","","LARGE INTESTINE, RECTUM","","","","","","","","","","2019-01-14T00:00:00",169],[214,"VECTORSTUDYU1","MA","VECTORSTUDYU1-P0402","",214,"","","","GROSPATH","Gross Pathological Examination","","GLAND, SEMINAL VESICLE: UNREMARKABLE","UNREMARKABLE","","","","GLAND, SEMINAL VESICLE","","","","","","","","","","2019-01-14T00:00:00",169],[215,"VECTORSTUDYU1","MA","VECTORSTUDYU1-P0402","",215,"","","","GROSPATH","Gross Pathological Examination","","SKIN/SUBCUTIS: UNREMARKABLE","UNREMARKABLE","","","","SKIN/SUBCUTIS","","","","","","","","","","2019-01-14T00:00:00",169],[216,"VECTORSTUDYU1","MA","VECTORSTUDYU1-P0402","",216,"","","","GROSPATH","Gross Pathological Examination","","SPINAL CORD: UNREMARKABLE","UNREMARKABLE","","","","SPINAL CORD","","","","","","","","","","2019-01-14T00:00:00",169],[217,"VECTORSTUDYU1","MA","VECTORSTUDYU1-P0402","",217,"","","","GROSPATH","Gross Pathological Examination","","SPLEEN: UNREMARKABLE","UNREMARKABLE","","","","SPLEEN","","","","","","","","","","2019-01-14T00:00:00",169],[218,"VECTORSTUDYU1","MA","VECTORSTUDYU1-P0402","",218,"","","","GROSPATH","Gross Pathological Examination","","BONE, STERNUM: UNREMARKABLE","UNREMARKABLE","","","","BONE, STERNUM","","","","","","","","","","2019-01-14T00:00:00",169],[219,"VECTORSTUDYU1","MA","VECTORSTUDYU1-P0402","",219,"","","","GROSPATH","Gross Pathological Examination","","STOMACH: UNREMARKABLE","UNREMARKABLE","","","","STOMACH","","","","","","","","","","2019-01-14T00:00:00",169],[220,"VECTORSTUDYU1","MA","VECTORSTUDYU1-P0402","",220,"","","","GROSPATH","Gross Pathological Examination","","TESTIS: UNREMARKABLE","UNREMARKABLE","","","","TESTIS","","","","","","","","","","2019-01-14T00:00:00",169],[221,"VECTORSTUDYU1","MA","VECTORSTUDYU1-P0402","",221,"","","","GROSPATH","Gross Pathological Examination","","THYMUS: UNREMARKABLE","UNREMARKABLE","","","","THYMUS","","","","","","","","","","2019-01-14T00:00:00",169],[222,"VECTORSTUDYU1","MA","VECTORSTUDYU1-P0402","",222,"","","","GROSPATH","Gross Pathological Examination","","GLAND, THYROID: UNREMARKABLE","UNREMARKABLE","","","","GLAND, THYROID","","","","","","","","","","2019-01-14T00:00:00",169],[223,"VECTORSTUDYU1","MA","VECTORSTUDYU1-P0402","",223,"","","","GROSPATH","Gross Pathological Examination","","TONGUE: UNREMARKABLE","UNREMARKABLE","","","","TONGUE","","","","","","","","","","2019-01-14T00:00:00",169],[224,"VECTORSTUDYU1","MA","VECTORSTUDYU1-P0402","",224,"","","","GROSPATH","Gross Pathological Examination","","TRACHEA: UNREMARKABLE","UNREMARKABLE","","","","TRACHEA","","","","","","","","","","2019-01-14T00:00:00",169],[225,"VECTORSTUDYU1","MA","VECTORSTUDYU1-P0402","",225,"","","","GROSPATH","Gross Pathological Examination","","URINARY BLADDER: UNREMARKABLE","UNREMARKABLE","","","","URINARY BLADDER","","","","","","","","","","2019-01-14T00:00:00",169],[226,"VECTORSTUDYU1","MA","VECTORSTUDYU1-P0403","",226,"","","","GROSPATH","Gross Pathological Examination","","GLAND, ADRENAL: UNREMARKABLE","UNREMARKABLE","","","","GLAND, ADRENAL","","","","","","","","","","2019-01-14T00:00:00",169],[227,"VECTORSTUDYU1","MA","VECTORSTUDYU1-P0403","",227,"","","","GROSPATH","Gross Pathological Examination","","WHOLE ANIMAL: UNREMARKABLE","UNREMARKABLE","","","","WHOLE ANIMAL","","","","","","","","","","2019-01-14T00:00:00",169],[228,"VECTORSTUDYU1","MA","VECTORSTUDYU1-P0403","",228,"","","","GROSPATH","Gross Pathological Examination","","ARTERY, AORTA: UNREMARKABLE","UNREMARKABLE","","","","ARTERY, AORTA","","","","","","","","","","2019-01-14T00:00:00",169],[229,"VECTORSTUDYU1","MA","VECTORSTUDYU1-P0403","",229,"","","","GROSPATH","Gross Pathological Examination","","BRAIN: UNREMARKABLE","UNREMARKABLE","","","","BRAIN","","","","","","","","","","2019-01-14T00:00:00",169],[230,"VECTORSTUDYU1","MA","VECTORSTUDYU1-P0403","",230,"","","","GROSPATH","Gross Pathological Examination","","LARGE INTESTINE, CECUM: UNREMARKABLE","UNREMARKABLE","","","","LARGE INTESTINE, CECUM","","","","","","","","","","2019-01-14T00:00:00",169],[231,"VECTORSTUDYU1","MA","VECTORSTUDYU1-P0403","",231,"","","","GROSPATH","Gross Pathological Examination","","LARGE INTESTINE, COLON: Discolored; mucosa; entire; red; collected","Discolored, red","","","","LARGE INTESTINE, COLON","MUCOSA","","","","","ENTIRE","","","","2019-01-14T00:00:00",169],[232,"VECTORSTUDYU1","MA","VECTORSTUDYU1-P0403","",232,"","","","GROSPATH","Gross Pathological Examination","","SMALL INTESTINE, DUODENUM: UNREMARKABLE","UNREMARKABLE","","","","SMALL INTESTINE, DUODENUM","","","","","","","","","","2019-01-14T00:00:00",169],[233,"VECTORSTUDYU1","MA","VECTORSTUDYU1-P0403","",233,"","","","GROSPATH","Gross Pathological Examination","","EPIDIDYMIS: UNREMARKABLE","UNREMARKABLE","","","","EPIDIDYMIS","","","","","","","","","","2019-01-14T00:00:00",169],[234,"VECTORSTUDYU1","MA","VECTORSTUDYU1-P0403","",234,"","","","GROSPATH","Gross Pathological Examination","","ESOPHAGUS: UNREMARKABLE","UNREMARKABLE","","","","ESOPHAGUS","","","","","","","","","","2019-01-14T00:00:00",169],[235,"VECTORSTUDYU1","MA","VECTORSTUDYU1-P0403","",235,"","","","GROSPATH","Gross Pathological Examination","","EYE: UNREMARKABLE","UNREMARKABLE","","","","EYE","","","","","","","","","","2019-01-14T00:00:00",169],[236,"VECTORSTUDYU1","MA","VECTORSTUDYU1-P0403","",236,"","","","GROSPATH","Gross Pathological Examination","","BONE, FEMUR: UNREMARKABLE","UNREMARKABLE","","","","BONE, FEMUR","","","","","","","","","","2019-01-14T00:00:00",169],[237,"VECTORSTUDYU1","MA","VECTORSTUDYU1-P0403","",237,"","","","GROSPATH","Gross Pathological Examination","","PEYER'S PATCH: UNREMARKABLE","UNREMARKABLE","","","","PEYER'S PATCH","","","","","","","","","","2019-01-14T00:00:00",169],[238,"VECTORSTUDYU1","MA","VECTORSTUDYU1-P0403","",238,"","","","GROSPATH","Gross Pathological Examination","","GALLBLADDER: UNREMARKABLE","UNREMARKABLE","","","","GALLBLADDER","","","","","","","","","","2019-01-14T00:00:00",169],[239,"VECTORSTUDYU1","MA","VECTORSTUDYU1-P0403","",239,"","","","GROSPATH","Gross Pathological Examination","","HEART: UNREMARKABLE","UNREMARKABLE","","","","HEART","","","","","","","","","","2019-01-14T00:00:00",169],[240,"VECTORSTUDYU1","MA","VECTORSTUDYU1-P0403","",240,"","","","GROSPATH","Gross Pathological Examination","","SMALL INTESTINE, ILEUM: UNREMARKABLE","UNREMARKABLE","","","","SMALL INTESTINE, ILEUM","","","","","","","","","","2019-01-14T00:00:00",169],[241,"VECTORSTUDYU1","MA","VECTORSTUDYU1-P0403","",241,"","","","GROSPATH","Gross Pathological Examination","","SITE, INJECTION: UNREMARKABLE","UNREMARKABLE","","","","SITE, INJECTION","","","","","","","","","","2019-01-14T00:00:00",169],[242,"VECTORSTUDYU1","MA","VECTORSTUDYU1-P0403","",242,"","","","GROSPATH","Gross Pathological Examination","","SMALL INTESTINE, JEJUNUM: UNREMARKABLE","UNREMARKABLE","","","","SMALL INTESTINE, JEJUNUM","","","","","","","","","","2019-01-14T00:00:00",169],[243,"VECTORSTUDYU1","MA","VECTORSTUDYU1-P0403","",243,"","","","GROSPATH","Gross Pathological Examination","","KIDNEY: UNREMARKABLE","UNREMARKABLE","","","","KIDNEY","","","","","","","","","","2019-01-14T00:00:00",169],[244,"VECTORSTUDYU1","MA","VECTORSTUDYU1-P0403","",244,"","","","GROSPATH","Gross Pathological Examination","","LIVER: UNREMARKABLE","UNREMARKABLE","","","","LIVER","","","","","","","","","","2019-01-14T00:00:00",169],[245,"VECTORSTUDYU1","MA","VECTORSTUDYU1-P0403","",245,"","","","GROSPATH","Gross Pathological Examination","","LUNG: UNREMARKABLE","UNREMARKABLE","","","","LUNG","","","","","","","","","","2019-01-14T00:00:00",169],[246,"VECTORSTUDYU1","MA","VECTORSTUDYU1-P0403","",246,"","","","GROSPATH","Gross Pathological Examination","","LYMPH NODE, MANDIBULAR: UNREMARKABLE","UNREMARKABLE","","","","LYMPH NODE, MANDIBULAR","","","","","","","","","","2019-01-14T00:00:00",169],[247,"VECTORSTUDYU1","MA","VECTORSTUDYU1-P0403","",247,"","","","GROSPATH","Gross Pathological Examination","","LYMPH NODE, MESENTERIC: UNREMARKABLE","UNREMARKABLE","","","","LYMPH NODE, MESENTERIC","","","","","","","","","","2019-01-14T00:00:00",169],[248,"VECTORSTUDYU1","MA","VECTORSTUDYU1-P0403","",248,"","","","GROSPATH","Gross Pathological Examination","","GLAND, SALIVARY: UNREMARKABLE","UNREMARKABLE","","","","GLAND, SALIVARY","","","","","","","","","","2019-01-14T00:00:00",169],[249,"VECTORSTUDYU1","MA","VECTORSTUDYU1-P0403","",249,"","","","GROSPATH","Gross Pathological Examination","","BONE MARROW, FEMUR: UNREMARKABLE","UNREMARKABLE","","","","BONE MARROW, FEMUR","","","","","","","","","","2019-01-14T00:00:00",169],[250,"VECTORSTUDYU1","MA","VECTORSTUDYU1-P0403","",250,"","","","GROSPATH","Gross Pathological Examination","","BONE MARROW, STERNUM: UNREMARKABLE","UNREMARKABLE","","","","BONE MARROW, STERNUM","","","","","","","","","","2019-01-14T00:00:00",169],[251,"VECTORSTUDYU1","MA","VECTORSTUDYU1-P0403","",251,"","","","GROSPATH","Gross Pathological Examination","","MUSCLE, BICEPS FEMORIS: UNREMARKABLE","UNREMARKABLE","","","","MUSCLE, BICEPS FEMORIS","","","","","","","","","","2019-01-14T00:00:00",169],[252,"VECTORSTUDYU1","MA","VECTORSTUDYU1-P0403","",252,"","","","GROSPATH","Gross Pathological Examination","","NERVE, OPTIC: UNREMARKABLE","UNREMARKABLE","","","","NERVE, OPTIC","","","","","","","","","","2019-01-14T00:00:00",169],[253,"VECTORSTUDYU1","MA","VECTORSTUDYU1-P0403","",253,"","","","GROSPATH","Gross Pathological Examination","","NERVE, SCIATIC: UNREMARKABLE","UNREMARKABLE","","","","NERVE, SCIATIC","","","","","","","","","","2019-01-14T00:00:00",169],[254,"VECTORSTUDYU1","MA","VECTORSTUDYU1-P0403","",254,"","","","GROSPATH","Gross Pathological Examination","","PANCREAS: UNREMARKABLE","UNREMARKABLE","","","","PANCREAS","","","","","","","","","","2019-01-14T00:00:00",169],[255,"VECTORSTUDYU1","MA","VECTORSTUDYU1-P0403","",255,"","","","GROSPATH","Gross Pathological Examination","","GLAND, PARATHYROID: UNREMARKABLE","UNREMARKABLE","","","","GLAND, PARATHYROID","","","","","","","","","","2019-01-14T00:00:00",169],[256,"VECTORSTUDYU1","MA","VECTORSTUDYU1-P0403","",256,"","","","GROSPATH","Gross Pathological Examination","","GLAND, PITUITARY: UNREMARKABLE","UNREMARKABLE","","","","GLAND, PITUITARY","","","","","","","","","","2019-01-14T00:00:00",169],[257,"VECTORSTUDYU1","MA","VECTORSTUDYU1-P0403","",257,"","","","GROSPATH","Gross Pathological Examination","","GLAND, PROSTATE: UNREMARKABLE","UNREMARKABLE","","","","GLAND, PROSTATE","","","","","","","","","","2019-01-14T00:00:00",169],[258,"VECTORSTUDYU1","MA","VECTORSTUDYU1-P0403","",258,"","","","GROSPATH","Gross Pathological Examination","","LARGE INTESTINE, RECTUM: UNREMARKABLE","UNREMARKABLE","","","","LARGE INTESTINE, RECTUM","","","","","","","","","","2019-01-14T00:00:00",169],[259,"VECTORSTUDYU1","MA","VECTORSTUDYU1-P0403","",259,"","","","GROSPATH","Gross Pathological Examination","","GLAND, SEMINAL VESICLE: UNREMARKABLE","UNREMARKABLE","","","","GLAND, SEMINAL VESICLE","","","","","","","","","","2019-01-14T00:00:00",169],[260,"VECTORSTUDYU1","MA","VECTORSTUDYU1-P0403","",260,"","","","GROSPATH","Gross Pathological Examination","","SKIN/SUBCUTIS: UNREMARKABLE","UNREMARKABLE","","","","SKIN/SUBCUTIS","","","","","","","","","","2019-01-14T00:00:00",169],[261,"VECTORSTUDYU1","MA","VECTORSTUDYU1-P0403","",261,"","","","GROSPATH","Gross Pathological Examination","","SPINAL CORD: UNREMARKABLE","UNREMARKABLE","","","","SPINAL CORD","","","","","","","","","","2019-01-14T00:00:00",169],[262,"VECTORSTUDYU1","MA","VECTORSTUDYU1-P0403","",262,"","","","GROSPATH","Gross Pathological Examination","","SPLEEN: UNREMARKABLE","UNREMARKABLE","","","","SPLEEN","","","","","","","","","","2019-01-14T00:00:00",169],[263,"VECTORSTUDYU1","MA","VECTORSTUDYU1-P0403","",263,"","","","GROSPATH","Gross Pathological Examination","","BONE, STERNUM: UNREMARKABLE","UNREMARKABLE","","","","BONE, STERNUM","","","","","","","","","","2019-01-14T00:00:00",169],[264,"VECTORSTUDYU1","MA","VECTORSTUDYU1-P0403","",264,"","","","GROSPATH","Gross Pathological Examination","","STOMACH: Discolored; mucosa, body; single, up to 10 mm2; red; collected","Discolored, red","","","","STOMACH","MUCOSA","","","","","SINGLE","","","","2019-01-14T00:00:00",169],[265,"VECTORSTUDYU1","MA","VECTORSTUDYU1-P0403","",265,"","","","GROSPATH","Gross Pathological Examination","","TESTIS: UNREMARKABLE","UNREMARKABLE","","","","TESTIS","","","","","","","","","","2019-01-14T00:00:00",169],[266,"VECTORSTUDYU1","MA","VECTORSTUDYU1-P0403","",266,"","","","GROSPATH","Gross Pathological Examination","","THYMUS: UNREMARKABLE","UNREMARKABLE","","","","THYMUS","","","","","","","","","","2019-01-14T00:00:00",169],[267,"VECTORSTUDYU1","MA","VECTORSTUDYU1-P0403","",267,"","","","GROSPATH","Gross Pathological Examination","","GLAND, THYROID: UNREMARKABLE","UNREMARKABLE","","","","GLAND, THYROID","","","","","","","","","","2019-01-14T00:00:00",169],[268,"VECTORSTUDYU1","MA","VECTORSTUDYU1-P0403","",268,"","","","GROSPATH","Gross Pathological Examination","","TONGUE: UNREMARKABLE","UNREMARKABLE","","","","TONGUE","","","","","","","","","","2019-01-14T00:00:00",169],[269,"VECTORSTUDYU1","MA","VECTORSTUDYU1-P0403","",269,"","","","GROSPATH","Gross Pathological Examination","","TRACHEA: UNREMARKABLE","UNREMARKABLE","","","","TRACHEA","","","","","","","","","","2019-01-14T00:00:00",169],[270,"VECTORSTUDYU1","MA","VECTORSTUDYU1-P0403","",270,"","","","GROSPATH","Gross Pathological Examination","","URINARY BLADDER: UNREMARKABLE","UNREMARKABLE","","","","URINARY BLADDER","","","","","","","","","","2019-01-14T00:00:00",169]]}}}}