{"creationDateTime":"2023-08-01T10:34:34","datasetJSONVersion":"1.0.0","fileOID":"www.cdisc.org/StudyMSGv2/1/Define-XML_2.0.0/2023-08-01/pc","originator":"CDISC SEND Team","sourceSystem":"Sponsor System","sourceSystemVersion":"1.0","clinicalData":{"studyOID":"VECTORSTUDYU1.SEND-IG.3.1","metaDataVersionOID":"MDV.VECTORSTUDYU1.SEND-IG.3.1","metaDataRef":"https://metadata.location.org/TDF_SEND_SENDIG31/define.xml","itemGroupData":{"IG.PC":{"records":72,"name":"PC","label":"PHARMACOKINETICS CONCENTRATIONS","items":[{"OID":"ITEMGROUPDATASEQ","name":"ITEMGROUPDATASEQ","label":"Record Identifier","type":"integer"},{"OID":"IT.PC.STUDYID","name":"STUDYID","label":"Study Identifier","type":"string","length":13,"keySequence":1},{"OID":"IT.PC.DOMAIN","name":"DOMAIN","label":"Domain Abbreviation","type":"string","length":2,"displayFormat":"$2"},{"OID":"IT.PC.USUBJID","name":"USUBJID","label":"Unique Subject Identifier","type":"string","length":19,"keySequence":2},{"OID":"IT.PC.POOLID","name":"POOLID","label":"Pool Identifier","type":"string","length":1,"keySequence":3},{"OID":"IT.PC.PCSEQ","name":"PCSEQ","label":"Sequence Number","type":"integer","length":8},{"OID":"IT.PC.PCGRPID","name":"PCGRPID","label":"Group Identifier","type":"string","length":1},{"OID":"IT.PC.PCREFID","name":"PCREFID","label":"Sample Identifier","type":"string","length":1},{"OID":"IT.PC.PCSPID","name":"PCSPID","label":"Sponsor-Defined Identifier","type":"string","length":1},{"OID":"IT.PC.PCTESTCD","name":"PCTESTCD","label":"Test Short Name","type":"string","length":8,"keySequence":4},{"OID":"IT.PC.PCTEST","name":"PCTEST","label":"Test Name","type":"string","length":22},{"OID":"IT.PC.PCCAT","name":"PCCAT","label":"Test Category","type":"string","length":7},{"OID":"IT.PC.PCSCAT","name":"PCSCAT","label":"Test Subcategory","type":"string","length":7},{"OID":"IT.PC.PCORRES","name":"PCORRES","label":"Result or Findings as Collected","type":"string","length":7},{"OID":"IT.PC.PCORRESU","name":"PCORRESU","label":"Unit of the Original Result","type":"string","length":11},{"OID":"IT.PC.PCSTRESC","name":"PCSTRESC","label":"Standardized Result in Character Format","type":"string","length":7},{"OID":"IT.PC.PCSTRESN","name":"PCSTRESN","label":"Standardized Result in Numeric Format","type":"float","length":10},{"OID":"IT.PC.PCSTRESU","name":"PCSTRESU","label":"Unit of the Standardized Result","type":"string","length":13},{"OID":"IT.PC.PCSTAT","name":"PCSTAT","label":"Completion Status","type":"string","length":1},{"OID":"IT.PC.PCREASND","name":"PCREASND","label":"Reason Not Done","type":"string","length":1},{"OID":"IT.PC.PCNAM","name":"PCNAM","label":"Laboratory Name","type":"string","length":1},{"OID":"IT.PC.PCSPEC","name":"PCSPEC","label":"Specimen Material Type","type":"string","length":6,"keySequence":5},{"OID":"IT.PC.PCSPCCND","name":"PCSPCCND","label":"Specimen Condition","type":"string","length":1},{"OID":"IT.PC.PCSPCUFL","name":"PCSPCUFL","label":"Specimen Usability for the Test","type":"string","length":1},{"OID":"IT.PC.PCMETHOD","name":"PCMETHOD","label":"Method of Test or Examination","type":"string","length":25},{"OID":"IT.PC.PCBLFL","name":"PCBLFL","label":"Baseline Flag","type":"string","length":1},{"OID":"IT.PC.PCFAST","name":"PCFAST","label":"Fasting Status","type":"string","length":1},{"OID":"IT.PC.PCDRVFL","name":"PCDRVFL","label":"Derived Flag","type":"string","length":1},{"OID":"IT.PC.PCLLOQ","name":"PCLLOQ","label":"Lower Limit of Quantitation","type":"integer","length":8},{"OID":"IT.PC.PCEXCLFL","name":"PCEXCLFL","label":"Exclusion Flag","type":"string","length":1},{"OID":"IT.PC.PCREASEX","name":"PCREASEX","label":"Reason for Exclusion","type":"string","length":1},{"OID":"IT.PC.VISITDY","name":"VISITDY","label":"Planned Study Day of Collection","type":"integer","length":8},{"OID":"IT.PC.PCDTC","name":"PCDTC","label":"Date/Time of Specimen Collection","type":"string","keySequence":6},{"OID":"IT.PC.PCENDTC","name":"PCENDTC","label":"End Date/Time of Specimen Collection","type":"string","length":1},{"OID":"IT.PC.PCDY","name":"PCDY","label":"Study Day of Specimen Collection","type":"integer","length":8},{"OID":"IT.PC.PCENDY","name":"PCENDY","label":"Study Day of End of Specimen Collection","type":"integer","length":8},{"OID":"IT.PC.PCNOMDY","name":"PCNOMDY","label":"Nominal Study Day for Tabulations","type":"integer","length":8},{"OID":"IT.PC.PCNOMLBL","name":"PCNOMLBL","label":"Label for Nominal Study Day","type":"string","length":1},{"OID":"IT.PC.PCTPT","name":"PCTPT","label":"Planned Time Point Name","type":"string","length":17},{"OID":"IT.PC.PCTPTNUM","name":"PCTPTNUM","label":"Planned Time Point Number","type":"integer","length":8},{"OID":"IT.PC.PCELTM","name":"PCELTM","label":"Planned Elapsed Time from Time Point Ref","type":"string","length":6},{"OID":"IT.PC.PCTPTREF","name":"PCTPTREF","label":"Time Point Reference","type":"string","length":6},{"OID":"IT.PC.PCRFTDTC","name":"PCRFTDTC","label":"Date/Time of Reference Point","type":"string"},{"OID":"IT.PC.PCEVLINT","name":"PCEVLINT","label":"Evaluation Interval","type":"string","length":1}],"itemData":[[1,"VECTORSTUDYU1","PC","VECTORSTUDYU1-P0001","",1,"","","","PROTEIN","Protein Expression","ANALYTE","protein","0","% of normal","0",0,"%","","","","PLASMA","","","ENZYME IMMUNOASSAY","","","",null,"","",1,"2018-07-30T00:00:00","",1,null,1,"","Predose",0,"-PT15M","-PT15M","2018-07-30T00:00:00",""],[2,"VECTORSTUDYU1","PC","VECTORSTUDYU1-P0002","",2,"","","","PROTEIN","Protein Expression","ANALYTE","protein","0","% of normal","0",0,"%","","","","PLASMA","","","ENZYME IMMUNOASSAY","","","",null,"","",1,"2018-07-30T00:00:00","",1,null,1,"","Predose",0,"-PT15M","-PT15M","2018-07-30T00:00:00",""],[3,"VECTORSTUDYU1","PC","VECTORSTUDYU1-P0003","",3,"","","","PROTEIN","Protein Expression","ANALYTE","protein","0","% of normal","0",0,"%","","","","PLASMA","","","ENZYME IMMUNOASSAY","","","",null,"","",1,"2018-07-30T00:00:00","",1,null,1,"","Predose",0,"-PT15M","-PT15M","2018-07-30T00:00:00",""],[4,"VECTORSTUDYU1","PC","VECTORSTUDYU1-P0001","",4,"","","","PROTEIN","Protein Expression","ANALYTE","protein","11.23","% of normal","11.23",11.23,"%","","","","PLASMA","","","ENZYME IMMUNOASSAY","","","",null,"","",15,"2018-08-13T00:00:00","",15,null,15,"","2 weeks postdose",2,"P2W","-PT15M","2018-07-30T00:00:00",""],[5,"VECTORSTUDYU1","PC","VECTORSTUDYU1-P0002","",5,"","","","PROTEIN","Protein Expression","ANALYTE","protein","15.87","% of normal","15.87",15.87,"%","","","","PLASMA","","","ENZYME IMMUNOASSAY","","","",null,"","",15,"2018-08-13T00:00:00","",15,null,15,"","2 weeks postdose",2,"P2W","-PT15M","2018-07-30T00:00:00",""],[6,"VECTORSTUDYU1","PC","VECTORSTUDYU1-P0003","",6,"","","","PROTEIN","Protein Expression","ANALYTE","protein","10.87","% of normal","10.87",10.87,"%","","","","PLASMA","","","ENZYME IMMUNOASSAY","","","",null,"","",15,"2018-08-13T00:00:00","",15,null,15,"","2 weeks postdose",2,"P2W","-PT15M","2018-07-30T00:00:00",""],[7,"VECTORSTUDYU1","PC","VECTORSTUDYU1-P0001","",7,"","","","PROTEIN","Protein Expression","ANALYTE","protein","11.01","% of normal","11.01",11.01,"%","","","","PLASMA","","","ENZYME IMMUNOASSAY","","","",null,"","",29,"2018-08-27T00:00:00","",29,null,29,"","4 weeks postdose",4,"P4W","-PT15M","2018-07-30T00:00:00",""],[8,"VECTORSTUDYU1","PC","VECTORSTUDYU1-P0002","",8,"","","","PROTEIN","Protein Expression","ANALYTE","protein","23.54","% of normal","23.54",23.54,"%","","","","PLASMA","","","ENZYME IMMUNOASSAY","","","",null,"","",29,"2018-08-27T00:00:00","",29,null,29,"","4 weeks postdose",4,"P4W","-PT15M","2018-07-30T00:00:00",""],[9,"VECTORSTUDYU1","PC","VECTORSTUDYU1-P0003","",9,"","","","PROTEIN","Protein Expression","ANALYTE","protein","16.94","% of normal","16.94",16.94,"%","","","","PLASMA","","","ENZYME IMMUNOASSAY","","","",null,"","",29,"2018-08-27T00:00:00","",29,null,29,"","4 weeks postdose",4,"P4W","-PT15M","2018-07-30T00:00:00",""],[10,"VECTORSTUDYU1","PC","VECTORSTUDYU1-P0001","",10,"","","","PROTEIN","Protein Expression","ANALYTE","protein","15.32","% of normal","15.32",15.32,"%","","","","PLASMA","","","ENZYME IMMUNOASSAY","","","",null,"","",43,"2018-09-10T00:00:00","",43,null,43,"","6 weeks postdose",6,"P6W","-PT15M","2018-07-30T00:00:00",""],[11,"VECTORSTUDYU1","PC","VECTORSTUDYU1-P0002","",11,"","","","PROTEIN","Protein Expression","ANALYTE","protein","17.56","% of normal","17.56",17.56,"%","","","","PLASMA","","","ENZYME IMMUNOASSAY","","","",null,"","",43,"2018-09-10T00:00:00","",43,null,43,"","6 weeks postdose",6,"P6W","-PT15M","2018-07-30T00:00:00",""],[12,"VECTORSTUDYU1","PC","VECTORSTUDYU1-P0003","",12,"","","","PROTEIN","Protein Expression","ANALYTE","protein","14.67","% of normal","14.67",14.67,"%","","","","PLASMA","","","ENZYME IMMUNOASSAY","","","",null,"","",43,"2018-09-10T00:00:00","",43,null,43,"","6 weeks postdose",6,"P6W","-PT15M","2018-07-30T00:00:00",""],[13,"VECTORSTUDYU1","PC","VECTORSTUDYU1-P0001","",13,"","","","PROTEIN","Protein Expression","ANALYTE","protein","9.66","% of normal","9.66",9.66,"%","","","","PLASMA","","","ENZYME IMMUNOASSAY","","","",null,"","",57,"2018-09-24T00:00:00","",57,null,57,"","8 weeks postdose",8,"P8W","-PT15M","2018-07-30T00:00:00",""],[14,"VECTORSTUDYU1","PC","VECTORSTUDYU1-P0002","",14,"","","","PROTEIN","Protein Expression","ANALYTE","protein","14.67","% of normal","14.67",14.67,"%","","","","PLASMA","","","ENZYME IMMUNOASSAY","","","",null,"","",57,"2018-09-24T00:00:00","",57,null,57,"","8 weeks postdose",8,"P8W","-PT15M","2018-07-30T00:00:00",""],[15,"VECTORSTUDYU1","PC","VECTORSTUDYU1-P0003","",15,"","","","PROTEIN","Protein Expression","ANALYTE","protein","15.35","% of normal","15.35",15.35,"%","","","","PLASMA","","","ENZYME IMMUNOASSAY","","","",null,"","",57,"2018-09-24T00:00:00","",57,null,57,"","8 weeks postdose",8,"P8W","-PT15M","2018-07-30T00:00:00",""],[16,"VECTORSTUDYU1","PC","VECTORSTUDYU1-P0001","",16,"","","","PROTEIN","Protein Expression","ANALYTE","protein","10","% of normal","10",10,"%","","","","PLASMA","","","ENZYME IMMUNOASSAY","","","",null,"","",71,"2018-10-08T00:00:00","",71,null,71,"","10 week postdose",10,"P10W","-PT15M","2018-07-30T00:00:00",""],[17,"VECTORSTUDYU1","PC","VECTORSTUDYU1-P0002","",17,"","","","PROTEIN","Protein Expression","ANALYTE","protein","13.51","% of normal","13.51",13.51,"%","","","","PLASMA","","","ENZYME IMMUNOASSAY","","","",null,"","",71,"2018-10-08T00:00:00","",71,null,71,"","10 week postdose",10,"P10W","-PT15M","2018-07-30T00:00:00",""],[18,"VECTORSTUDYU1","PC","VECTORSTUDYU1-P0003","",18,"","","","PROTEIN","Protein Expression","ANALYTE","protein","10.83","% of normal","10.83",10.83,"%","","","","PLASMA","","","ENZYME IMMUNOASSAY","","","",null,"","",71,"2018-10-08T00:00:00","",71,null,71,"","10 week postdose",10,"P10W","-PT15M","2018-07-30T00:00:00",""],[19,"VECTORSTUDYU1","PC","VECTORSTUDYU1-P0001","",19,"","","","PROTEIN","Protein Expression","ANALYTE","protein","9.57","% of normal","9.57",9.57,"%","","","","PLASMA","","","ENZYME IMMUNOASSAY","","","",null,"","",85,"2018-10-22T00:00:00","",85,null,85,"","12 weeks postdose",12,"P12W","-PT15M","2018-07-30T00:00:00",""],[20,"VECTORSTUDYU1","PC","VECTORSTUDYU1-P0002","",20,"","","","PROTEIN","Protein Expression","ANALYTE","protein","8.97","% of normal","8.97",8.97,"%","","","","PLASMA","","","ENZYME IMMUNOASSAY","","","",null,"","",85,"2018-10-22T00:00:00","",85,null,85,"","12 weeks postdose",12,"P12W","-PT15M","2018-07-30T00:00:00",""],[21,"VECTORSTUDYU1","PC","VECTORSTUDYU1-P0003","",21,"","","","PROTEIN","Protein Expression","ANALYTE","protein","13.39","% of normal","13.39",13.39,"%","","","","PLASMA","","","ENZYME IMMUNOASSAY","","","",null,"","",85,"2018-10-22T00:00:00","",85,null,85,"","12 weeks postdose",12,"P12W","-PT15M","2018-07-30T00:00:00",""],[22,"VECTORSTUDYU1","PC","VECTORSTUDYU1-P0001","",22,"","","","PROTEIN","Protein Expression","ANALYTE","protein","14.74","% of normal","14.74",14.74,"%","","","","PLASMA","","","ENZYME IMMUNOASSAY","","","",null,"","",113,"2018-11-19T00:00:00","",113,null,113,"","16 weeks postdose",16,"P16W","-PT15M","2018-07-30T00:00:00",""],[23,"VECTORSTUDYU1","PC","VECTORSTUDYU1-P0002","",23,"","","","PROTEIN","Protein Expression","ANALYTE","protein","9.49","% of normal","9.49",9.49,"%","","","","PLASMA","","","ENZYME IMMUNOASSAY","","","",null,"","",113,"2018-11-19T00:00:00","",113,null,113,"","16 weeks postdose",16,"P16W","-PT15M","2018-07-30T00:00:00",""],[24,"VECTORSTUDYU1","PC","VECTORSTUDYU1-P0003","",24,"","","","PROTEIN","Protein Expression","ANALYTE","protein","18.29","% of normal","18.29",18.29,"%","","","","PLASMA","","","ENZYME IMMUNOASSAY","","","",null,"","",113,"2018-11-19T00:00:00","",113,null,113,"","16 weeks postdose",16,"P16W","-PT15M","2018-07-30T00:00:00",""],[25,"VECTORSTUDYU1","PC","VECTORSTUDYU1-P0001","",25,"","","","PROTEIN","Protein Expression","ANALYTE","protein","9.25","% of normal","9.25",9.25,"%","","","","PLASMA","","","ENZYME IMMUNOASSAY","","","",null,"","",141,"2018-12-17T00:00:00","",141,null,141,"","20 weeks postdose",20,"P20W","-PT15M","2018-07-30T00:00:00",""],[26,"VECTORSTUDYU1","PC","VECTORSTUDYU1-P0002","",26,"","","","PROTEIN","Protein Expression","ANALYTE","protein","13.5","% of normal","13.5",13.5,"%","","","","PLASMA","","","ENZYME IMMUNOASSAY","","","",null,"","",141,"2018-12-17T00:00:00","",141,null,141,"","20 weeks postdose",20,"P20W","-PT15M","2018-07-30T00:00:00",""],[27,"VECTORSTUDYU1","PC","VECTORSTUDYU1-P0003","",27,"","","","PROTEIN","Protein Expression","ANALYTE","protein","14.47","% of normal","14.47",14.47,"%","","","","PLASMA","","","ENZYME IMMUNOASSAY","","","",null,"","",141,"2018-12-17T00:00:00","",141,null,141,"","20 weeks postdose",20,"P20W","-PT15M","2018-07-30T00:00:00",""],[28,"VECTORSTUDYU1","PC","VECTORSTUDYU1-P0001","",28,"","","","PROTEIN","Protein Expression","ANALYTE","protein","9.96","% of normal","9.96",9.96,"%","","","","PLASMA","","","ENZYME IMMUNOASSAY","","","",null,"","",169,"2019-01-14T00:00:00","",169,null,169,"","24 weeks postdose",24,"P24W","-PT15M","2018-07-30T00:00:00",""],[29,"VECTORSTUDYU1","PC","VECTORSTUDYU1-P0002","",29,"","","","PROTEIN","Protein Expression","ANALYTE","protein","16.19","% of normal","16.19",16.19,"%","","","","PLASMA","","","ENZYME IMMUNOASSAY","","","",null,"","",169,"2019-01-14T00:00:00","",169,null,169,"","24 weeks postdose",24,"P24W","-PT15M","2018-07-30T00:00:00",""],[30,"VECTORSTUDYU1","PC","VECTORSTUDYU1-P0003","",30,"","","","PROTEIN","Protein Expression","ANALYTE","protein","12.11","% of normal","12.11",12.11,"%","","","","PLASMA","","","ENZYME IMMUNOASSAY","","","",null,"","",169,"2019-01-14T00:00:00","",169,null,169,"","24 weeks postdose",24,"P24W","-PT15M","2018-07-30T00:00:00",""],[31,"VECTORSTUDYU1","PC","VECTORSTUDYU1-P0001","",31,"","","","AAVA_DNA","Vector A","ANALYTE","gDNA","940495","copies/ug","940495",940495,"DNA copies/ug","","","","LIVER","","","POLYMERASE CHAIN REACTION","","","",null,"","",169,"2019-01-14T00:00:00","",169,null,169,"","24 weeks postdose",24,"P24W","-PT15M","2018-07-30T00:00:00",""],[32,"VECTORSTUDYU1","PC","VECTORSTUDYU1-P0002","",32,"","","","AAVA_DNA","Vector A","ANALYTE","gDNA","2531790","copies/ug","2531790",2531790,"DNA copies/ug","","","","LIVER","","","POLYMERASE CHAIN REACTION","","","",null,"","",169,"2019-01-14T00:00:00","",169,null,169,"","24 weeks postdose",24,"P24W","-PT15M","2018-07-30T00:00:00",""],[33,"VECTORSTUDYU1","PC","VECTORSTUDYU1-P0003","",33,"","","","AAVA_DNA","Vector A","ANALYTE","gDNA","1257333","copies/ug","1257333",1257333,"DNA copies/ug","","","","LIVER","","","POLYMERASE CHAIN REACTION","","","",null,"","",169,"2019-01-14T00:00:00","",169,null,169,"","24 weeks postdose",24,"P24W","-PT15M","2018-07-30T00:00:00",""],[34,"VECTORSTUDYU1","PC","VECTORSTUDYU1-P0001","",34,"","","","AAVA_RNA","Transgene Expression A","ANALYTE","mRNA","8537","copies/ug","8537",8537,"RNA copies/ug","","","","LIVER","","","POLYMERASE CHAIN REACTION","","","",null,"","",169,"2019-01-14T00:00:00","",169,null,169,"","24 weeks postdose",24,"P24W","-PT15M","2018-07-30T00:00:00",""],[35,"VECTORSTUDYU1","PC","VECTORSTUDYU1-P0002","",35,"","","","AAVA_RNA","Transgene Expression A","ANALYTE","mRNA","28453","copies/ug","28453",28453,"RNA copies/ug","","","","LIVER","","","POLYMERASE CHAIN REACTION","","","",null,"","",169,"2019-01-14T00:00:00","",169,null,169,"","24 weeks postdose",24,"P24W","-PT15M","2018-07-30T00:00:00",""],[36,"VECTORSTUDYU1","PC","VECTORSTUDYU1-P0003","",36,"","","","AAVA_RNA","Transgene Expression A","ANALYTE","mRNA","16534","copies/ug","16534",16534,"RNA copies/ug","","","","LIVER","","","POLYMERASE CHAIN REACTION","","","",null,"","",169,"2019-01-14T00:00:00","",169,null,169,"","24 weeks postdose",24,"P24W","-PT15M","2018-07-30T00:00:00",""],[37,"VECTORSTUDYU1","PC","VECTORSTUDYU1-P0401","",37,"","","","PROTEIN","Protein Expression","ANALYTE","protein","0","% of normal","0",0,"%","","","","PLASMA","","","ENZYME IMMUNOASSAY","","","",null,"","",1,"2018-07-30T00:00:00","",1,null,1,"","Predose",0,"-PT15M","-PT15M","2018-07-30T00:00:00",""],[38,"VECTORSTUDYU1","PC","VECTORSTUDYU1-P0402","",38,"","","","PROTEIN","Protein Expression","ANALYTE","protein","0","% of normal","0",0,"%","","","","PLASMA","","","ENZYME IMMUNOASSAY","","","",null,"","",1,"2018-07-30T00:00:00","",1,null,1,"","Predose",0,"-PT15M","-PT15M","2018-07-30T00:00:00",""],[39,"VECTORSTUDYU1","PC","VECTORSTUDYU1-P0403","",39,"","","","PROTEIN","Protein Expression","ANALYTE","protein","0","% of normal","0",0,"%","","","","PLASMA","","","ENZYME IMMUNOASSAY","","","",null,"","",1,"2018-07-30T00:00:00","",1,null,1,"","Predose",0,"-PT15M","-PT15M","2018-07-30T00:00:00",""],[40,"VECTORSTUDYU1","PC","VECTORSTUDYU1-P0401","",40,"","","","PROTEIN","Protein Expression","ANALYTE","protein","17.27","% of normal","17.27",17.27,"%","","","","PLASMA","","","ENZYME IMMUNOASSAY","","","",null,"","",15,"2018-08-13T00:00:00","",15,null,15,"","2 weeks postdose",2,"P2W","-PT15M","2018-07-30T00:00:00",""],[41,"VECTORSTUDYU1","PC","VECTORSTUDYU1-P0402","",41,"","","","PROTEIN","Protein Expression","ANALYTE","protein","22.94","% of normal","22.94",22.94,"%","","","","PLASMA","","","ENZYME IMMUNOASSAY","","","",null,"","",15,"2018-08-13T00:00:00","",15,null,15,"","2 weeks postdose",2,"P2W","-PT15M","2018-07-30T00:00:00",""],[42,"VECTORSTUDYU1","PC","VECTORSTUDYU1-P0403","",42,"","","","PROTEIN","Protein Expression","ANALYTE","protein","22.68","% of normal","22.68",22.68,"%","","","","PLASMA","","","ENZYME IMMUNOASSAY","","","",null,"","",15,"2018-08-13T00:00:00","",15,null,15,"","2 weeks postdose",2,"P2W","-PT15M","2018-07-30T00:00:00",""],[43,"VECTORSTUDYU1","PC","VECTORSTUDYU1-P0401","",43,"","","","PROTEIN","Protein Expression","ANALYTE","protein","18.19","% of normal","18.19",18.19,"%","","","","PLASMA","","","ENZYME IMMUNOASSAY","","","",null,"","",29,"2018-08-27T00:00:00","",29,null,29,"","4 weeks postdose",4,"P4W","-PT15M","2018-07-30T00:00:00",""],[44,"VECTORSTUDYU1","PC","VECTORSTUDYU1-P0402","",44,"","","","PROTEIN","Protein Expression","ANALYTE","protein","26.73","% of normal","26.73",26.73,"%","","","","PLASMA","","","ENZYME IMMUNOASSAY","","","",null,"","",29,"2018-08-27T00:00:00","",29,null,29,"","4 weeks postdose",4,"P4W","-PT15M","2018-07-30T00:00:00",""],[45,"VECTORSTUDYU1","PC","VECTORSTUDYU1-P0403","",45,"","","","PROTEIN","Protein Expression","ANALYTE","protein","21.71","% of normal","21.71",21.71,"%","","","","PLASMA","","","ENZYME IMMUNOASSAY","","","",null,"","",29,"2018-08-27T00:00:00","",29,null,29,"","4 weeks postdose",4,"P4W","-PT15M","2018-07-30T00:00:00",""],[46,"VECTORSTUDYU1","PC","VECTORSTUDYU1-P0401","",46,"","","","PROTEIN","Protein Expression","ANALYTE","protein","31.9","% of normal","31.9",31.9,"%","","","","PLASMA","","","ENZYME IMMUNOASSAY","","","",null,"","",43,"2018-09-10T00:00:00","",43,null,43,"","6 weeks postdose",6,"P6W","-PT15M","2018-07-30T00:00:00",""],[47,"VECTORSTUDYU1","PC","VECTORSTUDYU1-P0402","",47,"","","","PROTEIN","Protein Expression","ANALYTE","protein","33.85","% of normal","33.85",33.85,"%","","","","PLASMA","","","ENZYME IMMUNOASSAY","","","",null,"","",43,"2018-09-10T00:00:00","",43,null,43,"","6 weeks postdose",6,"P6W","-PT15M","2018-07-30T00:00:00",""],[48,"VECTORSTUDYU1","PC","VECTORSTUDYU1-P0403","",48,"","","","PROTEIN","Protein Expression","ANALYTE","protein","23.54","% of normal","23.54",23.54,"%","","","","PLASMA","","","ENZYME IMMUNOASSAY","","","",null,"","",43,"2018-09-10T00:00:00","",43,null,43,"","6 weeks postdose",6,"P6W","-PT15M","2018-07-30T00:00:00",""],[49,"VECTORSTUDYU1","PC","VECTORSTUDYU1-P0401","",49,"","","","PROTEIN","Protein Expression","ANALYTE","protein","27.93","% of normal","27.93",27.93,"%","","","","PLASMA","","","ENZYME IMMUNOASSAY","","","",null,"","",57,"2018-09-24T00:00:00","",57,null,57,"","8 weeks postdose",8,"P8W","-PT15M","2018-07-30T00:00:00",""],[50,"VECTORSTUDYU1","PC","VECTORSTUDYU1-P0402","",50,"","","","PROTEIN","Protein Expression","ANALYTE","protein","30.18","% of normal","30.18",30.18,"%","","","","PLASMA","","","ENZYME IMMUNOASSAY","","","",null,"","",57,"2018-09-24T00:00:00","",57,null,57,"","8 weeks postdose",8,"P8W","-PT15M","2018-07-30T00:00:00",""],[51,"VECTORSTUDYU1","PC","VECTORSTUDYU1-P0403","",51,"","","","PROTEIN","Protein Expression","ANALYTE","protein","24.21","% of normal","24.21",24.21,"%","","","","PLASMA","","","ENZYME IMMUNOASSAY","","","",null,"","",57,"2018-09-24T00:00:00","",57,null,57,"","8 weeks postdose",8,"P8W","-PT15M","2018-07-30T00:00:00",""],[52,"VECTORSTUDYU1","PC","VECTORSTUDYU1-P0401","",52,"","","","PROTEIN","Protein Expression","ANALYTE","protein","19.22","% of normal","19.22",19.22,"%","","","","PLASMA","","","ENZYME IMMUNOASSAY","","","",null,"","",71,"2018-10-08T00:00:00","",71,null,71,"","10 week postdose",10,"P10W","-PT15M","2018-07-30T00:00:00",""],[53,"VECTORSTUDYU1","PC","VECTORSTUDYU1-P0402","",53,"","","","PROTEIN","Protein Expression","ANALYTE","protein","27.22","% of normal","27.22",27.22,"%","","","","PLASMA","","","ENZYME IMMUNOASSAY","","","",null,"","",71,"2018-10-08T00:00:00","",71,null,71,"","10 week postdose",10,"P10W","-PT15M","2018-07-30T00:00:00",""],[54,"VECTORSTUDYU1","PC","VECTORSTUDYU1-P0403","",54,"","","","PROTEIN","Protein Expression","ANALYTE","protein","24.39","% of normal","24.39",24.39,"%","","","","PLASMA","","","ENZYME IMMUNOASSAY","","","",null,"","",71,"2018-10-08T00:00:00","",71,null,71,"","10 week postdose",10,"P10W","-PT15M","2018-07-30T00:00:00",""],[55,"VECTORSTUDYU1","PC","VECTORSTUDYU1-P0401","",55,"","","","PROTEIN","Protein Expression","ANALYTE","protein","18.21","% of normal","18.21",18.21,"%","","","","PLASMA","","","ENZYME IMMUNOASSAY","","","",null,"","",85,"2018-10-22T00:00:00","",85,null,85,"","12 weeks postdose",12,"P12W","-PT15M","2018-07-30T00:00:00",""],[56,"VECTORSTUDYU1","PC","VECTORSTUDYU1-P0402","",56,"","","","PROTEIN","Protein Expression","ANALYTE","protein","21.96","% of normal","21.96",21.96,"%","","","","PLASMA","","","ENZYME IMMUNOASSAY","","","",null,"","",85,"2018-10-22T00:00:00","",85,null,85,"","12 weeks postdose",12,"P12W","-PT15M","2018-07-30T00:00:00",""],[57,"VECTORSTUDYU1","PC","VECTORSTUDYU1-P0403","",57,"","","","PROTEIN","Protein Expression","ANALYTE","protein","19.08","% of normal","19.08",19.08,"%","","","","PLASMA","","","ENZYME IMMUNOASSAY","","","",null,"","",85,"2018-10-22T00:00:00","",85,null,85,"","12 weeks postdose",12,"P12W","-PT15M","2018-07-30T00:00:00",""],[58,"VECTORSTUDYU1","PC","VECTORSTUDYU1-P0401","",58,"","","","PROTEIN","Protein Expression","ANALYTE","protein","23.02","% of normal","23.02",23.02,"%","","","","PLASMA","","","ENZYME IMMUNOASSAY","","","",null,"","",113,"2018-11-19T00:00:00","",113,null,113,"","16 weeks postdose",16,"P16W","-PT15M","2018-07-30T00:00:00",""],[59,"VECTORSTUDYU1","PC","VECTORSTUDYU1-P0402","",59,"","","","PROTEIN","Protein Expression","ANALYTE","protein","10.02","% of normal","10.02",10.02,"%","","","","PLASMA","","","ENZYME IMMUNOASSAY","","","",null,"","",113,"2018-11-19T00:00:00","",113,null,113,"","16 weeks postdose",16,"P16W","-PT15M","2018-07-30T00:00:00",""],[60,"VECTORSTUDYU1","PC","VECTORSTUDYU1-P0403","",60,"","","","PROTEIN","Protein Expression","ANALYTE","protein","14.76","% of normal","14.76",14.76,"%","","","","PLASMA","","","ENZYME IMMUNOASSAY","","","",null,"","",113,"2018-11-19T00:00:00","",113,null,113,"","16 weeks postdose",16,"P16W","-PT15M","2018-07-30T00:00:00",""],[61,"VECTORSTUDYU1","PC","VECTORSTUDYU1-P0401","",61,"","","","PROTEIN","Protein Expression","ANALYTE","protein","10.2","% of normal","10.2",10.2,"%","","","","PLASMA","","","ENZYME IMMUNOASSAY","","","",null,"","",141,"2018-12-17T00:00:00","",141,null,141,"","20 weeks postdose",20,"P20W","-PT15M","2018-07-30T00:00:00",""],[62,"VECTORSTUDYU1","PC","VECTORSTUDYU1-P0402","",62,"","","","PROTEIN","Protein Expression","ANALYTE","protein","11.054","% of normal","11.054",11.054,"%","","","","PLASMA","","","ENZYME IMMUNOASSAY","","","",null,"","",141,"2018-12-17T00:00:00","",141,null,141,"","20 weeks postdose",20,"P20W","-PT15M","2018-07-30T00:00:00",""],[63,"VECTORSTUDYU1","PC","VECTORSTUDYU1-P0403","",63,"","","","PROTEIN","Protein Expression","ANALYTE","protein","10.243","% of normal","10.243",10.243,"%","","","","PLASMA","","","ENZYME IMMUNOASSAY","","","",null,"","",141,"2018-12-17T00:00:00","",141,null,141,"","20 weeks postdose",20,"P20W","-PT15M","2018-07-30T00:00:00",""],[64,"VECTORSTUDYU1","PC","VECTORSTUDYU1-P0401","",64,"","","","PROTEIN","Protein Expression","ANALYTE","protein","11.6104","% of normal","11.6104",11.6104,"%","","","","PLASMA","","","ENZYME IMMUNOASSAY","","","",null,"","",169,"2019-01-14T00:00:00","",169,null,169,"","24 weeks postdose",24,"P24W","-PT15M","2018-07-30T00:00:00",""],[65,"VECTORSTUDYU1","PC","VECTORSTUDYU1-P0402","",65,"","","","PROTEIN","Protein Expression","ANALYTE","protein","12.4","% of normal","12.4",12.4,"%","","","","PLASMA","","","ENZYME IMMUNOASSAY","","","",null,"","",169,"2019-01-14T00:00:00","",169,null,169,"","24 weeks postdose",24,"P24W","-PT15M","2018-07-30T00:00:00",""],[66,"VECTORSTUDYU1","PC","VECTORSTUDYU1-P0403","",66,"","","","PROTEIN","Protein Expression","ANALYTE","protein","18.7","% of normal","18.7",18.7,"%","","","","PLASMA","","","ENZYME IMMUNOASSAY","","","",null,"","",169,"2019-01-14T00:00:00","",169,null,169,"","24 weeks postdose",24,"P24W","-PT15M","2018-07-30T00:00:00",""],[67,"VECTORSTUDYU1","PC","VECTORSTUDYU1-P0401","",67,"","","","AAVB_DNA","Vector B","ANALYTE","gDNA","1901575","copies/ug","1901575",1901575,"DNA copies/ug","","","","LIVER","","","POLYMERASE CHAIN REACTION","","","",null,"","",169,"2019-01-14T00:00:00","",169,null,169,"","24 weeks postdose",24,"P24W","-PT15M","2018-07-30T00:00:00",""],[68,"VECTORSTUDYU1","PC","VECTORSTUDYU1-P0402","",68,"","","","AAVB_DNA","Vector B","ANALYTE","gDNA","3321024","copies/ug","3321024",3321024,"DNA copies/ug","","","","LIVER","","","POLYMERASE CHAIN REACTION","","","",null,"","",169,"2019-01-14T00:00:00","",169,null,169,"","24 weeks postdose",24,"P24W","-PT15M","2018-07-30T00:00:00",""],[69,"VECTORSTUDYU1","PC","VECTORSTUDYU1-P0403","",69,"","","","AAVB_DNA","Vector B","ANALYTE","gDNA","1301982","copies/ug","1301982",1301982,"DNA copies/ug","","","","LIVER","","","POLYMERASE CHAIN REACTION","","","",null,"","",169,"2019-01-14T00:00:00","",169,null,169,"","24 weeks postdose",24,"P24W","-PT15M","2018-07-30T00:00:00",""],[70,"VECTORSTUDYU1","PC","VECTORSTUDYU1-P0401","",70,"","","","AAVB_RNA","Transgene Expression B","ANALYTE","mRNA","29816","copies/ug","29816",29816,"RNA copies/ug","","","","LIVER","","","POLYMERASE CHAIN REACTION","","","",null,"","",169,"2019-01-14T00:00:00","",169,null,169,"","24 weeks postdose",24,"P24W","-PT15M","2018-07-30T00:00:00",""],[71,"VECTORSTUDYU1","PC","VECTORSTUDYU1-P0402","",71,"","","","AAVB_RNA","Transgene Expression B","ANALYTE","mRNA","26702","copies/ug","26702",26702,"RNA copies/ug","","","","LIVER","","","POLYMERASE CHAIN REACTION","","","",null,"","",169,"2019-01-14T00:00:00","",169,null,169,"","24 weeks postdose",24,"P24W","-PT15M","2018-07-30T00:00:00",""],[72,"VECTORSTUDYU1","PC","VECTORSTUDYU1-P0403","",72,"","","","AAVB_RNA","Transgene Expression B","ANALYTE","mRNA","21588","copies/ug","21588",21588,"RNA copies/ug","","","","LIVER","","","POLYMERASE CHAIN REACTION","","","",null,"","",169,"2019-01-14T00:00:00","",169,null,169,"","24 weeks postdose",24,"P24W","-PT15M","2018-07-30T00:00:00",""]]}}}}