{"creationDateTime":"2023-08-01T10:34:34","datasetJSONVersion":"1.0.0","fileOID":"www.cdisc.org/StudyMSGv2/1/Define-XML_2.0.0/2023-08-01/relrec","originator":"CDISC SEND Team","sourceSystem":"Sponsor System","sourceSystemVersion":"1.0","clinicalData":{"studyOID":"VECTORSTUDYU1.SEND-IG.3.1","metaDataVersionOID":"MDV.VECTORSTUDYU1.SEND-IG.3.1","metaDataRef":"https://metadata.location.org/TDF_SEND_SENDIG31/define.xml","itemGroupData":{"IG.0f4432af-8c25-4527":{"records":17,"name":"RELREC","label":"RELATED RECORDS","items":[{"OID":"ITEMGROUPDATASEQ","name":"ITEMGROUPDATASEQ","label":"Record Identifier","type":"integer"},{"OID":"IT.df2543c3-ad81-46db","name":"STUDYID","label":"Study Identifier","type":"string","length":13,"keySequence":1},{"OID":"IT.dda7797a-a782-4599","name":"RDOMAIN","label":"Related Domain Abbreviation","type":"string","length":2,"keySequence":2},{"OID":"IT.5b8b60aa-9a7d-4511","name":"USUBJID","label":"Unique Subject Identifier","type":"string","length":19,"keySequence":3},{"OID":"IT.75f538c7-b1ed-4322","name":"POOLID","label":"Pool Identifier","type":"string","length":1},{"OID":"IT.371256ec-9140-4e63","name":"IDVAR","label":"Identifying Variable","type":"string","length":5},{"OID":"IT.dedf91d7-8fba-4713","name":"IDVARVAL","label":"Identifying Variable Value","type":"string","length":3,"keySequence":4},{"OID":"IT.4fb50e63-8de3-40d6","name":"RELTYPE","label":"Relationship Type","type":"string","length":1},{"OID":"IT.4eb34fbb-b9df-474f","name":"RELID","label":"Relationship Identifier","type":"string","length":1,"keySequence":5}],"itemData":[[1,"VECTORSTUDYU1","MA","VECTORSTUDYU1-P0002","","MASEQ","80","","1"],[2,"VECTORSTUDYU1","MI","VECTORSTUDYU1-P0002","","MISEQ","22","","1"],[3,"VECTORSTUDYU1","MA","VECTORSTUDYU1-P0003","","MASEQ","105","","2"],[4,"VECTORSTUDYU1","MI","VECTORSTUDYU1-P0003","","MISEQ","28","","2"],[5,"VECTORSTUDYU1","MA","VECTORSTUDYU1-P0401","","MASEQ","140","","3"],[6,"VECTORSTUDYU1","MI","VECTORSTUDYU1-P0401","","MISEQ","36","","3"],[7,"VECTORSTUDYU1","MI","VECTORSTUDYU1-P0401","","MISEQ","37","","3"],[8,"VECTORSTUDYU1","MA","VECTORSTUDYU1-P0401","","MASEQ","141","","4"],[9,"VECTORSTUDYU1","MI","VECTORSTUDYU1-P0401","","MISEQ","38","","4"],[10,"VECTORSTUDYU1","MA","VECTORSTUDYU1-P0401","","MASEQ","170","","6"],[11,"VECTORSTUDYU1","MI","VECTORSTUDYU1-P0401","","MISEQ","46","","6"],[12,"VECTORSTUDYU1","MA","VECTORSTUDYU1-P0403","","MASEQ","231","","7"],[13,"VECTORSTUDYU1","MI","VECTORSTUDYU1-P0403","","MISEQ","60","","7"],[14,"VECTORSTUDYU1","MI","VECTORSTUDYU1-P0403","","MISEQ","61","","7"],[15,"VECTORSTUDYU1","MA","VECTORSTUDYU1-P0403","","MASEQ","264","","8"],[16,"VECTORSTUDYU1","MI","VECTORSTUDYU1-P0403","","MISEQ","70","","8"],[17,"VECTORSTUDYU1","MI","VECTORSTUDYU1-P0403","","MISEQ","71","","8"]]}}}}