{"creationDateTime":"2023-08-01T10:34:34","datasetJSONVersion":"1.0.0","fileOID":"www.cdisc.org/StudyMSGv2/1/Define-XML_2.0.0/2023-08-01/se","originator":"CDISC SEND Team","sourceSystem":"Sponsor System","sourceSystemVersion":"1.0","clinicalData":{"studyOID":"VECTORSTUDYU1.SEND-IG.3.1","metaDataVersionOID":"MDV.VECTORSTUDYU1.SEND-IG.3.1","metaDataRef":"https://metadata.location.org/TDF_SEND_SENDIG31/define.xml","itemGroupData":{"IG.SE":{"records":18,"name":"SE","label":"SUBJECT ELEMENTS","items":[{"OID":"ITEMGROUPDATASEQ","name":"ITEMGROUPDATASEQ","label":"Record Identifier","type":"integer"},{"OID":"IT.SE.STUDYID","name":"STUDYID","label":"Study Identifier","type":"string","length":13,"keySequence":1},{"OID":"IT.SE.DOMAIN","name":"DOMAIN","label":"Domain Abbreviation","type":"string","length":2,"displayFormat":"$2"},{"OID":"IT.SE.USUBJID","name":"USUBJID","label":"Unique Subject Identifier","type":"string","length":19,"keySequence":2},{"OID":"IT.SE.SESEQ","name":"SESEQ","label":"Sequence Number","type":"integer","length":8},{"OID":"IT.SE.ETCD","name":"ETCD","label":"Element Code","type":"string","length":5,"keySequence":3},{"OID":"IT.SE.ELEMENT","name":"ELEMENT","label":"Description of Element","type":"string","length":20},{"OID":"IT.SE.SESTDTC","name":"SESTDTC","label":"Start Date/Time of Element","type":"string","keySequence":4},{"OID":"IT.SE.SEENDTC","name":"SEENDTC","label":"End Date/Time of Element","type":"string"},{"OID":"IT.SE.SEUPDES","name":"SEUPDES","label":"Description of Unplanned Element","type":"string","length":1}],"itemData":[[1,"VECTORSTUDYU1","SE","VECTORSTUDYU1-P0001",1,"ACCL","Acclimation","2018-06-06T00:00:00","2018-07-30T00:00:00",""],[2,"VECTORSTUDYU1","SE","VECTORSTUDYU1-P0001",2,"TRT01","1E13 vg/kg, Vector A","2018-07-30T00:00:00","2018-07-30T00:00:00",""],[3,"VECTORSTUDYU1","SE","VECTORSTUDYU1-P0001",3,"OBS","Postdose Observation","2018-07-31T00:00:00","2019-01-14T00:00:00",""],[4,"VECTORSTUDYU1","SE","VECTORSTUDYU1-P0002",1,"ACCL","Acclimation","2018-06-06T00:00:00","2018-07-30T00:00:00",""],[5,"VECTORSTUDYU1","SE","VECTORSTUDYU1-P0002",2,"TRT01","1E13 vg/kg, Vector A","2018-07-30T00:00:00","2018-07-30T00:00:00",""],[6,"VECTORSTUDYU1","SE","VECTORSTUDYU1-P0002",3,"OBS","Postdose Observation","2018-07-31T00:00:00","2019-01-14T00:00:00",""],[7,"VECTORSTUDYU1","SE","VECTORSTUDYU1-P0003",1,"ACCL","Acclimation","2018-06-06T00:00:00","2018-07-30T00:00:00",""],[8,"VECTORSTUDYU1","SE","VECTORSTUDYU1-P0003",2,"TRT01","1E13 vg/kg, Vector A","2018-07-30T00:00:00","2018-07-30T00:00:00",""],[9,"VECTORSTUDYU1","SE","VECTORSTUDYU1-P0003",3,"OBS","Postdose Observation","2018-07-31T00:00:00","2019-01-14T00:00:00",""],[10,"VECTORSTUDYU1","SE","VECTORSTUDYU1-P0401",1,"ACCL","Acclimation","2018-06-06T00:00:00","2018-07-30T00:00:00",""],[11,"VECTORSTUDYU1","SE","VECTORSTUDYU1-P0401",2,"TRT02","1E13 vg/kg, Vector B","2018-07-30T00:00:00","2018-07-30T00:00:00",""],[12,"VECTORSTUDYU1","SE","VECTORSTUDYU1-P0401",3,"OBS","Postdose Observation","2018-07-31T00:00:00","2019-01-14T00:00:00",""],[13,"VECTORSTUDYU1","SE","VECTORSTUDYU1-P0402",1,"ACCL","Acclimation","2018-06-06T00:00:00","2018-07-30T00:00:00",""],[14,"VECTORSTUDYU1","SE","VECTORSTUDYU1-P0402",2,"TRT02","1E13 vg/kg, Vector B","2018-07-30T00:00:00","2018-07-30T00:00:00",""],[15,"VECTORSTUDYU1","SE","VECTORSTUDYU1-P0402",3,"OBS","Postdose Observation","2018-07-31T00:00:00","2019-01-14T00:00:00",""],[16,"VECTORSTUDYU1","SE","VECTORSTUDYU1-P0403",1,"ACCL","Acclimation","2018-06-06T00:00:00","2018-07-30T00:00:00",""],[17,"VECTORSTUDYU1","SE","VECTORSTUDYU1-P0403",2,"TRT02","1E13 vg/kg, Vector B","2018-07-30T00:00:00","2018-07-30T00:00:00",""],[18,"VECTORSTUDYU1","SE","VECTORSTUDYU1-P0403",3,"OBS","Postdose Observation","2018-07-31T00:00:00","2019-01-14T00:00:00",""]]}}}}