{"creationDateTime":"2023-08-01T10:34:34","datasetJSONVersion":"1.0.0","fileOID":"www.cdisc.org/StudyMSGv2/1/Define-XML_2.0.0/2023-08-01/suppma","originator":"CDISC SEND Team","sourceSystem":"Sponsor System","sourceSystemVersion":"1.0","clinicalData":{"studyOID":"VECTORSTUDYU1.SEND-IG.3.1","metaDataVersionOID":"MDV.VECTORSTUDYU1.SEND-IG.3.1","metaDataRef":"https://metadata.location.org/TDF_SEND_SENDIG31/define.xml","itemGroupData":{"IG.b120d09f-98ba-4ba9":{"records":7,"name":"SUPPMA","label":"SUPPLEMENTAL QUALIFIERS FOR MA","items":[{"OID":"ITEMGROUPDATASEQ","name":"ITEMGROUPDATASEQ","label":"Record Identifier","type":"integer"},{"OID":"IT.01c7ecae-a50d-4b17","name":"STUDYID","label":"Study Identifier","type":"string","length":13,"keySequence":1},{"OID":"IT.360a48ec-8a12-47c9","name":"RDOMAIN","label":"Related Domain Abbreviation","type":"string","length":2,"keySequence":2},{"OID":"IT.463df641-9ac0-4fac","name":"USUBJID","label":"Unique Subject Identifier","type":"string","length":19,"keySequence":3},{"OID":"IT.9344c444-a608-4902","name":"POOLID","label":"Pool Identifier","type":"string","length":1},{"OID":"IT.5befee50-b173-43b2","name":"IDVAR","label":"Identifying Variable","type":"string","length":5,"keySequence":4},{"OID":"IT.c88b962d-8a92-4dfb","name":"IDVARVAL","label":"Identifying Variable Value","type":"string","length":2,"keySequence":5},{"OID":"IT.58368d62-8334-46f9","name":"QNAM","label":"Qualifier Variable Name","type":"string","length":8},{"OID":"IT.b8fcc693-80e4-47fc","name":"QLABEL","label":"Qualifier Variable Label","type":"string","length":16},{"OID":"IT.057e6d5d-a83d-416b","name":"QVAL","label":"Data Value","type":"string","length":61},{"OID":"IT.0a7821f2-b8bb-4de3","name":"QORIG","label":"Origin","type":"string","length":9},{"OID":"IT.8368758c-bb1f-46a3","name":"QEVAL","label":"Evaluator","type":"string","length":1}],"itemData":[[1,"VECTORSTUDYU1","MA","VECTORSTUDYU1-P0002","","MASEQ","80","MARESMOD","Result Modifiers","tail, up to 10 mm2","COLLECTED",""],[2,"VECTORSTUDYU1","MA","VECTORSTUDYU1-P0003","","MASEQ","105","MARESMOD","Result Modifiers","ileocecal junction, up to 10 mm2","COLLECTED",""],[3,"VECTORSTUDYU1","MA","VECTORSTUDYU1-P0401","","MASEQ","140","MARESMOD","Result Modifiers","discoloration located on the ileocecal junction, up to 10 mm2","COLLECTED",""],[4,"VECTORSTUDYU1","MA","VECTORSTUDYU1-P0401","","MASEQ","141","MARESMOD","Result Modifiers","up to 10 mm2","COLLECTED",""],[5,"VECTORSTUDYU1","MA","VECTORSTUDYU1-P0401","","MASEQ","150","MARESMOD","Result Modifiers","up to 10 mm2","COLLECTED",""],[6,"VECTORSTUDYU1","MA","VECTORSTUDYU1-P0401","","MASEQ","170","MARESMOD","Result Modifiers","tail; single, linear","COLLECTED",""],[7,"VECTORSTUDYU1","MA","VECTORSTUDYU1-P0403","","MASEQ","264","MARESMOD","Result Modifiers","up to 10 mm2","COLLECTED",""]]}}}}