{"creationDateTime":"2023-08-01T10:34:35","datasetJSONVersion":"1.0.0","fileOID":"www.cdisc.org/StudyMSGv2/1/Define-XML_2.0.0/2023-08-01/suppmi","originator":"CDISC SEND Team","sourceSystem":"Sponsor System","sourceSystemVersion":"1.0","clinicalData":{"studyOID":"VECTORSTUDYU1.SEND-IG.3.1","metaDataVersionOID":"MDV.VECTORSTUDYU1.SEND-IG.3.1","metaDataRef":"https://metadata.location.org/TDF_SEND_SENDIG31/define.xml","itemGroupData":{"IG.9cc0571f-ad1c-4300":{"records":3,"name":"SUPPMI","label":"SUPPLEMENTAL QUALIFIERS FOR MI","items":[{"OID":"ITEMGROUPDATASEQ","name":"ITEMGROUPDATASEQ","label":"Record Identifier","type":"integer"},{"OID":"IT.e031e9a9-abd4-4dae","name":"STUDYID","label":"Study Identifier","type":"string","length":13,"keySequence":1},{"OID":"IT.99b5dc4b-bef2-46c9","name":"RDOMAIN","label":"Related Domain Abbreviation","type":"string","length":2,"keySequence":2},{"OID":"IT.19f119e2-805d-4216","name":"USUBJID","label":"Unique Subject Identifier","type":"string","length":19,"keySequence":3},{"OID":"IT.dfeaffa3-a831-4700","name":"POOLID","label":"Pool Identifier","type":"string","length":1},{"OID":"IT.6fc2191b-9b2d-402e","name":"IDVAR","label":"Identifying Variable","type":"string","length":5,"keySequence":4},{"OID":"IT.46fd4dd8-b9c3-4e81","name":"IDVARVAL","label":"Identifying Variable Value","type":"string","length":2,"keySequence":5},{"OID":"IT.e07244b5-8376-40c5","name":"QNAM","label":"Qualifier Variable Name","type":"string","length":8},{"OID":"IT.1d5ed7bb-b04b-415a","name":"QLABEL","label":"Qualifier Variable Label","type":"string","length":16},{"OID":"IT.0d230b4a-bc32-4c91","name":"QVAL","label":"Data Value","type":"string","length":15},{"OID":"IT.45a0f598-b38a-4f77","name":"QORIG","label":"Origin","type":"string","length":9},{"OID":"IT.d231acae-aaab-44f9","name":"QEVAL","label":"Evaluator","type":"string","length":1}],"itemData":[[1,"VECTORSTUDYU1","MI","VECTORSTUDYU1-P0401","","MISEQ","36","MIRESMOD","Result Modifiers","lymphoid tissue","COLLECTED"],[2,"VECTORSTUDYU1","MI","VECTORSTUDYU1-P0403","","MISEQ","70","MIRESMOD","Result Modifiers","epithelium","COLLECTED"],[3,"VECTORSTUDYU1","MI","VECTORSTUDYU1-P0403","","MISEQ","71","MIRESMOD","Result Modifiers","epithelium","COLLECTED"]]}}}}