<?xml version="1.0" encoding="UTF-8"?>
<?xml-stylesheet type="text/xsl" href="define2-0-0.xsl"?>
  <ODM
    xmlns="http://www.cdisc.org/ns/odm/v1.3"
    xmlns:def="http://www.cdisc.org/ns/def/v2.0"
    xmlns:xlink="http://www.w3.org/1999/xlink"
    ODMVersion="1.3.2"
    FileType="Snapshot"
    FileOID="Covance Laboratories/Study8326556-Define2-XML_2.0.0"
    CreationDateTime="2019-10-03T20:06:25"
    SourceSystem="Visual Define-XML Editor"
    SourceSystemVersion="1.0.0-beta.2">
    <Study OID="8326556">
      <GlobalVariables>
        <StudyName>8326556</StudyName>
        <StudyDescription>Characterization of Hepatitis B vaccine T-Cell Dependent Antibody Response in Cynomolgus Monkeys</StudyDescription>
        <ProtocolName>8326556</ProtocolName>
      </GlobalVariables>
      <MetaDataVersion

        OID="CDISC-SEND.3.1"

        Name="Study 8326556,Data Definitions"

        Description="Study 8326556,Data Definitions"

        def:DefineVersion="2.0.0"

        def:StandardName="SEND-IG"

        def:StandardVersion="3.1">
        <!-- ******************** -->
        <!-- Supporting Documents -->
        <!-- ******************** -->
        <def:SupplementalDoc>
          <def:DocumentRef leafID="L.nsdrg"/>
        </def:SupplementalDoc>
        <!-- *********************** -->
        <!-- Value List Definitions  -->
        <!-- *********************** -->
        <def:ValueListDef OID="VL.871e28ea-8467-4cf4">
          <ItemRef ItemOID="IT.d7154932-ba71-4edc" OrderNumber="1" Mandatory="No">
            <def:WhereClauseRef WhereClauseOID="WC.64155389-89a1-4cf4"/>
          </ItemRef>
          <ItemRef ItemOID="IT.a5fe98d3-9062-4b5f" OrderNumber="2" Mandatory="No">
            <def:WhereClauseRef WhereClauseOID="WC.2694280b-a48f-430e"/>
          </ItemRef>
        </def:ValueListDef>
        <def:ValueListDef OID="VL.SUPPBG.QVAL">
          <ItemRef ItemOID="IT.SUPPBG.QVAL.PHSNAME2" OrderNumber="1" Mandatory="No">
            <def:WhereClauseRef WhereClauseOID="WC.SUPPBG.QNAM.PHSNAME2"/>
          </ItemRef>
          <ItemRef ItemOID="IT.SUPPBG.QVAL.PHSEDAY2" OrderNumber="2" Mandatory="No">
            <def:WhereClauseRef WhereClauseOID="WC.SUPPBG.QNAM.PHSEDAY2"/>
          </ItemRef>
        </def:ValueListDef>
        <def:ValueListDef OID="VL.SUPPBW.QVAL">
          <ItemRef ItemOID="IT.SUPPBW.QVAL.PHSENAME" OrderNumber="1" Mandatory="No">
            <def:WhereClauseRef WhereClauseOID="WC.SUPPBW.QNAM.PHSENAME"/>
          </ItemRef>
          <ItemRef ItemOID="IT.SUPPBW.QVAL.PHASEDAY" OrderNumber="2" Mandatory="No">
            <def:WhereClauseRef WhereClauseOID="WC.SUPPBW.QNAM.PHASEDAY"/>
          </ItemRef>
        </def:ValueListDef>
        <def:ValueListDef OID="VL.SUPPCL.QVAL">
          <ItemRef ItemOID="IT.SUPPCL.QVAL.PHSENAME" OrderNumber="1" Mandatory="No">
            <def:WhereClauseRef WhereClauseOID="WC.SUPPCL.QNAM.PHSENAME"/>
          </ItemRef>
          <ItemRef ItemOID="IT.SUPPCL.QVAL.PHASEDAY" OrderNumber="2" Mandatory="No">
            <def:WhereClauseRef WhereClauseOID="WC.SUPPCL.QNAM.PHASEDAY"/>
          </ItemRef>
        </def:ValueListDef>
        <def:ValueListDef OID="VL.SUPPDS.QVAL">
          <ItemRef ItemOID="IT.SUPPDS.QVAL.PHSENAME" OrderNumber="1" Mandatory="No">
            <def:WhereClauseRef WhereClauseOID="WC.SUPPDS.QNAM.PHSENAME"/>
          </ItemRef>
          <ItemRef ItemOID="IT.SUPPDS.QVAL.PHASEDAY" OrderNumber="2" Mandatory="No">
            <def:WhereClauseRef WhereClauseOID="WC.SUPPDS.QNAM.PHASEDAY"/>
          </ItemRef>
        </def:ValueListDef>
        <def:ValueListDef OID="VL.SUPPLB.QVAL">
          <ItemRef ItemOID="IT.SUPPLB.QVAL.PHSENAME" OrderNumber="1" Mandatory="No">
            <def:WhereClauseRef WhereClauseOID="WC.SUPPLB.QNAM.PHSENAME"/>
          </ItemRef>
          <ItemRef ItemOID="IT.SUPPLB.QVAL.PHASEDAY" OrderNumber="2" Mandatory="No">
            <def:WhereClauseRef WhereClauseOID="WC.SUPPLB.QNAM.PHASEDAY"/>
          </ItemRef>
        </def:ValueListDef>
        <def:ValueListDef OID="VL.TS.TSVAL">
          <ItemRef ItemOID="IT.TS.TSVAL.STITLE" OrderNumber="1" Mandatory="Yes">
            <def:WhereClauseRef WhereClauseOID="WC.TS.TSPARMCD.STITLE"/>
          </ItemRef>
          <ItemRef ItemOID="IT.TS.TSVAL.TRT" OrderNumber="2" Mandatory="Yes">
            <def:WhereClauseRef WhereClauseOID="WC.TS.TSPARMCD.TRT"/>
          </ItemRef>
          <ItemRef ItemOID="IT.TS.TSVAL.AGEU" OrderNumber="3" Mandatory="Yes">
            <def:WhereClauseRef WhereClauseOID="WC.TS.TSPARMCD.AGEU"/>
          </ItemRef>
          <ItemRef ItemOID="IT.TS.TSVAL.SDESIGN" OrderNumber="4" Mandatory="Yes">
            <def:WhereClauseRef WhereClauseOID="WC.TS.TSPARMCD.SDESIGN"/>
          </ItemRef>
          <ItemRef ItemOID="IT.TS.TSVAL.ROUTE" OrderNumber="5" Mandatory="Yes">
            <def:WhereClauseRef WhereClauseOID="WC.TS.TSPARMCD.ROUTE"/>
          </ItemRef>
          <ItemRef ItemOID="IT.TS.TSVAL.SNDIGVER" OrderNumber="6" Mandatory="Yes">
            <def:WhereClauseRef WhereClauseOID="WC.TS.TSPARMCD.SNDIGVER"/>
          </ItemRef>
          <ItemRef ItemOID="IT.TS.TSVAL.SPECIES" OrderNumber="7" Mandatory="Yes">
            <def:WhereClauseRef WhereClauseOID="WC.TS.TSPARMCD.SPECIES"/>
          </ItemRef>
          <ItemRef ItemOID="IT.TS.TSVAL.SSTYP" OrderNumber="8" Mandatory="Yes">
            <def:WhereClauseRef WhereClauseOID="WC.TS.TSPARMCD.SSTYP"/>
          </ItemRef>
          <ItemRef ItemOID="IT.TS.TSVAL.STCAT" OrderNumber="9" Mandatory="Yes">
            <def:WhereClauseRef WhereClauseOID="WC.TS.TSPARMCD.STCAT"/>
          </ItemRef>
          <ItemRef ItemOID="IT.TS.TSVAL.STRAIN" OrderNumber="10" Mandatory="Yes">
            <def:WhereClauseRef WhereClauseOID="WC.TS.TSPARMCD.STRAIN"/>
          </ItemRef>
          <ItemRef ItemOID="IT.TS.TSVAL.TFCNTRY" OrderNumber="11" Mandatory="No">
            <def:WhereClauseRef WhereClauseOID="WC.TS.TSPARMCD.TFCNTRY"/>
          </ItemRef>
          <ItemRef ItemOID="IT.TS.TSVAL.SEXPOP" OrderNumber="12" Mandatory="No">
            <def:WhereClauseRef WhereClauseOID="WC.TS.TSPARMCD.SEXPOP"/>
          </ItemRef>
        </def:ValueListDef>
        <def:ValueListDef OID="VL.TX.TXVAL">
          <ItemRef ItemOID="IT.TX.TXVAL.SPGRPCD" OrderNumber="1" Mandatory="Yes">
            <def:WhereClauseRef WhereClauseOID="WC.TX.TXPARMCD.SPGRPCD"/>
          </ItemRef>
          <ItemRef ItemOID="IT.TX.TXVAL.GRPLBL" OrderNumber="2" Mandatory="Yes">
            <def:WhereClauseRef WhereClauseOID="WC.TX.TXPARMCD.GRPLBL"/>
          </ItemRef>
        </def:ValueListDef>
        <!-- *********************** -->
        <!-- WhereClause Definitions -->
        <!-- *********************** -->
        <def:WhereClauseDef OID="WC.2694280b-a48f-430e">
          <RangeCheck Comparator="EQ" SoftHard="Soft" def:ItemOID="IT.bfb4fc85-b376-424e">
            <CheckValue>PHASEDAY</CheckValue>
          </RangeCheck>
        </def:WhereClauseDef>
        <def:WhereClauseDef OID="WC.64155389-89a1-4cf4">
          <RangeCheck Comparator="EQ" SoftHard="Soft" def:ItemOID="IT.bfb4fc85-b376-424e">
            <CheckValue>PHSENAME</CheckValue>
          </RangeCheck>
        </def:WhereClauseDef>
        <def:WhereClauseDef OID="WC.SUPPBG.QNAM.PHSEDAY2">
          <RangeCheck Comparator="EQ" SoftHard="Soft" def:ItemOID="IT.SUPPBG.QNAM">
            <CheckValue>PHSEDAY2</CheckValue>
          </RangeCheck>
        </def:WhereClauseDef>
        <def:WhereClauseDef OID="WC.SUPPBG.QNAM.PHSNAME2">
          <RangeCheck Comparator="EQ" SoftHard="Soft" def:ItemOID="IT.SUPPBG.QNAM">
            <CheckValue>PHSNAME2</CheckValue>
          </RangeCheck>
        </def:WhereClauseDef>
        <def:WhereClauseDef OID="WC.SUPPBW.QNAM.PHASEDAY">
          <RangeCheck Comparator="EQ" SoftHard="Soft" def:ItemOID="IT.SUPPBW.QNAM">
            <CheckValue>PHASEDAY</CheckValue>
          </RangeCheck>
        </def:WhereClauseDef>
        <def:WhereClauseDef OID="WC.SUPPBW.QNAM.PHSENAME">
          <RangeCheck Comparator="EQ" SoftHard="Soft" def:ItemOID="IT.SUPPBW.QNAM">
            <CheckValue>PHSENAME</CheckValue>
          </RangeCheck>
        </def:WhereClauseDef>
        <def:WhereClauseDef OID="WC.SUPPCL.QNAM.PHASEDAY">
          <RangeCheck Comparator="EQ" SoftHard="Soft" def:ItemOID="IT.SUPPCL.QNAM">
            <CheckValue>PHASEDAY</CheckValue>
          </RangeCheck>
        </def:WhereClauseDef>
        <def:WhereClauseDef OID="WC.SUPPCL.QNAM.PHSENAME">
          <RangeCheck Comparator="EQ" SoftHard="Soft" def:ItemOID="IT.SUPPCL.QNAM">
            <CheckValue>PHSENAME</CheckValue>
          </RangeCheck>
        </def:WhereClauseDef>
        <def:WhereClauseDef OID="WC.SUPPDS.QNAM.PHASEDAY">
          <RangeCheck Comparator="EQ" SoftHard="Soft" def:ItemOID="IT.SUPPDS.QNAM">
            <CheckValue>PHASEDAY</CheckValue>
          </RangeCheck>
        </def:WhereClauseDef>
        <def:WhereClauseDef OID="WC.SUPPDS.QNAM.PHSENAME">
          <RangeCheck Comparator="EQ" SoftHard="Soft" def:ItemOID="IT.SUPPDS.QNAM">
            <CheckValue>PHSENAME</CheckValue>
          </RangeCheck>
        </def:WhereClauseDef>
        <def:WhereClauseDef OID="WC.SUPPLB.QNAM.PHASEDAY">
          <RangeCheck Comparator="EQ" SoftHard="Soft" def:ItemOID="IT.SUPPLB.QNAM">
            <CheckValue>PHASEDAY</CheckValue>
          </RangeCheck>
        </def:WhereClauseDef>
        <def:WhereClauseDef OID="WC.SUPPLB.QNAM.PHSENAME">
          <RangeCheck Comparator="EQ" SoftHard="Soft" def:ItemOID="IT.SUPPLB.QNAM">
            <CheckValue>PHSENAME</CheckValue>
          </RangeCheck>
        </def:WhereClauseDef>
        <def:WhereClauseDef OID="WC.TS.TSPARMCD.AGEU">
          <RangeCheck Comparator="EQ" SoftHard="Soft" def:ItemOID="IT.TS.TSPARMCD">
            <CheckValue>AGEU</CheckValue>
          </RangeCheck>
        </def:WhereClauseDef>
        <def:WhereClauseDef OID="WC.TS.TSPARMCD.ROUTE">
          <RangeCheck Comparator="EQ" SoftHard="Soft" def:ItemOID="IT.TS.TSPARMCD">
            <CheckValue>ROUTE</CheckValue>
          </RangeCheck>
        </def:WhereClauseDef>
        <def:WhereClauseDef OID="WC.TS.TSPARMCD.SDESIGN">
          <RangeCheck Comparator="EQ" SoftHard="Soft" def:ItemOID="IT.TS.TSPARMCD">
            <CheckValue>SDESIGN</CheckValue>
          </RangeCheck>
        </def:WhereClauseDef>
        <def:WhereClauseDef OID="WC.TS.TSPARMCD.SEXPOP">
          <RangeCheck Comparator="EQ" SoftHard="Soft" def:ItemOID="IT.TS.TSPARMCD">
            <CheckValue>SEXPOP</CheckValue>
          </RangeCheck>
        </def:WhereClauseDef>
        <def:WhereClauseDef OID="WC.TS.TSPARMCD.SNDIGVER">
          <RangeCheck Comparator="EQ" SoftHard="Soft" def:ItemOID="IT.TS.TSPARMCD">
            <CheckValue>SNDIGVER</CheckValue>
          </RangeCheck>
        </def:WhereClauseDef>
        <def:WhereClauseDef OID="WC.TS.TSPARMCD.SPECIES">
          <RangeCheck Comparator="EQ" SoftHard="Soft" def:ItemOID="IT.TS.TSPARMCD">
            <CheckValue>SPECIES</CheckValue>
          </RangeCheck>
        </def:WhereClauseDef>
        <def:WhereClauseDef OID="WC.TS.TSPARMCD.SSTYP">
          <RangeCheck Comparator="EQ" SoftHard="Soft" def:ItemOID="IT.TS.TSPARMCD">
            <CheckValue>SSTYP</CheckValue>
          </RangeCheck>
        </def:WhereClauseDef>
        <def:WhereClauseDef OID="WC.TS.TSPARMCD.STCAT">
          <RangeCheck Comparator="EQ" SoftHard="Soft" def:ItemOID="IT.TS.TSPARMCD">
            <CheckValue>STCAT</CheckValue>
          </RangeCheck>
        </def:WhereClauseDef>
        <def:WhereClauseDef OID="WC.TS.TSPARMCD.STITLE">
          <RangeCheck Comparator="EQ" SoftHard="Soft" def:ItemOID="IT.TS.TSPARMCD">
            <CheckValue>STITLE</CheckValue>
          </RangeCheck>
        </def:WhereClauseDef>
        <def:WhereClauseDef OID="WC.TS.TSPARMCD.STRAIN">
          <RangeCheck Comparator="EQ" SoftHard="Soft" def:ItemOID="IT.TS.TSPARMCD">
            <CheckValue>STRAIN</CheckValue>
          </RangeCheck>
        </def:WhereClauseDef>
        <def:WhereClauseDef OID="WC.TS.TSPARMCD.TFCNTRY">
          <RangeCheck Comparator="EQ" SoftHard="Soft" def:ItemOID="IT.TS.TSPARMCD">
            <CheckValue>TFCNTRY</CheckValue>
          </RangeCheck>
        </def:WhereClauseDef>
        <def:WhereClauseDef OID="WC.TS.TSPARMCD.TRT">
          <RangeCheck Comparator="EQ" SoftHard="Soft" def:ItemOID="IT.TS.TSPARMCD">
            <CheckValue>TRT</CheckValue>
          </RangeCheck>
        </def:WhereClauseDef>
        <def:WhereClauseDef OID="WC.TX.TXPARMCD.GRPLBL">
          <RangeCheck Comparator="EQ" SoftHard="Soft" def:ItemOID="IT.TX.TXPARMCD">
            <CheckValue>GRPLBL</CheckValue>
          </RangeCheck>
        </def:WhereClauseDef>
        <def:WhereClauseDef OID="WC.TX.TXPARMCD.SPGRPCD">
          <RangeCheck Comparator="EQ" SoftHard="Soft" def:ItemOID="IT.TX.TXPARMCD">
            <CheckValue>SPGRPCD</CheckValue>
          </RangeCheck>
        </def:WhereClauseDef>
        <!-- ********************* -->
        <!-- ItemGroup Definitions -->
        <!-- ********************* -->
        <ItemGroupDef
          OID="IG.CO"
          Name="CO"
          Repeating="No"
          IsReferenceData="No"
          SASDatasetName="CO"
          Domain="CO"
          Purpose="Tabulation"
          def:Structure="One record per comment"
          def:Class="SPECIAL PURPOSE"
          def:ArchiveLocationID="Location.CO">
          <Description>
            <TranslatedText xml:lang="en">Comments</TranslatedText>
          </Description>
          <ItemRef ItemOID="IT.CO.STUDYID" OrderNumber="1" Mandatory="Yes" KeySequence="1" Role="Identifier"/>
          <ItemRef ItemOID="IT.CO.DOMAIN" OrderNumber="2" Mandatory="Yes" Role="Identifier"/>
          <ItemRef ItemOID="IT.CO.RDOMAIN" OrderNumber="3" Mandatory="No" KeySequence="2" Role="Record Qualifier"/>
          <ItemRef ItemOID="IT.CO.USUBJID" OrderNumber="4" Mandatory="No" KeySequence="3" Role="Identifier"/>
          <ItemRef ItemOID="IT.CO.COSEQ" OrderNumber="5" Mandatory="Yes" Role="Identifier"/>
          <ItemRef ItemOID="IT.CO.IDVAR" OrderNumber="6" Mandatory="No" KeySequence="4" Role="Record Qualifier"/>
          <ItemRef ItemOID="IT.CO.IDVARVAL" OrderNumber="7" Mandatory="No" KeySequence="5" Role="Record Qualifier"/>
          <ItemRef ItemOID="IT.CO.COVAL" OrderNumber="8" Mandatory="Yes" Role="Topic"/>
          <ItemRef ItemOID="IT.CO.CODTC" OrderNumber="9" Mandatory="No" KeySequence="6" Role="Timing"/>
          <ItemRef ItemOID="IT.CO.CODY" OrderNumber="10" Mandatory="No" MethodOID="MT.5df06289-8457-4ce2" Role="Timing"/>
          <def:leaf ID="Location.CO" xlink:href="co.xpt">
            <def:title>co.xpt</def:title>
          </def:leaf>
        </ItemGroupDef>
        <ItemGroupDef
          OID="IG.DM"
          Name="DM"
          Repeating="No"
          IsReferenceData="No"
          SASDatasetName="DM"
          Domain="DM"
          Purpose="Tabulation"
          def:Structure="One record per subject"
          def:Class="SPECIAL PURPOSE"
          def:ArchiveLocationID="Location.DM">
          <Description>
            <TranslatedText xml:lang="en">Demographics</TranslatedText>
          </Description>
          <ItemRef ItemOID="IT.DM.STUDYID" OrderNumber="1" Mandatory="Yes" KeySequence="1" Role="Identifier"/>
          <ItemRef ItemOID="IT.DM.DOMAIN" OrderNumber="2" Mandatory="Yes" Role="Identifier"/>
          <ItemRef ItemOID="IT.DM.USUBJID" OrderNumber="3" Mandatory="Yes" KeySequence="2" Role="Identifier"/>
          <ItemRef ItemOID="IT.DM.SUBJID" OrderNumber="4" Mandatory="Yes" Role="Topic"/>
          <ItemRef ItemOID="IT.DM.RFSTDTC" OrderNumber="5" Mandatory="Yes" Role="Record Qualifier"/>
          <ItemRef ItemOID="IT.DM.RFENDTC" OrderNumber="6" Mandatory="No" Role="Record Qualifier"/>
          <ItemRef ItemOID="IT.DM.RFXSTDTC" OrderNumber="7" Mandatory="No" Role="Record Qualifier"/>
          <ItemRef ItemOID="IT.DM.RFXENDTC" OrderNumber="8" Mandatory="No" Role="Record Qualifier"/>
          <ItemRef ItemOID="IT.DM.AGETXT" OrderNumber="9" Mandatory="No" Role="Record Qualifier"/>
          <ItemRef ItemOID="IT.DM.AGEU" OrderNumber="10" Mandatory="No" Role="Variable Qualifier"/>
          <ItemRef ItemOID="IT.DM.SEX" OrderNumber="11" Mandatory="Yes" Role="Record Qualifier"/>
          <ItemRef ItemOID="IT.DM.ARMCD" OrderNumber="12" Mandatory="No" Role="Record Qualifier"/>
          <ItemRef ItemOID="IT.DM.ARM" OrderNumber="13" Mandatory="No" Role="Synonym Qualifier"/>
          <ItemRef ItemOID="IT.DM.SETCD" OrderNumber="14" Mandatory="Yes" Role="Record Qualifier"/>
          <def:leaf ID="Location.DM" xlink:href="dm.xpt">
            <def:title>dm.xpt</def:title>
          </def:leaf>
        </ItemGroupDef>
        <ItemGroupDef
          OID="IG.SE"
          Name="SE"
          Repeating="No"
          IsReferenceData="Yes"
          SASDatasetName="SE"
          Domain="SE"
          Purpose="Tabulation"
          def:Structure="One record per element experienced per subject"
          def:Class="SPECIAL PURPOSE"
          def:ArchiveLocationID="Location.SE">
          <Description>
            <TranslatedText xml:lang="en">Subject Elements</TranslatedText>
          </Description>
          <ItemRef ItemOID="IT.SE.STUDYID" OrderNumber="1" Mandatory="Yes" KeySequence="1" Role="Identifier"/>
          <ItemRef ItemOID="IT.SE.DOMAIN" OrderNumber="2" Mandatory="Yes" Role="Identifier"/>
          <ItemRef ItemOID="IT.SE.USUBJID" OrderNumber="3" Mandatory="Yes" KeySequence="2" Role="Identifier"/>
          <ItemRef ItemOID="IT.SE.SESEQ" OrderNumber="4" Mandatory="Yes" Role="Identifier"/>
          <ItemRef ItemOID="IT.SE.ETCD" OrderNumber="5" Mandatory="Yes" KeySequence="3" Role="Topic"/>
          <ItemRef ItemOID="IT.SE.ELEMENT" OrderNumber="6" Mandatory="No" Role="Synonym Qualifier"/>
          <ItemRef ItemOID="IT.SE.SESTDTC" OrderNumber="7" Mandatory="Yes" KeySequence="4" Role="Timing"/>
          <ItemRef ItemOID="IT.SE.SEENDTC" OrderNumber="8" Mandatory="No" Role="Timing"/>
          <def:leaf ID="Location.SE" xlink:href="se.xpt">
            <def:title>se.xpt</def:title>
          </def:leaf>
        </ItemGroupDef>
        <ItemGroupDef
          OID="IG.EX"
          Name="EX"
          Repeating="Yes"
          IsReferenceData="No"
          SASDatasetName="EX"
          Domain="EX"
          Purpose="Tabulation"
          def:Structure="One record per constant dosing interval per treatment per subject or pool"
          def:Class="INTERVENTIONS"
          def:ArchiveLocationID="Location.EX">
          <Description>
            <TranslatedText xml:lang="en">Exposure</TranslatedText>
          </Description>
          <ItemRef ItemOID="IT.EX.STUDYID" OrderNumber="1" Mandatory="Yes" KeySequence="1" Role="Identifier"/>
          <ItemRef ItemOID="IT.EX.DOMAIN" OrderNumber="2" Mandatory="Yes" Role="Identifier"/>
          <ItemRef ItemOID="IT.EX.USUBJID" OrderNumber="3" Mandatory="No" KeySequence="2" Role="Identifier"/>
          <ItemRef ItemOID="IT.EX.EXSEQ" OrderNumber="4" Mandatory="Yes" Role="Identifier"/>
          <ItemRef ItemOID="IT.EX.EXTRT" OrderNumber="5" Mandatory="Yes" KeySequence="3" Role="Topic"/>
          <ItemRef ItemOID="IT.EX.EXDOSE" OrderNumber="6" Mandatory="No" Role="Record Qualifier"/>
          <ItemRef ItemOID="IT.EX.EXDOSU" OrderNumber="7" Mandatory="No" Role="Variable Qualifier"/>
          <ItemRef ItemOID="IT.EX.EXDOSFRM" OrderNumber="8" Mandatory="No" Role="Variable Qualifier"/>
          <ItemRef ItemOID="IT.EX.EXDOSFRQ" OrderNumber="9" Mandatory="Yes" Role="Variable Qualifier"/>
          <ItemRef ItemOID="IT.EX.EXROUTE" OrderNumber="10" Mandatory="Yes" Role="Variable Qualifier"/>
          <ItemRef ItemOID="IT.EX.EXLOT" OrderNumber="11" Mandatory="No" Role="Record Qualifier"/>
          <ItemRef ItemOID="IT.EX.EXTRTV" OrderNumber="12" Mandatory="No" Role="Record Qualifier"/>
          <ItemRef ItemOID="IT.EX.EXSTDTC" OrderNumber="13" Mandatory="No" KeySequence="4" Role="Timing"/>
          <ItemRef ItemOID="IT.EX.EXSTDY" OrderNumber="14" Mandatory="No" MethodOID="MT.5df06289-8457-4ce2" Role="Timing"/>
          <def:leaf ID="Location.EX" xlink:href="ex.xpt">
            <def:title>ex.xpt</def:title>
          </def:leaf>
        </ItemGroupDef>
        <ItemGroupDef
          OID="IG.DS"
          Name="DS"
          Repeating="No"
          IsReferenceData="No"
          SASDatasetName="DS"
          Domain="DS"
          Purpose="Tabulation"
          def:Structure="One record per subject"
          def:Class="EVENTS"
          def:ArchiveLocationID="Location.DS">
          <Description>
            <TranslatedText xml:lang="en">Disposition</TranslatedText>
          </Description>
          <ItemRef ItemOID="IT.DS.STUDYID" OrderNumber="1" Mandatory="Yes" KeySequence="1" Role="Identifier"/>
          <ItemRef ItemOID="IT.DS.DOMAIN" OrderNumber="2" Mandatory="Yes" Role="Identifier"/>
          <ItemRef ItemOID="IT.DS.USUBJID" OrderNumber="3" Mandatory="Yes" KeySequence="2" Role="Identifier"/>
          <ItemRef ItemOID="IT.DS.DSSEQ" OrderNumber="4" Mandatory="Yes" Role="Identifier"/>
          <ItemRef ItemOID="IT.DS.DSTERM" OrderNumber="5" Mandatory="Yes" Role="Topic"/>
          <ItemRef ItemOID="IT.DS.DSDECOD" OrderNumber="6" Mandatory="Yes" Role="Synonym Qualifier"/>
          <ItemRef ItemOID="IT.DS.DSUSCHFL" OrderNumber="7" Mandatory="No" Role="Record Qualifier"/>
          <ItemRef ItemOID="IT.DS.VISITDY" OrderNumber="8" Mandatory="No" MethodOID="MT.198dd982-83df-4c2f" Role="Timing"/>
          <ItemRef ItemOID="IT.DS.DSSTDTC" OrderNumber="9" Mandatory="Yes" Role="Timing"/>
          <ItemRef ItemOID="IT.DS.DSSTDY" OrderNumber="10" Mandatory="No" MethodOID="MT.5df06289-8457-4ce2" Role="Timing"/>
          <ItemRef ItemOID="IT.DS.DSNOMDY" OrderNumber="11" Mandatory="No" MethodOID="MT.cbb773ad-9a50-463e" Role="Timing"/>
          <def:leaf ID="Location.DS" xlink:href="ds.xpt">
            <def:title>ds.xpt</def:title>
          </def:leaf>
        </ItemGroupDef>
        <ItemGroupDef
          OID="IG.BW"
          Name="BW"
          Repeating="Yes"
          IsReferenceData="No"
          SASDatasetName="BW"
          Domain="BW"
          Purpose="Tabulation"
          def:Structure="One record per test per observation time per subject"
          def:Class="FINDINGS"
          def:ArchiveLocationID="Location.BW">
          <Description>
            <TranslatedText xml:lang="en">Body Weight</TranslatedText>
          </Description>
          <ItemRef ItemOID="IT.BW.STUDYID" OrderNumber="1" Mandatory="Yes" KeySequence="1" Role="Identifier"/>
          <ItemRef ItemOID="IT.BW.DOMAIN" OrderNumber="2" Mandatory="Yes" Role="Identifier"/>
          <ItemRef ItemOID="IT.BW.USUBJID" OrderNumber="3" Mandatory="Yes" KeySequence="2" Role="Identifier"/>
          <ItemRef ItemOID="IT.BW.BWSEQ" OrderNumber="4" Mandatory="Yes" Role="Identifier"/>
          <ItemRef ItemOID="IT.BW.BWTESTCD" OrderNumber="5" Mandatory="Yes" KeySequence="3" Role="Topic"/>
          <ItemRef ItemOID="IT.BW.BWTEST" OrderNumber="6" Mandatory="Yes" Role="Synonym Qualifier"/>
          <ItemRef ItemOID="IT.BW.BWORRES" OrderNumber="7" Mandatory="No" Role="Result Qualifier"/>
          <ItemRef ItemOID="IT.BW.BWORRESU" OrderNumber="8" Mandatory="No" Role="Variable Qualifier"/>
          <ItemRef ItemOID="IT.BW.BWSTRESC" OrderNumber="9" Mandatory="No" Role="Result Qualifier"/>
          <ItemRef ItemOID="IT.BW.BWSTRESN" OrderNumber="10" Mandatory="No" Role="Result Qualifier"/>
          <ItemRef ItemOID="IT.BW.BWSTRESU" OrderNumber="11" Mandatory="No" Role="Variable Qualifier"/>
          <ItemRef ItemOID="IT.BW.BWBLFL" OrderNumber="12" Mandatory="No" Role="Record Qualifier"/>
          <ItemRef ItemOID="IT.BW.VISITDY" OrderNumber="13" Mandatory="No" MethodOID="MT.cbb773ad-9a50-463e" Role="Timing"/>
          <ItemRef ItemOID="IT.BW.BWDTC" OrderNumber="14" Mandatory="No" KeySequence="4" Role="Timing"/>
          <ItemRef ItemOID="IT.BW.BWDY" OrderNumber="15" Mandatory="No" MethodOID="MT.5df06289-8457-4ce2" Role="Timing"/>
          <ItemRef ItemOID="IT.BW.BWNOMDY" OrderNumber="16" Mandatory="No" MethodOID="MT.cbb773ad-9a50-463e" Role="Timing"/>
          <ItemRef ItemOID="IT.BW.BWNOMLBL" OrderNumber="17" Mandatory="No" MethodOID="MT.8c39d4b3-9f3b-4e22" Role="Timing"/>
          <def:leaf ID="Location.BW" xlink:href="bw.xpt">
            <def:title>bw.xpt</def:title>
          </def:leaf>
        </ItemGroupDef>
        <ItemGroupDef
          OID="IG.BG"
          Name="BG"
          Repeating="Yes"
          IsReferenceData="No"
          SASDatasetName="BG"
          Domain="BG"
          Purpose="Tabulation"
          def:Structure="One record per test per interval per subject"
          def:Class="FINDINGS"
          def:ArchiveLocationID="Location.BG">
          <Description>
            <TranslatedText xml:lang="en">Body Weight Gains</TranslatedText>
          </Description>
          <ItemRef ItemOID="IT.BG.STUDYID" OrderNumber="1" Mandatory="Yes" KeySequence="1" Role="Identifier"/>
          <ItemRef ItemOID="IT.BG.DOMAIN" OrderNumber="2" Mandatory="Yes" Role="Identifier"/>
          <ItemRef ItemOID="IT.BG.USUBJID" OrderNumber="3" Mandatory="Yes" KeySequence="2" Role="Identifier"/>
          <ItemRef ItemOID="IT.BG.BGSEQ" OrderNumber="4" Mandatory="Yes" Role="Identifier"/>
          <ItemRef ItemOID="IT.BG.BGTESTCD" OrderNumber="5" Mandatory="Yes" KeySequence="3" Role="Topic"/>
          <ItemRef ItemOID="IT.BG.BGTEST" OrderNumber="6" Mandatory="Yes" Role="Synonym Qualifier"/>
          <ItemRef ItemOID="IT.BG.BGORRES" OrderNumber="7" Mandatory="No" Role="Result Qualifier"/>
          <ItemRef ItemOID="IT.BG.BGORRESU" OrderNumber="8" Mandatory="No" Role="Variable Qualifier"/>
          <ItemRef ItemOID="IT.BG.BGSTRESC" OrderNumber="9" Mandatory="No" Role="Result Qualifier"/>
          <ItemRef ItemOID="IT.BG.BGSTRESN" OrderNumber="10" Mandatory="No" Role="Result Qualifier"/>
          <ItemRef ItemOID="IT.BG.BGSTRESU" OrderNumber="11" Mandatory="No" Role="Variable Qualifier"/>
          <ItemRef ItemOID="IT.BG.BGDTC" OrderNumber="12" Mandatory="No" KeySequence="4" Role="Timing"/>
          <ItemRef ItemOID="IT.BG.BGENDTC" OrderNumber="13" Mandatory="No" KeySequence="5" Role="Timing"/>
          <ItemRef ItemOID="IT.BG.BGDY" OrderNumber="14" Mandatory="No" MethodOID="MT.5df06289-8457-4ce2" Role="Timing"/>
          <ItemRef ItemOID="IT.BG.BGENDY" OrderNumber="15" Mandatory="No" MethodOID="MT.55d89e07-ae3d-4af3" Role="Timing"/>
          <def:leaf ID="Location.BG" xlink:href="bg.xpt">
            <def:title>bg.xpt</def:title>
          </def:leaf>
        </ItemGroupDef>
        <ItemGroupDef
          OID="IG.CL"
          Name="CL"
          Repeating="Yes"
          IsReferenceData="No"
          SASDatasetName="CL"
          Domain="CL"
          Purpose="Tabulation"
          def:Structure="One record per finding per observation time per subject"
          def:Class="FINDINGS"
          def:ArchiveLocationID="Location.CL">
          <Description>
            <TranslatedText xml:lang="en">Clinical Observations</TranslatedText>
          </Description>
          <ItemRef ItemOID="IT.CL.STUDYID" OrderNumber="1" Mandatory="Yes" KeySequence="1" Role="Identifier"/>
          <ItemRef ItemOID="IT.CL.DOMAIN" OrderNumber="2" Mandatory="Yes" Role="Identifier"/>
          <ItemRef ItemOID="IT.CL.USUBJID" OrderNumber="3" Mandatory="No" KeySequence="2" Role="Identifier"/>
          <ItemRef ItemOID="IT.CL.CLSEQ" OrderNumber="4" Mandatory="Yes" Role="Identifier"/>
          <ItemRef ItemOID="IT.CL.CLGRPID" OrderNumber="5" Mandatory="No" Role="Identifier"/>
          <ItemRef ItemOID="IT.CL.CLTESTCD" OrderNumber="6" Mandatory="Yes" KeySequence="3" Role="Topic"/>
          <ItemRef ItemOID="IT.CL.CLTEST" OrderNumber="7" Mandatory="Yes" Role="Synonym Qualifier"/>
          <ItemRef ItemOID="IT.CL.CLCAT" OrderNumber="8" Mandatory="Yes" KeySequence="4" Role="Grouping Qualifier"/>
          <ItemRef ItemOID="IT.CL.CLSCAT" OrderNumber="9" Mandatory="No" KeySequence="8" Role="Grouping Qualifier"/>
          <ItemRef ItemOID="IT.CL.CLORRES" OrderNumber="10" Mandatory="No" KeySequence="5" Role="Result Qualifier"/>
          <ItemRef ItemOID="IT.CL.CLSTRESC" OrderNumber="11" Mandatory="No" Role="Result Qualifier"/>
          <ItemRef ItemOID="IT.CL.CLLOC" OrderNumber="12" Mandatory="No" KeySequence="6" Role="Record Qualifier"/>
          <ItemRef ItemOID="IT.CL.VISITDY" OrderNumber="13" Mandatory="No" MethodOID="MT.198dd982-83df-4c2f" Role="Timing"/>
          <ItemRef ItemOID="IT.CL.CLDTC" OrderNumber="14" Mandatory="No" KeySequence="7" Role="Timing"/>
          <ItemRef ItemOID="IT.CL.CLDY" OrderNumber="15" Mandatory="No" MethodOID="MT.5df06289-8457-4ce2" Role="Timing"/>
          <ItemRef ItemOID="IT.CL.CLNOMDY" OrderNumber="16" Mandatory="No" MethodOID="MT.cbb773ad-9a50-463e" Role="Timing"/>
          <ItemRef ItemOID="IT.CL.CLNOMLBL" OrderNumber="17" Mandatory="No" MethodOID="MT.8c39d4b3-9f3b-4e22" Role="Timing"/>
          <ItemRef ItemOID="IT.CL.CLTPT" OrderNumber="18" Mandatory="No" Role="Timing"/>
          <ItemRef ItemOID="IT.CL.CLTPTNUM" OrderNumber="19" Mandatory="No" KeySequence="9" Role="Timing"/>
          <def:leaf ID="Location.CL" xlink:href="cl.xpt">
            <def:title>cl.xpt</def:title>
          </def:leaf>
        </ItemGroupDef>
        <ItemGroupDef
          OID="IG.LB"
          Name="LB"
          Repeating="Yes"
          IsReferenceData="No"
          SASDatasetName="LB"
          Domain="LB"
          Purpose="Tabulation"
          def:Structure="One record per test per specimen per observation time per subject or pool"
          def:Class="FINDINGS"
          def:ArchiveLocationID="Location.LB">
          <Description>
            <TranslatedText xml:lang="en">Laboratory</TranslatedText>
          </Description>
          <ItemRef ItemOID="IT.LB.STUDYID" OrderNumber="1" Mandatory="Yes" KeySequence="1" Role="Identifier"/>
          <ItemRef ItemOID="IT.LB.DOMAIN" OrderNumber="2" Mandatory="Yes" Role="Identifier"/>
          <ItemRef ItemOID="IT.LB.USUBJID" OrderNumber="3" Mandatory="No" KeySequence="2" Role="Identifier"/>
          <ItemRef ItemOID="IT.LB.LBSEQ" OrderNumber="4" Mandatory="Yes" Role="Identifier"/>
          <ItemRef ItemOID="IT.LB.LBGRPID" OrderNumber="5" Mandatory="No" Role="Identifier"/>
          <ItemRef ItemOID="IT.LB.LBREFID" OrderNumber="6" Mandatory="No" Role="Identifier"/>
          <ItemRef ItemOID="IT.LB.LBTESTCD" OrderNumber="7" Mandatory="Yes" KeySequence="3" Role="Topic"/>
          <ItemRef ItemOID="IT.LB.LBTEST" OrderNumber="8" Mandatory="Yes" Role="Synonym Qualifier"/>
          <ItemRef ItemOID="IT.LB.LBCAT" OrderNumber="9" Mandatory="No" KeySequence="7" Role="Grouping Qualifier"/>
          <ItemRef ItemOID="IT.LB.LBORRES" OrderNumber="10" Mandatory="No" Role="Result Qualifier"/>
          <ItemRef ItemOID="IT.LB.LBORRESU" OrderNumber="11" Mandatory="No" Role="Variable Qualifier"/>
          <ItemRef ItemOID="IT.LB.LBSTRESC" OrderNumber="12" Mandatory="No" Role="Result Qualifier"/>
          <ItemRef ItemOID="IT.LB.LBSTRESN" OrderNumber="13" Mandatory="No" Role="Result Qualifier"/>
          <ItemRef ItemOID="IT.LB.LBSTRESU" OrderNumber="14" Mandatory="No" Role="Variable Qualifier"/>
          <ItemRef ItemOID="IT.LB.LBSPEC" OrderNumber="15" Mandatory="No" KeySequence="4" Role="Record Qualifier"/>
          <ItemRef ItemOID="IT.LB.LBSPCCND" OrderNumber="16" Mandatory="No" Role="Record Qualifier"/>
          <ItemRef ItemOID="IT.LB.LBLOC" OrderNumber="17" Mandatory="No" Role="Record Qualifier"/>
          <ItemRef ItemOID="IT.LB.LBMETHOD" OrderNumber="18" Mandatory="No" KeySequence="8" Role="Record Qualifier"/>
          <ItemRef ItemOID="IT.LB.LBBLFL" OrderNumber="19" Mandatory="No" Role="Record Qualifier"/>
          <ItemRef ItemOID="IT.LB.LBUSCHFL" OrderNumber="20" Mandatory="No" Role="Record Qualifier"/>
          <ItemRef ItemOID="IT.LB.VISITDY" OrderNumber="21" Mandatory="No" MethodOID="MT.198dd982-83df-4c2f" Role="Timing"/>
          <ItemRef ItemOID="IT.LB.LBDTC" OrderNumber="22" Mandatory="No" KeySequence="5" Role="Timing"/>
          <ItemRef ItemOID="IT.LB.LBDY" OrderNumber="23" Mandatory="No" MethodOID="MT.5df06289-8457-4ce2" Role="Timing"/>
          <ItemRef ItemOID="IT.LB.LBNOMDY" OrderNumber="24" Mandatory="No" MethodOID="MT.cbb773ad-9a50-463e" Role="Timing"/>
          <ItemRef ItemOID="IT.LB.LBNOMLBL" OrderNumber="25" Mandatory="No" MethodOID="MT.8c39d4b3-9f3b-4e22" Role="Timing"/>
          <ItemRef ItemOID="IT.LB.LBTPT" OrderNumber="26" Mandatory="No" KeySequence="9" Role="Timing"/>
          <ItemRef ItemOID="IT.LB.LBTPTNUM" OrderNumber="27" Mandatory="No" KeySequence="6" Role="Timing"/>
          <def:leaf ID="Location.LB" xlink:href="lb.xpt">
            <def:title>lb.xpt</def:title>
          </def:leaf>
        </ItemGroupDef>
        <ItemGroupDef
          OID="IG.TA"
          Name="TA"
          Repeating="No"
          IsReferenceData="Yes"
          SASDatasetName="TA"
          Domain="TA"
          Purpose="Tabulation"
          def:Structure="One record per planned Element per Arm"
          def:Class="TRIAL DESIGN"
          def:ArchiveLocationID="Location.TA">
          <Description>
            <TranslatedText xml:lang="en">Trial Arms</TranslatedText>
          </Description>
          <ItemRef ItemOID="IT.TA.STUDYID" OrderNumber="1" Mandatory="Yes" KeySequence="1" Role="Identifier"/>
          <ItemRef ItemOID="IT.TA.DOMAIN" OrderNumber="2" Mandatory="Yes" Role="Identifier"/>
          <ItemRef ItemOID="IT.TA.ARMCD" OrderNumber="3" Mandatory="Yes" KeySequence="2" Role="Topic"/>
          <ItemRef ItemOID="IT.TA.ARM" OrderNumber="4" Mandatory="Yes" Role="Synonym Qualifier"/>
          <ItemRef ItemOID="IT.TA.TAETORD" OrderNumber="5" Mandatory="Yes" KeySequence="3" Role="Timing"/>
          <ItemRef ItemOID="IT.TA.ETCD" OrderNumber="6" Mandatory="Yes" Role="Record Qualifier"/>
          <ItemRef ItemOID="IT.TA.ELEMENT" OrderNumber="7" Mandatory="No" Role="Synonym Qualifier"/>
          <ItemRef ItemOID="IT.TA.EPOCH" OrderNumber="8" Mandatory="No" Role="Timing"/>
          <def:leaf ID="Location.TA" xlink:href="ta.xpt">
            <def:title>ta.xpt</def:title>
          </def:leaf>
        </ItemGroupDef>
        <ItemGroupDef
          OID="IG.TE"
          Name="TE"
          Repeating="No"
          IsReferenceData="Yes"
          SASDatasetName="TE"
          Domain="TE"
          Purpose="Tabulation"
          def:Structure="One record per planned Element"
          def:Class="TRIAL DESIGN"
          def:ArchiveLocationID="Location.TE">
          <Description>
            <TranslatedText xml:lang="en">Trial Elements</TranslatedText>
          </Description>
          <ItemRef ItemOID="IT.TE.STUDYID" OrderNumber="1" Mandatory="Yes" KeySequence="1" Role="Identifier"/>
          <ItemRef ItemOID="IT.TE.DOMAIN" OrderNumber="2" Mandatory="Yes" Role="Identifier"/>
          <ItemRef ItemOID="IT.TE.ETCD" OrderNumber="3" Mandatory="Yes" KeySequence="2" Role="Topic"/>
          <ItemRef ItemOID="IT.TE.ELEMENT" OrderNumber="4" Mandatory="Yes" Role="Synonym Qualifier"/>
          <ItemRef ItemOID="IT.TE.TESTRL" OrderNumber="5" Mandatory="Yes" Role="Rule"/>
          <ItemRef ItemOID="IT.TE.TEENRL" OrderNumber="6" Mandatory="No" Role="Rule"/>
          <ItemRef ItemOID="IT.TE.TEDUR" OrderNumber="7" Mandatory="No" Role="Timing"/>
          <def:leaf ID="Location.TE" xlink:href="te.xpt">
            <def:title>te.xpt</def:title>
          </def:leaf>
        </ItemGroupDef>
        <ItemGroupDef
          OID="IG.TX"
          Name="TX"
          Repeating="No"
          IsReferenceData="Yes"
          SASDatasetName="TX"
          Domain="TX"
          Purpose="Tabulation"
          def:Structure="One record per Trial Set parameter per Trial Set"
          def:Class="TRIAL DESIGN"
          def:ArchiveLocationID="Location.TX">
          <Description>
            <TranslatedText xml:lang="en">Trial Sets</TranslatedText>
          </Description>
          <ItemRef ItemOID="IT.TX.STUDYID" OrderNumber="1" Mandatory="Yes" KeySequence="1" Role="Identifier"/>
          <ItemRef ItemOID="IT.TX.DOMAIN" OrderNumber="2" Mandatory="Yes" Role="Identifier"/>
          <ItemRef ItemOID="IT.TX.SETCD" OrderNumber="3" Mandatory="Yes" KeySequence="2" Role="Identifier"/>
          <ItemRef ItemOID="IT.TX.SET" OrderNumber="4" Mandatory="Yes" Role="Synonym Qualifier"/>
          <ItemRef ItemOID="IT.TX.TXSEQ" OrderNumber="5" Mandatory="Yes" Role="Identifier"/>
          <ItemRef ItemOID="IT.TX.TXPARMCD" OrderNumber="6" Mandatory="Yes" KeySequence="3" Role="Topic"/>
          <ItemRef ItemOID="IT.TX.TXPARM" OrderNumber="7" Mandatory="Yes" Role="Synonym Qualifier"/>
          <ItemRef ItemOID="IT.TX.TXVAL" OrderNumber="8" Mandatory="Yes" Role="Result Qualifier"/>
          <def:leaf ID="Location.TX" xlink:href="tx.xpt">
            <def:title>tx.xpt</def:title>
          </def:leaf>
        </ItemGroupDef>
        <ItemGroupDef
          OID="IG.TS"
          Name="TS"
          Repeating="No"
          IsReferenceData="Yes"
          SASDatasetName="TS"
          Domain="TS"
          Purpose="Tabulation"
          def:Structure="One record per Trial Summary parameter value"
          def:Class="TRIAL DESIGN"
          def:ArchiveLocationID="Location.TS">
          <Description>
            <TranslatedText xml:lang="en">Trial Summary</TranslatedText>
          </Description>
          <ItemRef ItemOID="IT.TS.STUDYID" OrderNumber="1" Mandatory="Yes" KeySequence="1" Role="Identifier"/>
          <ItemRef ItemOID="IT.TS.DOMAIN" OrderNumber="2" Mandatory="Yes" Role="Identifier"/>
          <ItemRef ItemOID="IT.TS.TSSEQ" OrderNumber="3" Mandatory="Yes" Role="Identifier"/>
          <ItemRef ItemOID="IT.TS.TSGRPID" OrderNumber="4" Mandatory="No" KeySequence="3" Role="Identifier"/>
          <ItemRef ItemOID="IT.TS.TSPARMCD" OrderNumber="5" Mandatory="Yes" KeySequence="2" Role="Topic"/>
          <ItemRef ItemOID="IT.TS.TSPARM" OrderNumber="6" Mandatory="Yes" Role="Synonym Qualifier"/>
          <ItemRef ItemOID="IT.TS.TSVAL" OrderNumber="7" Mandatory="No" Role="Result Qualifier"/>
          <ItemRef ItemOID="IT.TS.TSVALNF" OrderNumber="8" Mandatory="No" Role="Record Qualifier"/>
          <def:leaf ID="Location.TS" xlink:href="ts.xpt">
            <def:title>ts.xpt</def:title>
          </def:leaf>
        </ItemGroupDef>
        <ItemGroupDef
          OID="IG.SUPPBW"
          Name="SUPPBW"
          Repeating="Yes"
          IsReferenceData="No"
          SASDatasetName="SUPPBW"
          Domain="BW"
          Purpose="Tabulation"
          def:Structure="One record per supplemental qualifier per related parent domain record(s)"
          def:Class="RELATIONSHIP"
          def:ArchiveLocationID="Location.SUPPBW">
          <Description>
            <TranslatedText xml:lang="en">Supplemental Body Weight</TranslatedText>
          </Description>
          <ItemRef ItemOID="IT.SUPPBW.STUDYID" OrderNumber="1" Mandatory="Yes" KeySequence="1" Role="Identifier"/>
          <ItemRef ItemOID="IT.SUPPBW.RDOMAIN" OrderNumber="2" Mandatory="Yes" KeySequence="2" Role="Identifier"/>
          <ItemRef ItemOID="IT.SUPPBW.USUBJID" OrderNumber="3" Mandatory="No" KeySequence="3" Role="Identifier"/>
          <ItemRef ItemOID="IT.SUPPBW.IDVAR" OrderNumber="4" Mandatory="No" KeySequence="4" Role="Record Qualifier"/>
          <ItemRef ItemOID="IT.SUPPBW.IDVARVAL" OrderNumber="5" Mandatory="No" KeySequence="5" Role="Record Qualifier"/>
          <ItemRef ItemOID="IT.SUPPBW.QNAM" OrderNumber="6" Mandatory="Yes" KeySequence="6" Role="Identifier"/>
          <ItemRef ItemOID="IT.SUPPBW.QLABEL" OrderNumber="7" Mandatory="Yes" Role="Identifier"/>
          <ItemRef ItemOID="IT.SUPPBW.QVAL" OrderNumber="8" Mandatory="Yes" Role="Record Qualifier"/>
          <ItemRef ItemOID="IT.SUPPBW.QORIG" OrderNumber="9" Mandatory="No" Role="Record Qualifier"/>
          <def:leaf ID="Location.SUPPBW" xlink:href="suppbw.xpt">
            <def:title>suppbw.xpt</def:title>
          </def:leaf>
        </ItemGroupDef>
        <ItemGroupDef
          OID="IG.SUPPBG"
          Name="SUPPBG"
          Repeating="Yes"
          IsReferenceData="No"
          SASDatasetName="SUPPBG"
          Domain="BG"
          Purpose="Tabulation"
          def:Structure="One record per supplemental qualifier per related parent domain record(s)"
          def:Class="RELATIONSHIP"
          def:ArchiveLocationID="Location.SUPPBG">
          <Description>
            <TranslatedText xml:lang="en">Supplemental Body Weight Gain</TranslatedText>
          </Description>
          <ItemRef ItemOID="IT.SUPPBG.STUDYID" OrderNumber="1" Mandatory="Yes" KeySequence="1" Role="Identifier"/>
          <ItemRef ItemOID="IT.SUPPBG.RDOMAIN" OrderNumber="2" Mandatory="Yes" KeySequence="2" Role="Identifier"/>
          <ItemRef ItemOID="IT.SUPPBG.USUBJID" OrderNumber="3" Mandatory="No" KeySequence="3" Role="Identifier"/>
          <ItemRef ItemOID="IT.SUPPBG.IDVAR" OrderNumber="4" Mandatory="No" KeySequence="4" Role="Record Qualifier"/>
          <ItemRef ItemOID="IT.SUPPBG.IDVARVAL" OrderNumber="5" Mandatory="No" KeySequence="5" Role="Record Qualifier"/>
          <ItemRef ItemOID="IT.SUPPBG.QNAM" OrderNumber="6" Mandatory="Yes" KeySequence="6" Role="Identifier"/>
          <ItemRef ItemOID="IT.SUPPBG.QLABEL" OrderNumber="7" Mandatory="Yes" Role="Identifier"/>
          <ItemRef ItemOID="IT.SUPPBG.QVAL" OrderNumber="8" Mandatory="Yes" Role="Record Qualifier"/>
          <ItemRef ItemOID="IT.SUPPBG.QORIG" OrderNumber="9" Mandatory="No" Role="Record Qualifier"/>
          <def:leaf ID="Location.SUPPBG" xlink:href="suppbg.xpt">
            <def:title>suppbg.xpt</def:title>
          </def:leaf>
        </ItemGroupDef>
        <ItemGroupDef
          OID="IG.SUPPCL"
          Name="SUPPCL"
          Repeating="Yes"
          IsReferenceData="No"
          SASDatasetName="SUPPCL"
          Domain="CL"
          Purpose="Tabulation"
          def:Structure="One record per supplemental qualifier per related parent domain record(s)"
          def:Class="RELATIONSHIP"
          def:ArchiveLocationID="Location.SUPPCL">
          <Description>
            <TranslatedText xml:lang="en">Supplemental Clinical Observations</TranslatedText>
          </Description>
          <ItemRef ItemOID="IT.SUPPCL.STUDYID" OrderNumber="1" Mandatory="Yes" KeySequence="1" Role="Identifier"/>
          <ItemRef ItemOID="IT.SUPPCL.RDOMAIN" OrderNumber="2" Mandatory="Yes" KeySequence="2" Role="Identifier"/>
          <ItemRef ItemOID="IT.SUPPCL.USUBJID" OrderNumber="3" Mandatory="No" KeySequence="3" Role="Identifier"/>
          <ItemRef ItemOID="IT.SUPPCL.IDVAR" OrderNumber="4" Mandatory="No" KeySequence="4" Role="Record Qualifier"/>
          <ItemRef ItemOID="IT.SUPPCL.IDVARVAL" OrderNumber="5" Mandatory="No" KeySequence="5" Role="Record Qualifier"/>
          <ItemRef ItemOID="IT.SUPPCL.QNAM" OrderNumber="6" Mandatory="Yes" KeySequence="6" Role="Identifier"/>
          <ItemRef ItemOID="IT.SUPPCL.QLABEL" OrderNumber="7" Mandatory="Yes" Role="Identifier"/>
          <ItemRef ItemOID="IT.SUPPCL.QVAL" OrderNumber="8" Mandatory="Yes" Role="Record Qualifier"/>
          <ItemRef ItemOID="IT.SUPPCL.QORIG" OrderNumber="9" Mandatory="No" Role="Record Qualifier"/>
          <def:leaf ID="Location.SUPPCL" xlink:href="suppcl.xpt">
            <def:title>suppcl.xpt</def:title>
          </def:leaf>
        </ItemGroupDef>
        <ItemGroupDef
          OID="IG.SUPPDS"
          Name="SUPPDS"
          Repeating="No"
          IsReferenceData="No"
          SASDatasetName="SUPPDS"
          Domain="DS"
          Purpose="Tabulation"
          def:Structure="One record per supplemental qualifier per related parent domain record(s)"
          def:Class="RELATIONSHIP"
          def:ArchiveLocationID="Location.SUPPDS">
          <Description>
            <TranslatedText xml:lang="en">Supplemental Disposition</TranslatedText>
          </Description>
          <ItemRef ItemOID="IT.SUPPDS.STUDYID" OrderNumber="1" Mandatory="Yes" KeySequence="1" Role="Identifier"/>
          <ItemRef ItemOID="IT.SUPPDS.RDOMAIN" OrderNumber="2" Mandatory="Yes" KeySequence="2" Role="Identifier"/>
          <ItemRef ItemOID="IT.SUPPDS.USUBJID" OrderNumber="3" Mandatory="No" KeySequence="3" Role="Identifier"/>
          <ItemRef ItemOID="IT.SUPPDS.IDVAR" OrderNumber="4" Mandatory="No" KeySequence="4" Role="Record Qualifier"/>
          <ItemRef ItemOID="IT.SUPPDS.IDVARVAL" OrderNumber="5" Mandatory="No" KeySequence="5" Role="Record Qualifier"/>
          <ItemRef ItemOID="IT.SUPPDS.QNAM" OrderNumber="6" Mandatory="Yes" KeySequence="6" Role="Identifier"/>
          <ItemRef ItemOID="IT.SUPPDS.QLABEL" OrderNumber="7" Mandatory="Yes" Role="Identifier"/>
          <ItemRef ItemOID="IT.SUPPDS.QVAL" OrderNumber="8" Mandatory="Yes" Role="Record Qualifier"/>
          <ItemRef ItemOID="IT.SUPPDS.QORIG" OrderNumber="9" Mandatory="No" Role="Record Qualifier"/>
          <def:leaf ID="Location.SUPPDS" xlink:href="suppds.xpt">
            <def:title>suppds.xpt</def:title>
          </def:leaf>
        </ItemGroupDef>
        <ItemGroupDef
          OID="IG.SUPPLB"
          Name="SUPPLB"
          Repeating="Yes"
          IsReferenceData="No"
          SASDatasetName="SUPPLB"
          Domain="LB"
          Purpose="Tabulation"
          def:Structure="One record per supplemental qualifier per related parent domain record(s)"
          def:Class="RELATIONSHIP"
          def:ArchiveLocationID="Location.SUPPLB">
          <Description>
            <TranslatedText xml:lang="en">Supplemental Laboratory Test Results</TranslatedText>
          </Description>
          <ItemRef ItemOID="IT.SUPPLB.STUDYID" OrderNumber="1" Mandatory="Yes" KeySequence="1" Role="Identifier"/>
          <ItemRef ItemOID="IT.SUPPLB.RDOMAIN" OrderNumber="2" Mandatory="Yes" KeySequence="2" Role="Identifier"/>
          <ItemRef ItemOID="IT.SUPPLB.USUBJID" OrderNumber="3" Mandatory="No" KeySequence="3" Role="Identifier"/>
          <ItemRef ItemOID="IT.SUPPLB.IDVAR" OrderNumber="4" Mandatory="No" KeySequence="4" Role="Record Qualifier"/>
          <ItemRef ItemOID="IT.SUPPLB.IDVARVAL" OrderNumber="5" Mandatory="No" KeySequence="5" Role="Record Qualifier"/>
          <ItemRef ItemOID="IT.SUPPLB.QNAM" OrderNumber="6" Mandatory="Yes" KeySequence="6" Role="Identifier"/>
          <ItemRef ItemOID="IT.SUPPLB.QLABEL" OrderNumber="7" Mandatory="Yes" Role="Identifier"/>
          <ItemRef ItemOID="IT.SUPPLB.QVAL" OrderNumber="8" Mandatory="Yes" Role="Record Qualifier"/>
          <ItemRef ItemOID="IT.SUPPLB.QORIG" OrderNumber="9" Mandatory="No" Role="Record Qualifier"/>
          <def:leaf ID="Location.SUPPLB" xlink:href="supplb.xpt">
            <def:title>supplb.xpt</def:title>
          </def:leaf>
        </ItemGroupDef>
        <ItemGroupDef
          OID="IG.8d086f3d-854e-4e50"
          Name="IS"
          Repeating="Yes"
          SASDatasetName="IS"
          Domain="IS"
          Purpose="Tabulation"
          def:Structure="One record per test per specimen per observation time per subject or pool"
          def:Class="FINDINGS"
          def:ArchiveLocationID="LF.IS">
          <Description>
            <TranslatedText xml:lang="en">Immunogenicity Specimen Assessments</TranslatedText>
          </Description>
          <ItemRef ItemOID="IT.15cee1a5-8cff-4a7a" OrderNumber="1" Mandatory="Yes" KeySequence="1" Role="Identifier"/>
          <ItemRef ItemOID="IT.0c98cb6b-8b3f-4034" OrderNumber="2" Mandatory="Yes" Role="Identifier"/>
          <ItemRef ItemOID="IT.cd75dada-a378-4f77" OrderNumber="3" Mandatory="No" KeySequence="2" Role="Identifier"/>
          <ItemRef ItemOID="IT.cbd1625e-8cd5-498f" OrderNumber="4" Mandatory="Yes" Role="Identifier"/>
          <ItemRef ItemOID="IT.39ded562-a2b9-4838" OrderNumber="5" Mandatory="Yes" KeySequence="3" Role="Topic"/>
          <ItemRef ItemOID="IT.040d34e3-88cf-43ab" OrderNumber="6" Mandatory="Yes" Role="Synonym Qualifier"/>
          <ItemRef ItemOID="IT.73b62958-9ea2-4973" OrderNumber="7" Mandatory="No" Role="Grouping Qualifier"/>
          <ItemRef ItemOID="IT.1a5a0a85-9bcb-4fc2" OrderNumber="8" Mandatory="No" Role="Result Qualifier"/>
          <ItemRef ItemOID="IT.e3bde74c-9d92-40c9" OrderNumber="9" Mandatory="No" Role="Variable Qualifier"/>
          <ItemRef ItemOID="IT.3aef2728-a896-49f6" OrderNumber="10" Mandatory="No" Role="Result Qualifier"/>
          <ItemRef ItemOID="IT.99360fa4-a3ea-4b62" OrderNumber="11" Mandatory="No" Role="Result Qualifier"/>
          <ItemRef ItemOID="IT.46b8e75f-ab82-4570" OrderNumber="12" Mandatory="No" Role="Variable Qualifier"/>
          <ItemRef ItemOID="IT.a18dd54c-a3c0-40f2" OrderNumber="13" Mandatory="No" Role="Record Qualifier"/>
          <ItemRef ItemOID="IT.cf62f2a4-89c6-4ba5" OrderNumber="14" Mandatory="No" Role="Record Qualifier"/>
          <ItemRef ItemOID="IT.174ef05c-aa63-45a7" OrderNumber="15" Mandatory="No" Role="Record Qualifier"/>
          <ItemRef ItemOID="IT.c9011a24-8a9e-4d28" OrderNumber="16" Mandatory="No" MethodOID="MT.492f0579-b8b4-46d7" Role="Record Qualifier"/>
          <ItemRef ItemOID="IT.ec0cdd96-ae0d-45b8" OrderNumber="17" Mandatory="No"/>
          <ItemRef ItemOID="IT.dfba3bc2-8b0e-4e5b" OrderNumber="18" Mandatory="No"/>
          <ItemRef ItemOID="IT.9cdda736-ab09-4fb0" OrderNumber="19" Mandatory="No" Role="Record Qualifier"/>
          <ItemRef ItemOID="IT.1a244dec-96e1-41bd" OrderNumber="20" Mandatory="No" Role="Timing"/>
          <ItemRef ItemOID="IT.71fdb632-bc90-4756" OrderNumber="21" Mandatory="No" KeySequence="4" MethodOID="MT.5df06289-8457-4ce2" Role="Timing"/>
          <ItemRef ItemOID="IT.c6766d44-8996-44be" OrderNumber="22" Mandatory="No" MethodOID="MT.cbb773ad-9a50-463e" Role="Timing"/>
          <ItemRef ItemOID="IT.932d65d0-9535-48de" OrderNumber="23" Mandatory="No" MethodOID="MT.8c39d4b3-9f3b-4e22" Role="Timing"/>
          <def:leaf ID="LF.IS" xlink:href="is.xpt">
            <def:title>is.xpt</def:title>
          </def:leaf>
        </ItemGroupDef>
        <ItemGroupDef
          OID="IG.71c8c332-b176-474b"
          Name="SUPPIS"
          Repeating="Yes"
          SASDatasetName="SUPPIS"
          Domain="IS"
          Purpose="Tabulation"
          def:Structure="One record per supplemental qualifier per related parent domain record(s)"
          def:Class="RELATIONSHIP"
          def:ArchiveLocationID="LF.SUPPIS">
          <Description>
            <TranslatedText xml:lang="en">Supplemental Immunogenicity Specimen</TranslatedText>
          </Description>
          <ItemRef ItemOID="IT.72a7a54e-9c53-4d2c" OrderNumber="1" Mandatory="Yes" KeySequence="1" Role="Identifier"/>
          <ItemRef ItemOID="IT.52977f39-aff3-49cc" OrderNumber="2" Mandatory="Yes" KeySequence="2" Role="Identifier"/>
          <ItemRef ItemOID="IT.cc4c63b6-8d1a-404e" OrderNumber="3" Mandatory="No" KeySequence="3" Role="Identifier"/>
          <ItemRef ItemOID="IT.c113593a-90c0-49ed" OrderNumber="4" Mandatory="No" KeySequence="4" Role="Record Qualifier"/>
          <ItemRef ItemOID="IT.2b11089a-9180-49f2" OrderNumber="5" Mandatory="No" KeySequence="5" Role="Record Qualifier"/>
          <ItemRef ItemOID="IT.bfb4fc85-b376-424e" OrderNumber="6" Mandatory="Yes" Role="Identifier"/>
          <ItemRef ItemOID="IT.78c66954-a8e6-4e07" OrderNumber="7" Mandatory="Yes" Role="Identifier"/>
          <ItemRef ItemOID="IT.a7c4ce4e-aef6-460d" OrderNumber="8" Mandatory="Yes" Role="Record Qualifier"/>
          <ItemRef ItemOID="IT.0d30256e-a3b1-40c0" OrderNumber="9" Mandatory="No" Role="Record Qualifier"/>
          <def:leaf ID="LF.SUPPIS" xlink:href="suppis.xpt">
            <def:title>suppis.xpt</def:title>
          </def:leaf>
        </ItemGroupDef>
        <!-- ******************* -->
        <!-- ItemDef Definitions -->
        <!-- ******************* -->
        <ItemDef OID="IT.040d34e3-88cf-43ab" Name="ISTEST" DataType="text" Length="39" SASFieldName="LBTEST">
          <Description>
            <TranslatedText xml:lang="en">Immunogenicity Test or Examination Name</TranslatedText>
          </Description>
          <CodeListRef CodeListOID="CL.fe7e121a-b0cc-4796"/>
          <def:Origin Type="OTHER"/>
        </ItemDef>
        <ItemDef OID="IT.0c98cb6b-8b3f-4034" Name="DOMAIN" DataType="text" Length="2" SASFieldName="DOMAIN">
          <Description>
            <TranslatedText xml:lang="en">Domain Abbreviation</TranslatedText>
          </Description>
          <CodeListRef CodeListOID="SDOMAIN"/>
          <def:Origin Type="OTHER"/>
        </ItemDef>
        <ItemDef OID="IT.0d30256e-a3b1-40c0" Name="QORIG" DataType="text" Length="9" SASFieldName="QORIG">
          <Description>
            <TranslatedText xml:lang="en">Origin</TranslatedText>
          </Description>
          <def:Origin Type="OTHER"/>
        </ItemDef>
        <ItemDef OID="IT.15cee1a5-8cff-4a7a" Name="STUDYID" DataType="text" Length="7" SASFieldName="STUDYID">
          <Description>
            <TranslatedText xml:lang="en">Study Identifier</TranslatedText>
          </Description>
          <def:Origin Type="OTHER"/>
        </ItemDef>
        <ItemDef OID="IT.174ef05c-aa63-45a7" Name="ISMETHOD" DataType="text" Length="77" SASFieldName="LBMETHOD">
          <Description>
            <TranslatedText xml:lang="en">Method of Test or Examination</TranslatedText>
          </Description>
          <def:Origin Type="OTHER"/>
        </ItemDef>
        <ItemDef OID="IT.1a244dec-96e1-41bd" Name="ISDTC" DataType="datetime" SASFieldName="LBDTC">
          <Description>
            <TranslatedText xml:lang="en">Date/Time of Specimen Collection</TranslatedText>
          </Description>
          <def:Origin Type="COLLECTED"/>
        </ItemDef>
        <ItemDef OID="IT.1a5a0a85-9bcb-4fc2" Name="ISORRES" DataType="text" Length="8" SASFieldName="LBORRES">
          <Description>
            <TranslatedText xml:lang="en">Result or Findings as Collected</TranslatedText>
          </Description>
          <def:Origin Type="COLLECTED"/>
        </ItemDef>
        <ItemDef OID="IT.2b11089a-9180-49f2" Name="IDVARVAL" DataType="text" Length="2" SASFieldName="IDVARVAL">
          <Description>
            <TranslatedText xml:lang="en">Identifying Variable Value</TranslatedText>
          </Description>
          <def:Origin Type="OTHER"/>
        </ItemDef>
        <ItemDef OID="IT.39ded562-a2b9-4838" Name="ISTESTCD" DataType="text" Length="8" SASFieldName="LBTESTCD">
          <Description>
            <TranslatedText xml:lang="en">Immunogenicity Test/Exam Short Name</TranslatedText>
          </Description>
          <CodeListRef CodeListOID="CL.86d1da8a-8d6c-4216"/>
          <def:Origin Type="OTHER"/>
        </ItemDef>
        <ItemDef OID="IT.3aef2728-a896-49f6" Name="ISSTRESC" DataType="text" Length="8" SASFieldName="LBSTRESC">
          <Description>
            <TranslatedText xml:lang="en">Standardized Result in Character Format</TranslatedText>
          </Description>
          <def:Origin Type="COLLECTED"/>
        </ItemDef>
        <ItemDef OID="IT.46b8e75f-ab82-4570" Name="ISSTRESU" DataType="text" Length="7" SASFieldName="LBSTRESU">
          <Description>
            <TranslatedText xml:lang="en">Standard Units</TranslatedText>
          </Description>
          <CodeListRef CodeListOID="CL.d2fca64d-a119-4bce"/>
          <def:Origin Type="COLLECTED"/>
        </ItemDef>
        <ItemDef OID="IT.52977f39-aff3-49cc" Name="RDOMAIN" DataType="text" Length="2" SASFieldName="RDOMAIN">
          <Description>
            <TranslatedText xml:lang="en">Related Domain Abbreviation</TranslatedText>
          </Description>
          <CodeListRef CodeListOID="SDOMAIN"/>
          <def:Origin Type="OTHER"/>
        </ItemDef>
        <ItemDef OID="IT.71fdb632-bc90-4756" Name="ISDY" DataType="integer" Length="8" SASFieldName="LBDY">
          <Description>
            <TranslatedText xml:lang="en">Study Day of Specimen Collection</TranslatedText>
          </Description>
          <def:Origin Type="DERIVED"/>
        </ItemDef>
        <ItemDef OID="IT.72a7a54e-9c53-4d2c" Name="STUDYID" DataType="text" Length="7" SASFieldName="STUDYID">
          <Description>
            <TranslatedText xml:lang="en">Study Identifier</TranslatedText>
          </Description>
          <def:Origin Type="OTHER"/>
        </ItemDef>
        <ItemDef OID="IT.73b62958-9ea2-4973" Name="ISCAT" DataType="text" Length="26" SASFieldName="LBCAT">
          <Description>
            <TranslatedText xml:lang="en">Category for Immunogenicity Test</TranslatedText>
          </Description>
          <def:Origin Type="OTHER"/>
        </ItemDef>
        <ItemDef OID="IT.78c66954-a8e6-4e07" Name="QLABEL" DataType="text" Length="12" SASFieldName="QLABEL">
          <Description>
            <TranslatedText xml:lang="en">Qualifier Variable Label</TranslatedText>
          </Description>
          <def:Origin Type="OTHER"/>
        </ItemDef>
        <ItemDef OID="IT.932d65d0-9535-48de" Name="ISNOMLBL" DataType="text" Length="13" SASFieldName="LBNOMLBL">
          <Description>
            <TranslatedText xml:lang="en">Label for Nominal Study Day</TranslatedText>
          </Description>
          <def:Origin Type="DERIVED"/>
        </ItemDef>
        <ItemDef OID="IT.99360fa4-a3ea-4b62" Name="ISSTRESN" DataType="float" Length="8" SignificantDigits="3" SASFieldName="LBSTRESN">
          <Description>
            <TranslatedText xml:lang="en">Standardized Result in Numeric Format</TranslatedText>
          </Description>
          <def:Origin Type="COLLECTED"/>
        </ItemDef>
        <ItemDef OID="IT.9cdda736-ab09-4fb0" Name="ISUSCHFL" DataType="text" Length="1" SASFieldName="LBUSCHFL">
          <Description>
            <TranslatedText xml:lang="en">Unscheduled Flag</TranslatedText>
          </Description>
          <CodeListRef CodeListOID="NY"/>
          <def:Origin Type="OTHER"/>
        </ItemDef>
        <ItemDef OID="IT.BG.BGDTC" Name="BGDTC" DataType="datetime" SASFieldName="BGDTC">
          <Description>
            <TranslatedText xml:lang="en">Date/Time Animal Weighed</TranslatedText>
          </Description>
          <def:Origin Type="COLLECTED"/>
        </ItemDef>
        <ItemDef OID="IT.BG.BGDY" Name="BGDY" DataType="integer" Length="8" SASFieldName="BGDY">
          <Description>
            <TranslatedText xml:lang="en">Study Day of Start of Interval</TranslatedText>
          </Description>
          <def:Origin Type="DERIVED"/>
        </ItemDef>
        <ItemDef OID="IT.BG.BGENDTC" Name="BGENDTC" DataType="datetime" SASFieldName="BGENDTC">
          <Description>
            <TranslatedText xml:lang="en">End Date/Time Animal Weighed</TranslatedText>
          </Description>
          <def:Origin Type="COLLECTED"/>
        </ItemDef>
        <ItemDef OID="IT.BG.BGENDY" Name="BGENDY" DataType="integer" Length="8" SASFieldName="BGENDY">
          <Description>
            <TranslatedText xml:lang="en">Study Day of End of Weight Interval</TranslatedText>
          </Description>
          <def:Origin Type="DERIVED"/>
        </ItemDef>
        <ItemDef OID="IT.BG.BGORRES" Name="BGORRES" DataType="text" Length="4" SASFieldName="BGORRES">
          <Description>
            <TranslatedText xml:lang="en">Result or Findings as Collected</TranslatedText>
          </Description>
          <def:Origin Type="COLLECTED"/>
        </ItemDef>
        <ItemDef OID="IT.BG.BGORRESU" Name="BGORRESU" DataType="text" Length="2" SASFieldName="BGORRESU">
          <Description>
            <TranslatedText xml:lang="en">Unit of the Original Result</TranslatedText>
          </Description>
          <CodeListRef CodeListOID="UNIT"/>
          <def:Origin Type="COLLECTED"/>
        </ItemDef>
        <ItemDef OID="IT.BG.BGSEQ" Name="BGSEQ" DataType="integer" Length="8" SASFieldName="BGSEQ">
          <Description>
            <TranslatedText xml:lang="en">Sequence Number</TranslatedText>
          </Description>
          <def:Origin Type="OTHER"/>
        </ItemDef>
        <ItemDef OID="IT.BG.BGSTRESC" Name="BGSTRESC" DataType="text" Length="4" SASFieldName="BGSTRESC">
          <Description>
            <TranslatedText xml:lang="en">Standardized Result in Character Format</TranslatedText>
          </Description>
          <def:Origin Type="COLLECTED"/>
        </ItemDef>
        <ItemDef OID="IT.BG.BGSTRESN" Name="BGSTRESN" DataType="float" Length="8" SignificantDigits="1" SASFieldName="BGSTRESN">
          <Description>
            <TranslatedText xml:lang="en">Standardized Result in Numeric Format</TranslatedText>
          </Description>
          <def:Origin Type="COLLECTED"/>
        </ItemDef>
        <ItemDef OID="IT.BG.BGSTRESU" Name="BGSTRESU" DataType="text" Length="2" SASFieldName="BGSTRESU">
          <Description>
            <TranslatedText xml:lang="en">Unit of the Standardized Result</TranslatedText>
          </Description>
          <CodeListRef CodeListOID="UNIT"/>
          <def:Origin Type="COLLECTED"/>
        </ItemDef>
        <ItemDef OID="IT.BG.BGTEST" Name="BGTEST" DataType="text" Length="16" SASFieldName="BGTEST">
          <Description>
            <TranslatedText xml:lang="en">Test Name</TranslatedText>
          </Description>
          <CodeListRef CodeListOID="BGTEST"/>
          <def:Origin Type="OTHER"/>
        </ItemDef>
        <ItemDef OID="IT.BG.BGTESTCD" Name="BGTESTCD" DataType="text" Length="6" SASFieldName="BGTESTCD">
          <Description>
            <TranslatedText xml:lang="en">Test Short Name</TranslatedText>
          </Description>
          <CodeListRef CodeListOID="BGTESTCD"/>
          <def:Origin Type="OTHER"/>
        </ItemDef>
        <ItemDef OID="IT.BG.DOMAIN" Name="DOMAIN" DataType="text" Length="2" SASFieldName="DOMAIN">
          <Description>
            <TranslatedText xml:lang="en">Domain Abbreviation</TranslatedText>
          </Description>
          <CodeListRef CodeListOID="SDOMAIN"/>
          <def:Origin Type="OTHER"/>
        </ItemDef>
        <ItemDef OID="IT.BG.STUDYID" Name="STUDYID" DataType="text" Length="7" SASFieldName="STUDYID">
          <Description>
            <TranslatedText xml:lang="en">Study Identifier</TranslatedText>
          </Description>
          <def:Origin Type="OTHER"/>
        </ItemDef>
        <ItemDef OID="IT.BG.USUBJID" Name="USUBJID" DataType="text" Length="14" SASFieldName="USUBJID">
          <Description>
            <TranslatedText xml:lang="en">Unique Subject Identifier</TranslatedText>
          </Description>
          <def:Origin Type="OTHER"/>
        </ItemDef>
        <ItemDef OID="IT.BW.BWBLFL" Name="BWBLFL" DataType="text" Length="1" SASFieldName="BWBLFL">
          <Description>
            <TranslatedText xml:lang="en">Baseline Flag</TranslatedText>
          </Description>
          <CodeListRef CodeListOID="NY"/>
          <def:Origin Type="OTHER"/>
        </ItemDef>
        <ItemDef OID="IT.BW.BWDTC" Name="BWDTC" DataType="datetime" SASFieldName="BWDTC">
          <Description>
            <TranslatedText xml:lang="en">Date/Time Animal Weighed</TranslatedText>
          </Description>
          <def:Origin Type="COLLECTED"/>
        </ItemDef>
        <ItemDef OID="IT.BW.BWDY" Name="BWDY" DataType="integer" Length="8" SASFieldName="BWDY">
          <Description>
            <TranslatedText xml:lang="en">Study Day Animal Weighed</TranslatedText>
          </Description>
          <def:Origin Type="DERIVED"/>
        </ItemDef>
        <ItemDef OID="IT.BW.BWNOMDY" Name="BWNOMDY" DataType="integer" Length="8" SASFieldName="BWNOMDY">
          <Description>
            <TranslatedText xml:lang="en">Nominal Study Day for Tabulations</TranslatedText>
          </Description>
          <def:Origin Type="DERIVED"/>
        </ItemDef>
        <ItemDef OID="IT.BW.BWNOMLBL" Name="BWNOMLBL" DataType="text" Length="13" SASFieldName="BWNOMLBL">
          <Description>
            <TranslatedText xml:lang="en">Label for Nominal Study Day</TranslatedText>
          </Description>
          <def:Origin Type="DERIVED"/>
        </ItemDef>
        <ItemDef OID="IT.BW.BWORRES" Name="BWORRES" DataType="text" Length="3" SASFieldName="BWORRES">
          <Description>
            <TranslatedText xml:lang="en">Result or Findings as Collected</TranslatedText>
          </Description>
          <def:Origin Type="COLLECTED"/>
        </ItemDef>
        <ItemDef OID="IT.BW.BWORRESU" Name="BWORRESU" DataType="text" Length="2" SASFieldName="BWORRESU">
          <Description>
            <TranslatedText xml:lang="en">Unit of the Original Result</TranslatedText>
          </Description>
          <CodeListRef CodeListOID="UNIT"/>
          <def:Origin Type="COLLECTED"/>
        </ItemDef>
        <ItemDef OID="IT.BW.BWSEQ" Name="BWSEQ" DataType="integer" Length="8" SASFieldName="BWSEQ">
          <Description>
            <TranslatedText xml:lang="en">Sequence Number</TranslatedText>
          </Description>
          <def:Origin Type="OTHER"/>
        </ItemDef>
        <ItemDef OID="IT.BW.BWSTRESC" Name="BWSTRESC" DataType="text" Length="3" SASFieldName="BWSTRESC">
          <Description>
            <TranslatedText xml:lang="en">Standardized Result in Character Format</TranslatedText>
          </Description>
          <def:Origin Type="COLLECTED"/>
        </ItemDef>
        <ItemDef OID="IT.BW.BWSTRESN" Name="BWSTRESN" DataType="float" Length="8" SignificantDigits="1" SASFieldName="BWSTRESN">
          <Description>
            <TranslatedText xml:lang="en">Standardized Result in Numeric Format</TranslatedText>
          </Description>
          <def:Origin Type="COLLECTED"/>
        </ItemDef>
        <ItemDef OID="IT.BW.BWSTRESU" Name="BWSTRESU" DataType="text" Length="2" SASFieldName="BWSTRESU">
          <Description>
            <TranslatedText xml:lang="en">Unit of the Standardized Result</TranslatedText>
          </Description>
          <CodeListRef CodeListOID="UNIT"/>
          <def:Origin Type="COLLECTED"/>
        </ItemDef>
        <ItemDef OID="IT.BW.BWTEST" Name="BWTEST" DataType="text" Length="11" SASFieldName="BWTEST">
          <Description>
            <TranslatedText xml:lang="en">Test Name</TranslatedText>
          </Description>
          <CodeListRef CodeListOID="BWTEST"/>
          <def:Origin Type="OTHER"/>
        </ItemDef>
        <ItemDef OID="IT.BW.BWTESTCD" Name="BWTESTCD" DataType="text" Length="2" SASFieldName="BWTESTCD">
          <Description>
            <TranslatedText xml:lang="en">Test Short Name</TranslatedText>
          </Description>
          <CodeListRef CodeListOID="BWTESTCD"/>
          <def:Origin Type="OTHER"/>
        </ItemDef>
        <ItemDef OID="IT.BW.DOMAIN" Name="DOMAIN" DataType="text" Length="2" SASFieldName="DOMAIN">
          <Description>
            <TranslatedText xml:lang="en">Domain Abbreviation</TranslatedText>
          </Description>
          <CodeListRef CodeListOID="SDOMAIN"/>
          <def:Origin Type="OTHER"/>
        </ItemDef>
        <ItemDef OID="IT.BW.STUDYID" Name="STUDYID" DataType="text" Length="7" SASFieldName="STUDYID">
          <Description>
            <TranslatedText xml:lang="en">Study Identifier</TranslatedText>
          </Description>
          <def:Origin Type="OTHER"/>
        </ItemDef>
        <ItemDef OID="IT.BW.USUBJID" Name="USUBJID" DataType="text" Length="14" SASFieldName="USUBJID">
          <Description>
            <TranslatedText xml:lang="en">Unique Subject Identifier</TranslatedText>
          </Description>
          <def:Origin Type="OTHER"/>
        </ItemDef>
        <ItemDef OID="IT.BW.VISITDY" Name="VISITDY" DataType="integer" Length="8" SASFieldName="VISITDY">
          <Description>
            <TranslatedText xml:lang="en">Planned Study Day of Collection</TranslatedText>
          </Description>
          <def:Origin Type="DERIVED"/>
        </ItemDef>
        <ItemDef OID="IT.CL.CLCAT" Name="CLCAT" DataType="text" Length="14" SASFieldName="CLCAT">
          <Description>
            <TranslatedText xml:lang="en">Category for Clinical Observations</TranslatedText>
          </Description>
          <CodeListRef CodeListOID="CLCAT"/>
          <def:Origin Type="OTHER"/>
        </ItemDef>
        <ItemDef OID="IT.CL.CLDTC" Name="CLDTC" DataType="datetime" SASFieldName="CLDTC">
          <Description>
            <TranslatedText xml:lang="en">Date/Time of Observation</TranslatedText>
          </Description>
          <def:Origin Type="COLLECTED"/>
        </ItemDef>
        <ItemDef OID="IT.CL.CLDY" Name="CLDY" DataType="integer" Length="8" SASFieldName="CLDY">
          <Description>
            <TranslatedText xml:lang="en">Study Day of Observation</TranslatedText>
          </Description>
          <def:Origin Type="DERIVED"/>
        </ItemDef>
        <ItemDef OID="IT.CL.CLGRPID" Name="CLGRPID" DataType="text" Length="7" SASFieldName="CLGRPID">
          <Description>
            <TranslatedText xml:lang="en">Group Identifier</TranslatedText>
          </Description>
          <def:Origin Type="OTHER"/>
        </ItemDef>
        <ItemDef OID="IT.CL.CLLOC" Name="CLLOC" DataType="text" Length="16" SASFieldName="CLLOC">
          <Description>
            <TranslatedText xml:lang="en">Location of a Finding</TranslatedText>
          </Description>
          <def:Origin Type="COLLECTED"/>
        </ItemDef>
        <ItemDef OID="IT.CL.CLNOMDY" Name="CLNOMDY" DataType="integer" Length="8" SASFieldName="CLNOMDY">
          <Description>
            <TranslatedText xml:lang="en">Nominal Study Day for Tabulations</TranslatedText>
          </Description>
          <def:Origin Type="DERIVED"/>
        </ItemDef>
        <ItemDef OID="IT.CL.CLNOMLBL" Name="CLNOMLBL" DataType="text" Length="13" SASFieldName="CLNOMLBL">
          <Description>
            <TranslatedText xml:lang="en">Label for Nominal Study Day</TranslatedText>
          </Description>
          <def:Origin Type="DERIVED"/>
        </ItemDef>
        <ItemDef OID="IT.CL.CLORRES" Name="CLORRES" DataType="text" Length="50" SASFieldName="CLORRES">
          <Description>
            <TranslatedText xml:lang="en">Result or Findings as Collected</TranslatedText>
          </Description>
          <def:Origin Type="COLLECTED"/>
        </ItemDef>
        <ItemDef OID="IT.CL.CLSCAT" Name="CLSCAT" DataType="text" Length="19" SASFieldName="CLSCAT">
          <Description>
            <TranslatedText xml:lang="en">Subcategory for Clinical Observations</TranslatedText>
          </Description>
          <CodeListRef CodeListOID="CLSCAT"/>
          <def:Origin Type="OTHER"/>
        </ItemDef>
        <ItemDef OID="IT.CL.CLSEQ" Name="CLSEQ" DataType="integer" Length="8" SASFieldName="CLSEQ">
          <Description>
            <TranslatedText xml:lang="en">Sequence Number</TranslatedText>
          </Description>
          <def:Origin Type="OTHER"/>
        </ItemDef>
        <ItemDef OID="IT.CL.CLSTRESC" Name="CLSTRESC" DataType="text" Length="39" SASFieldName="CLSTRESC">
          <Description>
            <TranslatedText xml:lang="en">Standardized Result in Character Format</TranslatedText>
          </Description>
          <def:Origin Type="COLLECTED"/>
        </ItemDef>
        <ItemDef OID="IT.CL.CLTEST" Name="CLTEST" DataType="text" Length="20" SASFieldName="CLTEST">
          <Description>
            <TranslatedText xml:lang="en">Test Name</TranslatedText>
          </Description>
          <CodeListRef CodeListOID="CLTEST"/>
          <def:Origin Type="OTHER"/>
        </ItemDef>
        <ItemDef OID="IT.CL.CLTESTCD" Name="CLTESTCD" DataType="text" Length="5" SASFieldName="CLTESTCD">
          <Description>
            <TranslatedText xml:lang="en">Test Short Name</TranslatedText>
          </Description>
          <CodeListRef CodeListOID="CLTESTCD"/>
          <def:Origin Type="OTHER"/>
        </ItemDef>
        <ItemDef OID="IT.CL.CLTPT" Name="CLTPT" DataType="text" Length="9" SASFieldName="CLTPT">
          <Description>
            <TranslatedText xml:lang="en">Planned Time Point Name</TranslatedText>
          </Description>
          <def:Origin Type="OTHER"/>
        </ItemDef>
        <ItemDef OID="IT.CL.CLTPTNUM" Name="CLTPTNUM" DataType="integer" Length="8" SASFieldName="CLTPTNUM">
          <Description>
            <TranslatedText xml:lang="en">Planned Time Point Number</TranslatedText>
          </Description>
          <def:Origin Type="OTHER"/>
        </ItemDef>
        <ItemDef OID="IT.CL.DOMAIN" Name="DOMAIN" DataType="text" Length="2" SASFieldName="DOMAIN">
          <Description>
            <TranslatedText xml:lang="en">Domain Abbreviation</TranslatedText>
          </Description>
          <CodeListRef CodeListOID="SDOMAIN"/>
          <def:Origin Type="OTHER"/>
        </ItemDef>
        <ItemDef OID="IT.CL.STUDYID" Name="STUDYID" DataType="text" Length="7" SASFieldName="STUDYID">
          <Description>
            <TranslatedText xml:lang="en">Study Identifier</TranslatedText>
          </Description>
          <def:Origin Type="OTHER"/>
        </ItemDef>
        <ItemDef OID="IT.CL.USUBJID" Name="USUBJID" DataType="text" Length="14" SASFieldName="USUBJID">
          <Description>
            <TranslatedText xml:lang="en">Unique Subject Identifier</TranslatedText>
          </Description>
          <def:Origin Type="OTHER"/>
        </ItemDef>
        <ItemDef OID="IT.CL.VISITDY" Name="VISITDY" DataType="integer" Length="8" SASFieldName="VISITDY">
          <Description>
            <TranslatedText xml:lang="en">Planned Study Day of Collection</TranslatedText>
          </Description>
          <def:Origin Type="DERIVED"/>
        </ItemDef>
        <ItemDef OID="IT.CO.CODTC" Name="CODTC" DataType="datetime" SASFieldName="CODTC">
          <Description>
            <TranslatedText xml:lang="en">Date/Time of Comment</TranslatedText>
          </Description>
          <def:Origin Type="COLLECTED"/>
        </ItemDef>
        <ItemDef OID="IT.CO.CODY" Name="CODY" DataType="integer" Length="8" SASFieldName="CODY">
          <Description>
            <TranslatedText xml:lang="en">Study Day of Comment</TranslatedText>
          </Description>
          <def:Origin Type="DERIVED"/>
        </ItemDef>
        <ItemDef OID="IT.CO.COSEQ" Name="COSEQ" DataType="integer" Length="8" SASFieldName="COSEQ">
          <Description>
            <TranslatedText xml:lang="en">Sequence Number</TranslatedText>
          </Description>
          <def:Origin Type="OTHER"/>
        </ItemDef>
        <ItemDef OID="IT.CO.COVAL" Name="COVAL" DataType="text" Length="10" SASFieldName="COVAL">
          <Description>
            <TranslatedText xml:lang="en">Comment</TranslatedText>
          </Description>
          <def:Origin Type="COLLECTED"/>
        </ItemDef>
        <ItemDef OID="IT.CO.DOMAIN" Name="DOMAIN" DataType="text" Length="2" SASFieldName="DOMAIN">
          <Description>
            <TranslatedText xml:lang="en">Domain Abbreviation</TranslatedText>
          </Description>
          <CodeListRef CodeListOID="SDOMAIN"/>
          <def:Origin Type="OTHER"/>
        </ItemDef>
        <ItemDef OID="IT.CO.IDVAR" Name="IDVAR" DataType="text" Length="7" SASFieldName="IDVAR">
          <Description>
            <TranslatedText xml:lang="en">Identifying Variable</TranslatedText>
          </Description>
          <def:Origin Type="OTHER"/>
        </ItemDef>
        <ItemDef OID="IT.CO.IDVARVAL" Name="IDVARVAL" DataType="text" Length="7" SASFieldName="IDVARVAL">
          <Description>
            <TranslatedText xml:lang="en">Identifying Variable Value</TranslatedText>
          </Description>
          <def:Origin Type="OTHER"/>
        </ItemDef>
        <ItemDef OID="IT.CO.RDOMAIN" Name="RDOMAIN" DataType="text" Length="2" SASFieldName="RDOMAIN">
          <Description>
            <TranslatedText xml:lang="en">Related Domain Abbreviation</TranslatedText>
          </Description>
          <CodeListRef CodeListOID="SDOMAIN"/>
          <def:Origin Type="OTHER"/>
        </ItemDef>
        <ItemDef OID="IT.CO.STUDYID" Name="STUDYID" DataType="text" Length="7" SASFieldName="STUDYID">
          <Description>
            <TranslatedText xml:lang="en">Study Identifier</TranslatedText>
          </Description>
          <def:Origin Type="OTHER"/>
        </ItemDef>
        <ItemDef OID="IT.CO.USUBJID" Name="USUBJID" DataType="text" Length="14" SASFieldName="USUBJID">
          <Description>
            <TranslatedText xml:lang="en">Unique Subject Identifier</TranslatedText>
          </Description>
          <def:Origin Type="OTHER"/>
        </ItemDef>
        <ItemDef OID="IT.DM.AGETXT" Name="AGETXT" DataType="text" Length="3" SASFieldName="AGETXT">
          <Description>
            <TranslatedText xml:lang="en">Age Range</TranslatedText>
          </Description>
          <def:Origin Type="OTHER"/>
        </ItemDef>
        <ItemDef OID="IT.DM.AGEU" Name="AGEU" DataType="text" Length="5" SASFieldName="AGEU">
          <Description>
            <TranslatedText xml:lang="en">Age Unit</TranslatedText>
          </Description>
          <CodeListRef CodeListOID="AGEU"/>
          <def:Origin Type="OTHER"/>
        </ItemDef>
        <ItemDef OID="IT.DM.ARM" Name="ARM" DataType="text" Length="4" SASFieldName="ARM">
          <Description>
            <TranslatedText xml:lang="en">Description of Planned Arm</TranslatedText>
          </Description>
          <def:Origin Type="OTHER"/>
        </ItemDef>
        <ItemDef OID="IT.DM.ARMCD" Name="ARMCD" DataType="text" Length="1" SASFieldName="ARMCD">
          <Description>
            <TranslatedText xml:lang="en">Planned Arm Code</TranslatedText>
          </Description>
          <def:Origin Type="OTHER"/>
        </ItemDef>
        <ItemDef OID="IT.DM.DOMAIN" Name="DOMAIN" DataType="text" Length="2" SASFieldName="DOMAIN">
          <Description>
            <TranslatedText xml:lang="en">Domain Abbreviation</TranslatedText>
          </Description>
          <CodeListRef CodeListOID="SDOMAIN"/>
          <def:Origin Type="OTHER"/>
        </ItemDef>
        <ItemDef OID="IT.DM.RFENDTC" Name="RFENDTC" DataType="datetime" SASFieldName="RFENDTC">
          <Description>
            <TranslatedText xml:lang="en">Subject Reference End Date/Time</TranslatedText>
          </Description>
          <def:Origin Type="COLLECTED"/>
        </ItemDef>
        <ItemDef OID="IT.DM.RFSTDTC" Name="RFSTDTC" DataType="datetime" SASFieldName="RFSTDTC">
          <Description>
            <TranslatedText xml:lang="en">Subject Reference Start Date/Time</TranslatedText>
          </Description>
          <def:Origin Type="COLLECTED"/>
        </ItemDef>
        <ItemDef OID="IT.DM.RFXENDTC" Name="RFXENDTC" DataType="datetime" SASFieldName="RFXENDTC">
          <Description>
            <TranslatedText xml:lang="en">Date/Time of Last Study Treatment</TranslatedText>
          </Description>
          <def:Origin Type="COLLECTED"/>
        </ItemDef>
        <ItemDef OID="IT.DM.RFXSTDTC" Name="RFXSTDTC" DataType="datetime" SASFieldName="RFXSTDTC">
          <Description>
            <TranslatedText xml:lang="en">Date/Time of First Study Treatment</TranslatedText>
          </Description>
          <def:Origin Type="COLLECTED"/>
        </ItemDef>
        <ItemDef OID="IT.DM.SETCD" Name="SETCD" DataType="text" Length="1" SASFieldName="SETCD">
          <Description>
            <TranslatedText xml:lang="en">Set Code</TranslatedText>
          </Description>
          <def:Origin Type="OTHER"/>
        </ItemDef>
        <ItemDef OID="IT.DM.SEX" Name="SEX" DataType="text" Length="1" SASFieldName="SEX">
          <Description>
            <TranslatedText xml:lang="en">Sex</TranslatedText>
          </Description>
          <CodeListRef CodeListOID="SEX"/>
          <def:Origin Type="OTHER"/>
        </ItemDef>
        <ItemDef OID="IT.DM.STUDYID" Name="STUDYID" DataType="text" Length="7" SASFieldName="STUDYID">
          <Description>
            <TranslatedText xml:lang="en">Study Identifier</TranslatedText>
          </Description>
          <def:Origin Type="OTHER"/>
        </ItemDef>
        <ItemDef OID="IT.DM.SUBJID" Name="SUBJID" DataType="text" Length="6" SASFieldName="SUBJID">
          <Description>
            <TranslatedText xml:lang="en">Subject Identifier for the Study</TranslatedText>
          </Description>
          <def:Origin Type="OTHER"/>
        </ItemDef>
        <ItemDef OID="IT.DM.USUBJID" Name="USUBJID" DataType="text" Length="14" SASFieldName="USUBJID">
          <Description>
            <TranslatedText xml:lang="en">Unique Subject Identifier</TranslatedText>
          </Description>
          <def:Origin Type="OTHER"/>
        </ItemDef>
        <ItemDef OID="IT.DS.DOMAIN" Name="DOMAIN" DataType="text" Length="2" SASFieldName="DOMAIN">
          <Description>
            <TranslatedText xml:lang="en">Domain Abbreviation</TranslatedText>
          </Description>
          <CodeListRef CodeListOID="SDOMAIN"/>
          <def:Origin Type="OTHER"/>
        </ItemDef>
        <ItemDef OID="IT.DS.DSDECOD" Name="DSDECOD" DataType="text" Length="24" SASFieldName="DSDECOD">
          <Description>
            <TranslatedText xml:lang="en">Standardized Disposition Term</TranslatedText>
          </Description>
          <CodeListRef CodeListOID="DSDECOD"/>
          <def:Origin Type="COLLECTED"/>
        </ItemDef>
        <ItemDef OID="IT.DS.DSNOMDY" Name="DSNOMDY" DataType="integer" Length="8" SASFieldName="DSNOMDY">
          <Description>
            <TranslatedText xml:lang="en">Nominal Study Day for Tabulations</TranslatedText>
          </Description>
          <def:Origin Type="DERIVED"/>
        </ItemDef>
        <ItemDef OID="IT.DS.DSSEQ" Name="DSSEQ" DataType="integer" Length="8" SASFieldName="DSSEQ">
          <Description>
            <TranslatedText xml:lang="en">Sequence Number</TranslatedText>
          </Description>
          <def:Origin Type="OTHER"/>
        </ItemDef>
        <ItemDef OID="IT.DS.DSSTDTC" Name="DSSTDTC" DataType="datetime" SASFieldName="DSSTDTC">
          <Description>
            <TranslatedText xml:lang="en">Date/Time of Disposition</TranslatedText>
          </Description>
          <def:Origin Type="COLLECTED"/>
        </ItemDef>
        <ItemDef OID="IT.DS.DSSTDY" Name="DSSTDY" DataType="integer" Length="8" SASFieldName="DSSTDY">
          <Description>
            <TranslatedText xml:lang="en">Study Day of Disposition</TranslatedText>
          </Description>
          <def:Origin Type="DERIVED"/>
        </ItemDef>
        <ItemDef OID="IT.DS.DSTERM" Name="DSTERM" DataType="text" Length="9" SASFieldName="DSTERM">
          <Description>
            <TranslatedText xml:lang="en">Reported Term for the Disposition Event</TranslatedText>
          </Description>
          <def:Origin Type="COLLECTED"/>
        </ItemDef>
        <ItemDef OID="IT.DS.DSUSCHFL" Name="DSUSCHFL" DataType="text" Length="1" SASFieldName="DSUSCHFL">
          <Description>
            <TranslatedText xml:lang="en">Unscheduled Flag</TranslatedText>
          </Description>
          <CodeListRef CodeListOID="NY"/>
          <def:Origin Type="OTHER"/>
        </ItemDef>
        <ItemDef OID="IT.DS.STUDYID" Name="STUDYID" DataType="text" Length="7" SASFieldName="STUDYID">
          <Description>
            <TranslatedText xml:lang="en">Study Identifier</TranslatedText>
          </Description>
          <def:Origin Type="OTHER"/>
        </ItemDef>
        <ItemDef OID="IT.DS.USUBJID" Name="USUBJID" DataType="text" Length="14" SASFieldName="USUBJID">
          <Description>
            <TranslatedText xml:lang="en">Unique Subject Identifier</TranslatedText>
          </Description>
          <def:Origin Type="OTHER"/>
        </ItemDef>
        <ItemDef OID="IT.DS.VISITDY" Name="VISITDY" DataType="integer" Length="8" SASFieldName="VISITDY">
          <Description>
            <TranslatedText xml:lang="en">Planned Study Day of Disposition</TranslatedText>
          </Description>
          <def:Origin Type="DERIVED"/>
        </ItemDef>
        <ItemDef OID="IT.EX.DOMAIN" Name="DOMAIN" DataType="text" Length="2" SASFieldName="DOMAIN">
          <Description>
            <TranslatedText xml:lang="en">Domain Abbreviation</TranslatedText>
          </Description>
          <CodeListRef CodeListOID="SDOMAIN"/>
          <def:Origin Type="OTHER"/>
        </ItemDef>
        <ItemDef OID="IT.EX.EXDOSE" Name="EXDOSE" DataType="float" Length="8" SignificantDigits="0" SASFieldName="EXDOSE">
          <Description>
            <TranslatedText xml:lang="en">Dose per Administration</TranslatedText>
          </Description>
          <def:Origin Type="COLLECTED"/>
        </ItemDef>
        <ItemDef OID="IT.EX.EXDOSFRM" Name="EXDOSFRM" DataType="text" Length="8" SASFieldName="EXDOSFRM">
          <Description>
            <TranslatedText xml:lang="en">Dose Form</TranslatedText>
          </Description>
          <CodeListRef CodeListOID="FRM"/>
          <def:Origin Type="OTHER"/>
        </ItemDef>
        <ItemDef OID="IT.EX.EXDOSFRQ" Name="EXDOSFRQ" DataType="text" Length="5" SASFieldName="EXDOSFRQ">
          <Description>
            <TranslatedText xml:lang="en">Dosing Frequency Per Interval</TranslatedText>
          </Description>
          <CodeListRef CodeListOID="FREQ"/>
          <def:Origin Type="OTHER"/>
        </ItemDef>
        <ItemDef OID="IT.EX.EXDOSU" Name="EXDOSU" DataType="text" Length="7" SASFieldName="EXDOSU">
          <Description>
            <TranslatedText xml:lang="en">Dose Units</TranslatedText>
          </Description>
          <CodeListRef CodeListOID="UNIT"/>
          <def:Origin Type="COLLECTED"/>
        </ItemDef>
        <ItemDef OID="IT.EX.EXLOT" Name="EXLOT" DataType="text" Length="5" SASFieldName="EXLOT">
          <Description>
            <TranslatedText xml:lang="en">Lot Number</TranslatedText>
          </Description>
          <def:Origin Type="OTHER"/>
        </ItemDef>
        <ItemDef OID="IT.EX.EXROUTE" Name="EXROUTE" DataType="text" Length="13" SASFieldName="EXROUTE">
          <Description>
            <TranslatedText xml:lang="en">Route of Administration</TranslatedText>
          </Description>
          <CodeListRef CodeListOID="ROUTE"/>
          <def:Origin Type="OTHER"/>
        </ItemDef>
        <ItemDef OID="IT.EX.EXSEQ" Name="EXSEQ" DataType="integer" Length="8" SASFieldName="EXSEQ">
          <Description>
            <TranslatedText xml:lang="en">Sequence Number</TranslatedText>
          </Description>
          <def:Origin Type="OTHER"/>
        </ItemDef>
        <ItemDef OID="IT.EX.EXSTDTC" Name="EXSTDTC" DataType="datetime" SASFieldName="EXSTDTC">
          <Description>
            <TranslatedText xml:lang="en">Start Date/Time of Treatment</TranslatedText>
          </Description>
          <def:Origin Type="COLLECTED"/>
        </ItemDef>
        <ItemDef OID="IT.EX.EXSTDY" Name="EXSTDY" DataType="integer" Length="8" SASFieldName="EXSTDY">
          <Description>
            <TranslatedText xml:lang="en">Study Day of Start of Treatment</TranslatedText>
          </Description>
          <def:Origin Type="DERIVED"/>
        </ItemDef>
        <ItemDef OID="IT.EX.EXTRT" Name="EXTRT" DataType="text" Length="19" SASFieldName="EXTRT">
          <Description>
            <TranslatedText xml:lang="en">Name of Actual Treatment</TranslatedText>
          </Description>
          <def:Origin Type="OTHER"/>
        </ItemDef>
        <ItemDef OID="IT.EX.EXTRTV" Name="EXTRTV" DataType="text" Length="1" SASFieldName="EXTRTV">
          <Description>
            <TranslatedText xml:lang="en">Treatment Vehicle</TranslatedText>
          </Description>
          <def:Origin Type="OTHER"/>
        </ItemDef>
        <ItemDef OID="IT.EX.STUDYID" Name="STUDYID" DataType="text" Length="7" SASFieldName="STUDYID">
          <Description>
            <TranslatedText xml:lang="en">Study Identifier</TranslatedText>
          </Description>
          <def:Origin Type="OTHER"/>
        </ItemDef>
        <ItemDef OID="IT.EX.USUBJID" Name="USUBJID" DataType="text" Length="14" SASFieldName="USUBJID">
          <Description>
            <TranslatedText xml:lang="en">Unique Subject Identifier</TranslatedText>
          </Description>
          <def:Origin Type="OTHER"/>
        </ItemDef>
        <ItemDef OID="IT.LB.DOMAIN" Name="DOMAIN" DataType="text" Length="2" SASFieldName="DOMAIN">
          <Description>
            <TranslatedText xml:lang="en">Domain Abbreviation</TranslatedText>
          </Description>
          <CodeListRef CodeListOID="SDOMAIN"/>
          <def:Origin Type="OTHER"/>
        </ItemDef>
        <ItemDef OID="IT.LB.LBBLFL" Name="LBBLFL" DataType="text" Length="1" SASFieldName="LBBLFL">
          <Description>
            <TranslatedText xml:lang="en">Baseline Flag</TranslatedText>
          </Description>
          <CodeListRef CodeListOID="NY"/>
          <def:Origin Type="OTHER"/>
        </ItemDef>
        <ItemDef OID="IT.LB.LBCAT" Name="LBCAT" DataType="text" Length="26" SASFieldName="LBCAT">
          <Description>
            <TranslatedText xml:lang="en">Category for Lab Test</TranslatedText>
          </Description>
          <CodeListRef CodeListOID="LBCAT"/>
          <def:Origin Type="OTHER"/>
        </ItemDef>
        <ItemDef OID="IT.LB.LBDTC" Name="LBDTC" DataType="datetime" SASFieldName="LBDTC">
          <Description>
            <TranslatedText xml:lang="en">Date/Time of Specimen Collection</TranslatedText>
          </Description>
          <def:Origin Type="COLLECTED"/>
        </ItemDef>
        <ItemDef OID="IT.LB.LBDY" Name="LBDY" DataType="integer" Length="8" SASFieldName="LBDY">
          <Description>
            <TranslatedText xml:lang="en">Study Day of Specimen Collection</TranslatedText>
          </Description>
          <def:Origin Type="DERIVED"/>
        </ItemDef>
        <ItemDef OID="IT.LB.LBGRPID" Name="LBGRPID" DataType="text" Length="7" SASFieldName="LBGRPID">
          <Description>
            <TranslatedText xml:lang="en">Group Identifier</TranslatedText>
          </Description>
          <def:Origin Type="OTHER"/>
        </ItemDef>
        <ItemDef OID="IT.LB.LBLOC" Name="LBLOC" DataType="text" Length="12" SASFieldName="LBLOC">
          <Description>
            <TranslatedText xml:lang="en">Specimen Collection Location</TranslatedText>
          </Description>
          <def:Origin Type="OTHER"/>
        </ItemDef>
        <ItemDef OID="IT.LB.LBMETHOD" Name="LBMETHOD" DataType="text" Length="77" SASFieldName="LBMETHOD">
          <Description>
            <TranslatedText xml:lang="en">Method of Test or Examination</TranslatedText>
          </Description>
          <def:Origin Type="OTHER"/>
        </ItemDef>
        <ItemDef OID="IT.LB.LBNOMDY" Name="LBNOMDY" DataType="integer" Length="8" SASFieldName="LBNOMDY">
          <Description>
            <TranslatedText xml:lang="en">Nominal Study Day for Tabulations</TranslatedText>
          </Description>
          <def:Origin Type="DERIVED"/>
        </ItemDef>
        <ItemDef OID="IT.LB.LBNOMLBL" Name="LBNOMLBL" DataType="text" Length="13" SASFieldName="LBNOMLBL">
          <Description>
            <TranslatedText xml:lang="en">Label for Nominal Study Day</TranslatedText>
          </Description>
          <def:Origin Type="DERIVED"/>
        </ItemDef>
        <ItemDef OID="IT.LB.LBORRES" Name="LBORRES" DataType="text" Length="8" SASFieldName="LBORRES">
          <Description>
            <TranslatedText xml:lang="en">Result or Findings as Collected</TranslatedText>
          </Description>
          <def:Origin Type="COLLECTED"/>
        </ItemDef>
        <ItemDef OID="IT.LB.LBORRESU" Name="LBORRESU" DataType="text" Length="7" SASFieldName="LBORRESU">
          <Description>
            <TranslatedText xml:lang="en">Unit of the Original Result</TranslatedText>
          </Description>
          <CodeListRef CodeListOID="UNIT"/>
          <def:Origin Type="COLLECTED"/>
        </ItemDef>
        <ItemDef OID="IT.LB.LBREFID" Name="LBREFID" DataType="text" Length="7" SASFieldName="LBREFID">
          <Description>
            <TranslatedText xml:lang="en">Specimen Identifier</TranslatedText>
          </Description>
          <def:Origin Type="OTHER"/>
        </ItemDef>
        <ItemDef OID="IT.LB.LBSEQ" Name="LBSEQ" DataType="integer" Length="8" SASFieldName="LBSEQ">
          <Description>
            <TranslatedText xml:lang="en">Sequence Number</TranslatedText>
          </Description>
          <def:Origin Type="OTHER"/>
        </ItemDef>
        <ItemDef OID="IT.LB.LBSPCCND" Name="LBSPCCND" DataType="text" Length="18" SASFieldName="LBSPCCND">
          <Description>
            <TranslatedText xml:lang="en">Specimen Condition</TranslatedText>
          </Description>
          <def:Origin Type="OTHER"/>
        </ItemDef>
        <ItemDef OID="IT.LB.LBSPEC" Name="LBSPEC" DataType="text" Length="11" SASFieldName="LBSPEC">
          <Description>
            <TranslatedText xml:lang="en">Specimen Material Type</TranslatedText>
          </Description>
          <CodeListRef CodeListOID="SPEC"/>
          <def:Origin Type="OTHER"/>
        </ItemDef>
        <ItemDef OID="IT.LB.LBSTRESC" Name="LBSTRESC" DataType="text" Length="8" SASFieldName="LBSTRESC">
          <Description>
            <TranslatedText xml:lang="en">Standardized Result in Character Format</TranslatedText>
          </Description>
          <def:Origin Type="COLLECTED"/>
        </ItemDef>
        <ItemDef OID="IT.LB.LBSTRESN" Name="LBSTRESN" DataType="float" Length="8" SignificantDigits="3" SASFieldName="LBSTRESN">
          <Description>
            <TranslatedText xml:lang="en">Standardized Result in Numeric Format</TranslatedText>
          </Description>
          <def:Origin Type="COLLECTED"/>
        </ItemDef>
        <ItemDef OID="IT.LB.LBSTRESU" Name="LBSTRESU" DataType="text" Length="7" SASFieldName="LBSTRESU">
          <Description>
            <TranslatedText xml:lang="en">Unit of the Standardized Result</TranslatedText>
          </Description>
          <CodeListRef CodeListOID="UNIT"/>
          <def:Origin Type="COLLECTED"/>
        </ItemDef>
        <ItemDef OID="IT.LB.LBTEST" Name="LBTEST" DataType="text" Length="39" SASFieldName="LBTEST">
          <Description>
            <TranslatedText xml:lang="en">Lab Test or Examination Name</TranslatedText>
          </Description>
          <CodeListRef CodeListOID="LBTEST"/>
          <def:Origin Type="OTHER"/>
        </ItemDef>
        <ItemDef OID="IT.LB.LBTESTCD" Name="LBTESTCD" DataType="text" Length="8" SASFieldName="LBTESTCD">
          <Description>
            <TranslatedText xml:lang="en">Lab Test or Examination Short Name</TranslatedText>
          </Description>
          <CodeListRef CodeListOID="LBTESTCD"/>
          <def:Origin Type="OTHER"/>
        </ItemDef>
        <ItemDef OID="IT.LB.LBTPT" Name="LBTPT" DataType="text" Length="7" SASFieldName="LBTPT">
          <Description>
            <TranslatedText xml:lang="en">Planned Time Point Name</TranslatedText>
          </Description>
          <def:Origin Type="OTHER"/>
        </ItemDef>
        <ItemDef OID="IT.LB.LBTPTNUM" Name="LBTPTNUM" DataType="integer" Length="8" SASFieldName="LBTPTNUM">
          <Description>
            <TranslatedText xml:lang="en">Planned Time Point Number</TranslatedText>
          </Description>
          <def:Origin Type="OTHER"/>
        </ItemDef>
        <ItemDef OID="IT.LB.LBUSCHFL" Name="LBUSCHFL" DataType="text" Length="1" SASFieldName="LBUSCHFL">
          <Description>
            <TranslatedText xml:lang="en">Unscheduled Flag</TranslatedText>
          </Description>
          <CodeListRef CodeListOID="NY"/>
          <def:Origin Type="OTHER"/>
        </ItemDef>
        <ItemDef OID="IT.LB.STUDYID" Name="STUDYID" DataType="text" Length="7" SASFieldName="STUDYID">
          <Description>
            <TranslatedText xml:lang="en">Study Identifier</TranslatedText>
          </Description>
          <def:Origin Type="OTHER"/>
        </ItemDef>
        <ItemDef OID="IT.LB.USUBJID" Name="USUBJID" DataType="text" Length="14" SASFieldName="USUBJID">
          <Description>
            <TranslatedText xml:lang="en">Unique Subject Identifier</TranslatedText>
          </Description>
          <def:Origin Type="OTHER"/>
        </ItemDef>
        <ItemDef OID="IT.LB.VISITDY" Name="VISITDY" DataType="integer" Length="8" SASFieldName="VISITDY">
          <Description>
            <TranslatedText xml:lang="en">Planned Study Day of Collection</TranslatedText>
          </Description>
          <def:Origin Type="DERIVED"/>
        </ItemDef>
        <ItemDef OID="IT.SE.DOMAIN" Name="DOMAIN" DataType="text" Length="2" SASFieldName="DOMAIN">
          <Description>
            <TranslatedText xml:lang="en">Domain Abbreviation</TranslatedText>
          </Description>
          <CodeListRef CodeListOID="SDOMAIN"/>
          <def:Origin Type="OTHER"/>
        </ItemDef>
        <ItemDef OID="IT.SE.ELEMENT" Name="ELEMENT" DataType="text" Length="36" SASFieldName="ELEMENT">
          <Description>
            <TranslatedText xml:lang="en">Description of Element</TranslatedText>
          </Description>
          <def:Origin Type="OTHER"/>
        </ItemDef>
        <ItemDef OID="IT.SE.ETCD" Name="ETCD" DataType="text" Length="5" SASFieldName="ETCD">
          <Description>
            <TranslatedText xml:lang="en">Element Code</TranslatedText>
          </Description>
          <def:Origin Type="OTHER"/>
        </ItemDef>
        <ItemDef OID="IT.SE.SEENDTC" Name="SEENDTC" DataType="datetime" SASFieldName="SEENDTC">
          <Description>
            <TranslatedText xml:lang="en">End Date/Time of Element</TranslatedText>
          </Description>
          <def:Origin Type="COLLECTED"/>
        </ItemDef>
        <ItemDef OID="IT.SE.SESEQ" Name="SESEQ" DataType="integer" Length="8" SASFieldName="SESEQ">
          <Description>
            <TranslatedText xml:lang="en">Sequence Number</TranslatedText>
          </Description>
          <def:Origin Type="OTHER"/>
        </ItemDef>
        <ItemDef OID="IT.SE.SESTDTC" Name="SESTDTC" DataType="datetime" SASFieldName="SESTDTC">
          <Description>
            <TranslatedText xml:lang="en">Start Date/Time of Element</TranslatedText>
          </Description>
          <def:Origin Type="COLLECTED"/>
        </ItemDef>
        <ItemDef OID="IT.SE.STUDYID" Name="STUDYID" DataType="text" Length="7" SASFieldName="STUDYID">
          <Description>
            <TranslatedText xml:lang="en">Study Identifier</TranslatedText>
          </Description>
          <def:Origin Type="OTHER"/>
        </ItemDef>
        <ItemDef OID="IT.SE.USUBJID" Name="USUBJID" DataType="text" Length="14" SASFieldName="USUBJID">
          <Description>
            <TranslatedText xml:lang="en">Unique Subject Identifier</TranslatedText>
          </Description>
          <def:Origin Type="OTHER"/>
        </ItemDef>
        <ItemDef OID="IT.SUPPBG.IDVAR" Name="IDVAR" DataType="text" Length="5" SASFieldName="IDVAR">
          <Description>
            <TranslatedText xml:lang="en">Identifying Variable</TranslatedText>
          </Description>
          <def:Origin Type="OTHER"/>
        </ItemDef>
        <ItemDef OID="IT.SUPPBG.IDVARVAL" Name="IDVARVAL" DataType="text" Length="2" SASFieldName="IDVARVAL">
          <Description>
            <TranslatedText xml:lang="en">Identifying Variable Value</TranslatedText>
          </Description>
          <def:Origin Type="OTHER"/>
        </ItemDef>
        <ItemDef OID="IT.SUPPBG.QLABEL" Name="QLABEL" DataType="text" Length="18" SASFieldName="QLABEL">
          <Description>
            <TranslatedText xml:lang="en">Qualifier Variable Label</TranslatedText>
          </Description>
          <def:Origin Type="OTHER"/>
        </ItemDef>
        <ItemDef OID="IT.SUPPBG.QNAM" Name="QNAM" DataType="text" Length="8" SASFieldName="QNAM">
          <Description>
            <TranslatedText xml:lang="en">Qualifier Variable Name</TranslatedText>
          </Description>
          <def:Origin Type="OTHER"/>
        </ItemDef>
        <ItemDef OID="IT.SUPPBG.QORIG" Name="QORIG" DataType="text" Length="9" SASFieldName="QORIG">
          <Description>
            <TranslatedText xml:lang="en">Origin</TranslatedText>
          </Description>
          <def:Origin Type="OTHER"/>
        </ItemDef>
        <ItemDef OID="IT.SUPPBG.QVAL" Name="QVAL" DataType="text" Length="7" SASFieldName="QVAL">
          <Description>
            <TranslatedText xml:lang="en">Data Value</TranslatedText>
          </Description>
          <def:Origin Type="OTHER"/>
          <def:ValueListRef ValueListOID="VL.SUPPBG.QVAL"/>
        </ItemDef>
        <ItemDef OID="IT.SUPPBG.QVAL.PHSEDAY2" Name="PHSEDAY2" DataType="integer" Length="3" SASFieldName="PHSEDAY2">
          <Description>
            <TranslatedText xml:lang="en">PHSEDAY2</TranslatedText>
          </Description>
          <def:Origin Type="OTHER"/>
        </ItemDef>
        <ItemDef OID="IT.SUPPBG.QVAL.PHSNAME2" Name="PHSNAME2" DataType="text" Length="64" SASFieldName="PHSNAME2">
          <Description>
            <TranslatedText xml:lang="en">PHSNAME2</TranslatedText>
          </Description>
          <def:Origin Type="OTHER"/>
        </ItemDef>
        <ItemDef OID="IT.SUPPBG.RDOMAIN" Name="RDOMAIN" DataType="text" Length="2" SASFieldName="RDOMAIN">
          <Description>
            <TranslatedText xml:lang="en">Related Domain Abbreviation</TranslatedText>
          </Description>
          <CodeListRef CodeListOID="SDOMAIN"/>
          <def:Origin Type="OTHER"/>
        </ItemDef>
        <ItemDef OID="IT.SUPPBG.STUDYID" Name="STUDYID" DataType="text" Length="7" SASFieldName="STUDYID">
          <Description>
            <TranslatedText xml:lang="en">Study Identifier</TranslatedText>
          </Description>
          <def:Origin Type="OTHER"/>
        </ItemDef>
        <ItemDef OID="IT.SUPPBG.USUBJID" Name="USUBJID" DataType="text" Length="14" SASFieldName="USUBJID">
          <Description>
            <TranslatedText xml:lang="en">Unique Subject Identifier</TranslatedText>
          </Description>
          <def:Origin Type="OTHER"/>
        </ItemDef>
        <ItemDef OID="IT.SUPPBW.IDVAR" Name="IDVAR" DataType="text" Length="5" SASFieldName="IDVAR">
          <Description>
            <TranslatedText xml:lang="en">Identifying Variable</TranslatedText>
          </Description>
          <def:Origin Type="OTHER"/>
        </ItemDef>
        <ItemDef OID="IT.SUPPBW.IDVARVAL" Name="IDVARVAL" DataType="text" Length="2" SASFieldName="IDVARVAL">
          <Description>
            <TranslatedText xml:lang="en">Identifying Variable Value</TranslatedText>
          </Description>
          <def:Origin Type="OTHER"/>
        </ItemDef>
        <ItemDef OID="IT.SUPPBW.QLABEL" Name="QLABEL" DataType="text" Length="12" SASFieldName="QLABEL">
          <Description>
            <TranslatedText xml:lang="en">Qualifier Variable Label</TranslatedText>
          </Description>
          <def:Origin Type="OTHER"/>
        </ItemDef>
        <ItemDef OID="IT.SUPPBW.QNAM" Name="QNAM" DataType="text" Length="8" SASFieldName="QNAM">
          <Description>
            <TranslatedText xml:lang="en">Qualifier Variable Name</TranslatedText>
          </Description>
          <def:Origin Type="OTHER"/>
        </ItemDef>
        <ItemDef OID="IT.SUPPBW.QORIG" Name="QORIG" DataType="text" Length="9" SASFieldName="QORIG">
          <Description>
            <TranslatedText xml:lang="en">Origin</TranslatedText>
          </Description>
          <def:Origin Type="OTHER"/>
        </ItemDef>
        <ItemDef OID="IT.SUPPBW.QVAL" Name="QVAL" DataType="text" Length="7" SASFieldName="QVAL">
          <Description>
            <TranslatedText xml:lang="en">Data Value</TranslatedText>
          </Description>
          <def:Origin Type="OTHER"/>
          <def:ValueListRef ValueListOID="VL.SUPPBW.QVAL"/>
        </ItemDef>
        <ItemDef OID="IT.SUPPBW.QVAL.PHASEDAY" Name="PHASEDAY" DataType="integer" Length="3" SASFieldName="PHASEDAY">
          <Description>
            <TranslatedText xml:lang="en">PHASEDAY</TranslatedText>
          </Description>
          <def:Origin Type="OTHER"/>
        </ItemDef>
        <ItemDef OID="IT.SUPPBW.QVAL.PHSENAME" Name="PHSENAME" DataType="text" Length="64" SASFieldName="PHSENAME">
          <Description>
            <TranslatedText xml:lang="en">PHSENAME</TranslatedText>
          </Description>
          <def:Origin Type="OTHER"/>
        </ItemDef>
        <ItemDef OID="IT.SUPPBW.RDOMAIN" Name="RDOMAIN" DataType="text" Length="2" SASFieldName="RDOMAIN">
          <Description>
            <TranslatedText xml:lang="en">Related Domain Abbreviation</TranslatedText>
          </Description>
          <CodeListRef CodeListOID="SDOMAIN"/>
          <def:Origin Type="OTHER"/>
        </ItemDef>
        <ItemDef OID="IT.SUPPBW.STUDYID" Name="STUDYID" DataType="text" Length="7" SASFieldName="STUDYID">
          <Description>
            <TranslatedText xml:lang="en">Study Identifier</TranslatedText>
          </Description>
          <def:Origin Type="OTHER"/>
        </ItemDef>
        <ItemDef OID="IT.SUPPBW.USUBJID" Name="USUBJID" DataType="text" Length="14" SASFieldName="USUBJID">
          <Description>
            <TranslatedText xml:lang="en">Unique Subject Identifier</TranslatedText>
          </Description>
          <def:Origin Type="OTHER"/>
        </ItemDef>
        <ItemDef OID="IT.SUPPCL.IDVAR" Name="IDVAR" DataType="text" Length="5" SASFieldName="IDVAR">
          <Description>
            <TranslatedText xml:lang="en">Identifying Variable</TranslatedText>
          </Description>
          <def:Origin Type="OTHER"/>
        </ItemDef>
        <ItemDef OID="IT.SUPPCL.IDVARVAL" Name="IDVARVAL" DataType="text" Length="2" SASFieldName="IDVARVAL">
          <Description>
            <TranslatedText xml:lang="en">Identifying Variable Value</TranslatedText>
          </Description>
          <def:Origin Type="OTHER"/>
        </ItemDef>
        <ItemDef OID="IT.SUPPCL.QLABEL" Name="QLABEL" DataType="text" Length="12" SASFieldName="QLABEL">
          <Description>
            <TranslatedText xml:lang="en">Qualifier Variable Label</TranslatedText>
          </Description>
          <def:Origin Type="OTHER"/>
        </ItemDef>
        <ItemDef OID="IT.SUPPCL.QNAM" Name="QNAM" DataType="text" Length="8" SASFieldName="QNAM">
          <Description>
            <TranslatedText xml:lang="en">Qualifier Variable Name</TranslatedText>
          </Description>
          <def:Origin Type="OTHER"/>
        </ItemDef>
        <ItemDef OID="IT.SUPPCL.QORIG" Name="QORIG" DataType="text" Length="9" SASFieldName="QORIG">
          <Description>
            <TranslatedText xml:lang="en">Origin</TranslatedText>
          </Description>
          <def:Origin Type="OTHER"/>
        </ItemDef>
        <ItemDef OID="IT.SUPPCL.QVAL" Name="QVAL" DataType="text" Length="7" SASFieldName="QVAL">
          <Description>
            <TranslatedText xml:lang="en">Data Value</TranslatedText>
          </Description>
          <def:Origin Type="OTHER"/>
          <def:ValueListRef ValueListOID="VL.SUPPCL.QVAL"/>
        </ItemDef>
        <ItemDef OID="IT.SUPPCL.QVAL.PHASEDAY" Name="PHASEDAY" DataType="integer" Length="3" SASFieldName="PHASEDAY">
          <Description>
            <TranslatedText xml:lang="en">PHASEDAY</TranslatedText>
          </Description>
          <def:Origin Type="OTHER"/>
        </ItemDef>
        <ItemDef OID="IT.SUPPCL.QVAL.PHSENAME" Name="PHSENAME" DataType="text" Length="64" SASFieldName="PHSENAME">
          <Description>
            <TranslatedText xml:lang="en">PHSENAME</TranslatedText>
          </Description>
          <def:Origin Type="OTHER"/>
        </ItemDef>
        <ItemDef OID="IT.SUPPCL.RDOMAIN" Name="RDOMAIN" DataType="text" Length="2" SASFieldName="RDOMAIN">
          <Description>
            <TranslatedText xml:lang="en">Related Domain Abbreviation</TranslatedText>
          </Description>
          <CodeListRef CodeListOID="SDOMAIN"/>
          <def:Origin Type="OTHER"/>
        </ItemDef>
        <ItemDef OID="IT.SUPPCL.STUDYID" Name="STUDYID" DataType="text" Length="7" SASFieldName="STUDYID">
          <Description>
            <TranslatedText xml:lang="en">Study Identifier</TranslatedText>
          </Description>
          <def:Origin Type="OTHER"/>
        </ItemDef>
        <ItemDef OID="IT.SUPPCL.USUBJID" Name="USUBJID" DataType="text" Length="14" SASFieldName="USUBJID">
          <Description>
            <TranslatedText xml:lang="en">Unique Subject Identifier</TranslatedText>
          </Description>
          <def:Origin Type="OTHER"/>
        </ItemDef>
        <ItemDef OID="IT.SUPPDS.IDVAR" Name="IDVAR" DataType="text" Length="5" SASFieldName="IDVAR">
          <Description>
            <TranslatedText xml:lang="en">Identifying Variable</TranslatedText>
          </Description>
          <def:Origin Type="OTHER"/>
        </ItemDef>
        <ItemDef OID="IT.SUPPDS.IDVARVAL" Name="IDVARVAL" DataType="text" Length="1" SASFieldName="IDVARVAL">
          <Description>
            <TranslatedText xml:lang="en">Identifying Variable Value</TranslatedText>
          </Description>
          <def:Origin Type="OTHER"/>
        </ItemDef>
        <ItemDef OID="IT.SUPPDS.QLABEL" Name="QLABEL" DataType="text" Length="12" SASFieldName="QLABEL">
          <Description>
            <TranslatedText xml:lang="en">Qualifier Variable Label</TranslatedText>
          </Description>
          <def:Origin Type="OTHER"/>
        </ItemDef>
        <ItemDef OID="IT.SUPPDS.QNAM" Name="QNAM" DataType="text" Length="8" SASFieldName="QNAM">
          <Description>
            <TranslatedText xml:lang="en">Qualifier Variable Name</TranslatedText>
          </Description>
          <def:Origin Type="OTHER"/>
        </ItemDef>
        <ItemDef OID="IT.SUPPDS.QORIG" Name="QORIG" DataType="text" Length="9" SASFieldName="QORIG">
          <Description>
            <TranslatedText xml:lang="en">Origin</TranslatedText>
          </Description>
          <def:Origin Type="OTHER"/>
        </ItemDef>
        <ItemDef OID="IT.SUPPDS.QVAL" Name="QVAL" DataType="text" Length="6" SASFieldName="QVAL">
          <Description>
            <TranslatedText xml:lang="en">Data Value</TranslatedText>
          </Description>
          <def:Origin Type="OTHER"/>
          <def:ValueListRef ValueListOID="VL.SUPPDS.QVAL"/>
        </ItemDef>
        <ItemDef OID="IT.SUPPDS.QVAL.PHASEDAY" Name="PHASEDAY" DataType="integer" Length="3" SASFieldName="PHASEDAY">
          <Description>
            <TranslatedText xml:lang="en">PHASEDAY</TranslatedText>
          </Description>
          <def:Origin Type="OTHER"/>
        </ItemDef>
        <ItemDef OID="IT.SUPPDS.QVAL.PHSENAME" Name="PHSENAME" DataType="text" Length="64" SASFieldName="PHSENAME">
          <Description>
            <TranslatedText xml:lang="en">PHSENAME</TranslatedText>
          </Description>
          <def:Origin Type="OTHER"/>
        </ItemDef>
        <ItemDef OID="IT.SUPPDS.RDOMAIN" Name="RDOMAIN" DataType="text" Length="2" SASFieldName="RDOMAIN">
          <Description>
            <TranslatedText xml:lang="en">Related Domain Abbreviation</TranslatedText>
          </Description>
          <CodeListRef CodeListOID="SDOMAIN"/>
          <def:Origin Type="OTHER"/>
        </ItemDef>
        <ItemDef OID="IT.SUPPDS.STUDYID" Name="STUDYID" DataType="text" Length="7" SASFieldName="STUDYID">
          <Description>
            <TranslatedText xml:lang="en">Study Identifier</TranslatedText>
          </Description>
          <def:Origin Type="OTHER"/>
        </ItemDef>
        <ItemDef OID="IT.SUPPDS.USUBJID" Name="USUBJID" DataType="text" Length="14" SASFieldName="USUBJID">
          <Description>
            <TranslatedText xml:lang="en">Unique Subject Identifier</TranslatedText>
          </Description>
          <def:Origin Type="OTHER"/>
        </ItemDef>
        <ItemDef OID="IT.SUPPLB.IDVAR" Name="IDVAR" DataType="text" Length="5" SASFieldName="IDVAR">
          <Description>
            <TranslatedText xml:lang="en">Identifying Variable</TranslatedText>
          </Description>
          <def:Origin Type="OTHER"/>
        </ItemDef>
        <ItemDef OID="IT.SUPPLB.IDVARVAL" Name="IDVARVAL" DataType="text" Length="3" SASFieldName="IDVARVAL">
          <Description>
            <TranslatedText xml:lang="en">Identifying Variable Value</TranslatedText>
          </Description>
          <def:Origin Type="OTHER"/>
        </ItemDef>
        <ItemDef OID="IT.SUPPLB.QLABEL" Name="QLABEL" DataType="text" Length="12" SASFieldName="QLABEL">
          <Description>
            <TranslatedText xml:lang="en">Qualifier Variable Label</TranslatedText>
          </Description>
          <def:Origin Type="OTHER"/>
        </ItemDef>
        <ItemDef OID="IT.SUPPLB.QNAM" Name="QNAM" DataType="text" Length="8" SASFieldName="QNAM">
          <Description>
            <TranslatedText xml:lang="en">Qualifier Variable Name</TranslatedText>
          </Description>
          <def:Origin Type="OTHER"/>
        </ItemDef>
        <ItemDef OID="IT.SUPPLB.QORIG" Name="QORIG" DataType="text" Length="9" SASFieldName="QORIG">
          <Description>
            <TranslatedText xml:lang="en">Origin</TranslatedText>
          </Description>
          <def:Origin Type="OTHER"/>
        </ItemDef>
        <ItemDef OID="IT.SUPPLB.QVAL" Name="QVAL" DataType="text" Length="7" SASFieldName="QVAL">
          <Description>
            <TranslatedText xml:lang="en">Data Value</TranslatedText>
          </Description>
          <def:Origin Type="OTHER"/>
          <def:ValueListRef ValueListOID="VL.SUPPLB.QVAL"/>
        </ItemDef>
        <ItemDef OID="IT.SUPPLB.QVAL.PHASEDAY" Name="PHASEDAY" DataType="integer" Length="3" SASFieldName="PHASEDAY">
          <Description>
            <TranslatedText xml:lang="en">PHASEDAY</TranslatedText>
          </Description>
          <def:Origin Type="OTHER"/>
        </ItemDef>
        <ItemDef OID="IT.SUPPLB.QVAL.PHSENAME" Name="PHSENAME" DataType="text" Length="64" SASFieldName="PHSENAME">
          <Description>
            <TranslatedText xml:lang="en">PHSENAME</TranslatedText>
          </Description>
          <def:Origin Type="OTHER"/>
        </ItemDef>
        <ItemDef OID="IT.SUPPLB.RDOMAIN" Name="RDOMAIN" DataType="text" Length="2" SASFieldName="RDOMAIN">
          <Description>
            <TranslatedText xml:lang="en">Related Domain Abbreviation</TranslatedText>
          </Description>
          <CodeListRef CodeListOID="SDOMAIN"/>
          <def:Origin Type="OTHER"/>
        </ItemDef>
        <ItemDef OID="IT.SUPPLB.STUDYID" Name="STUDYID" DataType="text" Length="7" SASFieldName="STUDYID">
          <Description>
            <TranslatedText xml:lang="en">Study Identifier</TranslatedText>
          </Description>
          <def:Origin Type="OTHER"/>
        </ItemDef>
        <ItemDef OID="IT.SUPPLB.USUBJID" Name="USUBJID" DataType="text" Length="14" SASFieldName="USUBJID">
          <Description>
            <TranslatedText xml:lang="en">Unique Subject Identifier</TranslatedText>
          </Description>
          <def:Origin Type="OTHER"/>
        </ItemDef>
        <ItemDef OID="IT.TA.ARM" Name="ARM" DataType="text" Length="4" SASFieldName="ARM">
          <Description>
            <TranslatedText xml:lang="en">Description of Planned Arm</TranslatedText>
          </Description>
          <def:Origin Type="OTHER"/>
        </ItemDef>
        <ItemDef OID="IT.TA.ARMCD" Name="ARMCD" DataType="text" Length="1" SASFieldName="ARMCD">
          <Description>
            <TranslatedText xml:lang="en">Planned Arm Code</TranslatedText>
          </Description>
          <def:Origin Type="OTHER"/>
        </ItemDef>
        <ItemDef OID="IT.TA.DOMAIN" Name="DOMAIN" DataType="text" Length="2" SASFieldName="DOMAIN">
          <Description>
            <TranslatedText xml:lang="en">Domain Abbreviation</TranslatedText>
          </Description>
          <CodeListRef CodeListOID="SDOMAIN"/>
          <def:Origin Type="OTHER"/>
        </ItemDef>
        <ItemDef OID="IT.TA.ELEMENT" Name="ELEMENT" DataType="text" Length="36" SASFieldName="ELEMENT">
          <Description>
            <TranslatedText xml:lang="en">Description of Element</TranslatedText>
          </Description>
          <def:Origin Type="OTHER"/>
        </ItemDef>
        <ItemDef OID="IT.TA.EPOCH" Name="EPOCH" DataType="text" Length="7" SASFieldName="EPOCH">
          <Description>
            <TranslatedText xml:lang="en">Trial Epoch</TranslatedText>
          </Description>
          <def:Origin Type="OTHER"/>
        </ItemDef>
        <ItemDef OID="IT.TA.ETCD" Name="ETCD" DataType="text" Length="5" SASFieldName="ETCD">
          <Description>
            <TranslatedText xml:lang="en">Element Code</TranslatedText>
          </Description>
          <def:Origin Type="OTHER"/>
        </ItemDef>
        <ItemDef OID="IT.TA.STUDYID" Name="STUDYID" DataType="text" Length="7" SASFieldName="STUDYID">
          <Description>
            <TranslatedText xml:lang="en">Study Identifier</TranslatedText>
          </Description>
          <def:Origin Type="OTHER"/>
        </ItemDef>
        <ItemDef OID="IT.TA.TAETORD" Name="TAETORD" DataType="integer" Length="8" SASFieldName="TAETORD">
          <Description>
            <TranslatedText xml:lang="en">Order of Element within Arm</TranslatedText>
          </Description>
          <def:Origin Type="OTHER"/>
        </ItemDef>
        <ItemDef OID="IT.TE.DOMAIN" Name="DOMAIN" DataType="text" Length="2" SASFieldName="DOMAIN">
          <Description>
            <TranslatedText xml:lang="en">Domain Abbreviation</TranslatedText>
          </Description>
          <CodeListRef CodeListOID="SDOMAIN"/>
          <def:Origin Type="OTHER"/>
        </ItemDef>
        <ItemDef OID="IT.TE.ELEMENT" Name="ELEMENT" DataType="text" Length="36" SASFieldName="ELEMENT">
          <Description>
            <TranslatedText xml:lang="en">Description of Element</TranslatedText>
          </Description>
          <def:Origin Type="OTHER"/>
        </ItemDef>
        <ItemDef OID="IT.TE.ETCD" Name="ETCD" DataType="text" Length="5" SASFieldName="ETCD">
          <Description>
            <TranslatedText xml:lang="en">Element Code</TranslatedText>
          </Description>
          <def:Origin Type="OTHER"/>
        </ItemDef>
        <ItemDef OID="IT.TE.STUDYID" Name="STUDYID" DataType="text" Length="7" SASFieldName="STUDYID">
          <Description>
            <TranslatedText xml:lang="en">Study Identifier</TranslatedText>
          </Description>
          <def:Origin Type="OTHER"/>
        </ItemDef>
        <ItemDef OID="IT.TE.TEDUR" Name="TEDUR" DataType="text" Length="4" SASFieldName="TEDUR">
          <Description>
            <TranslatedText xml:lang="en">Planned Duration of Element</TranslatedText>
          </Description>
          <def:Origin Type="OTHER"/>
        </ItemDef>
        <ItemDef OID="IT.TE.TEENRL" Name="TEENRL" DataType="text" Length="31" SASFieldName="TEENRL">
          <Description>
            <TranslatedText xml:lang="en">Rule for End of Element</TranslatedText>
          </Description>
          <def:Origin Type="OTHER"/>
        </ItemDef>
        <ItemDef OID="IT.TE.TESTRL" Name="TESTRL" DataType="text" Length="19" SASFieldName="TESTRL">
          <Description>
            <TranslatedText xml:lang="en">Rule for Start of Element</TranslatedText>
          </Description>
          <def:Origin Type="OTHER"/>
        </ItemDef>
        <ItemDef OID="IT.TS.DOMAIN" Name="DOMAIN" DataType="text" Length="2" SASFieldName="DOMAIN">
          <Description>
            <TranslatedText xml:lang="en">Domain Abbreviation</TranslatedText>
          </Description>
          <CodeListRef CodeListOID="SDOMAIN"/>
          <def:Origin Type="OTHER"/>
        </ItemDef>
        <ItemDef OID="IT.TS.STUDYID" Name="STUDYID" DataType="text" Length="7" SASFieldName="STUDYID">
          <Description>
            <TranslatedText xml:lang="en">Study Identifier</TranslatedText>
          </Description>
          <def:Origin Type="OTHER"/>
        </ItemDef>
        <ItemDef OID="IT.TS.TSGRPID" Name="TSGRPID" DataType="text" Length="1" SASFieldName="TSGRPID">
          <Description>
            <TranslatedText xml:lang="en">Group Identifier</TranslatedText>
          </Description>
          <def:Origin Type="OTHER"/>
        </ItemDef>
        <ItemDef OID="IT.TS.TSPARM" Name="TSPARM" DataType="text" Length="37" SASFieldName="TSPARM">
          <Description>
            <TranslatedText xml:lang="en">Trial Summary Parameter</TranslatedText>
          </Description>
          <CodeListRef CodeListOID="STSPRM"/>
          <def:Origin Type="OTHER"/>
        </ItemDef>
        <ItemDef OID="IT.TS.TSPARMCD" Name="TSPARMCD" DataType="text" Length="8" SASFieldName="TSPARMCD">
          <Description>
            <TranslatedText xml:lang="en">Trial Summary Parameter Short Name</TranslatedText>
          </Description>
          <CodeListRef CodeListOID="STSPRMCD"/>
          <def:Origin Type="OTHER"/>
        </ItemDef>
        <ItemDef OID="IT.TS.TSSEQ" Name="TSSEQ" DataType="integer" Length="8" SASFieldName="TSSEQ">
          <Description>
            <TranslatedText xml:lang="en">Sequence Number</TranslatedText>
          </Description>
          <def:Origin Type="OTHER"/>
        </ItemDef>
        <ItemDef OID="IT.TS.TSVAL" Name="TSVAL" DataType="text" Length="96" SASFieldName="TSVAL">
          <Description>
            <TranslatedText xml:lang="en">Parameter Value</TranslatedText>
          </Description>
          <def:Origin Type="OTHER"/>
          <def:ValueListRef ValueListOID="VL.TS.TSVAL"/>
        </ItemDef>
        <ItemDef OID="IT.TS.TSVAL.AGEU" Name="AGEU" DataType="text" Length="200" SASFieldName="AGEU">
          <Description>
            <TranslatedText xml:lang="en">AGEU</TranslatedText>
          </Description>
          <CodeListRef CodeListOID="AGEU"/>
          <def:Origin Type="OTHER"/>
        </ItemDef>
        <ItemDef OID="IT.TS.TSVAL.ROUTE" Name="ROUTE" DataType="text" Length="200" SASFieldName="ROUTE">
          <Description>
            <TranslatedText xml:lang="en">ROUTE</TranslatedText>
          </Description>
          <CodeListRef CodeListOID="ROUTE"/>
          <def:Origin Type="OTHER"/>
        </ItemDef>
        <ItemDef OID="IT.TS.TSVAL.SDESIGN" Name="SDESIGN" DataType="text" Length="200" SASFieldName="SDESIGN">
          <Description>
            <TranslatedText xml:lang="en">SDESIGN</TranslatedText>
          </Description>
          <CodeListRef CodeListOID="DESIGN"/>
          <def:Origin Type="OTHER"/>
        </ItemDef>
        <ItemDef OID="IT.TS.TSVAL.SEXPOP" Name="SEXPOP" DataType="text" Length="200" SASFieldName="SEXPOP">
          <Description>
            <TranslatedText xml:lang="en">SEXPOP</TranslatedText>
          </Description>
          <CodeListRef CodeListOID="SEXPOP"/>
          <def:Origin Type="OTHER"/>
        </ItemDef>
        <ItemDef OID="IT.TS.TSVAL.SNDIGVER" Name="SNDIGVER" DataType="text" Length="200" SASFieldName="SNDIGVER">
          <Description>
            <TranslatedText xml:lang="en">SNDIGVER</TranslatedText>
          </Description>
          <CodeListRef CodeListOID="SNDIGVER"/>
          <def:Origin Type="OTHER"/>
        </ItemDef>
        <ItemDef OID="IT.TS.TSVAL.SPECIES" Name="SPECIES" DataType="text" Length="200" SASFieldName="SPECIES">
          <Description>
            <TranslatedText xml:lang="en">SPECIES</TranslatedText>
          </Description>
          <CodeListRef CodeListOID="SPECIES"/>
          <def:Origin Type="OTHER"/>
        </ItemDef>
        <ItemDef OID="IT.TS.TSVAL.SSTYP" Name="SSTYP" DataType="text" Length="200" SASFieldName="SSTYP">
          <Description>
            <TranslatedText xml:lang="en">SSTYP</TranslatedText>
          </Description>
          <CodeListRef CodeListOID="SSTYP"/>
          <def:Origin Type="OTHER"/>
        </ItemDef>
        <ItemDef OID="IT.TS.TSVAL.STCAT" Name="STCAT" DataType="text" Length="200" SASFieldName="STCAT">
          <Description>
            <TranslatedText xml:lang="en">STCAT</TranslatedText>
          </Description>
          <CodeListRef CodeListOID="STCAT"/>
          <def:Origin Type="OTHER"/>
        </ItemDef>
        <ItemDef OID="IT.TS.TSVAL.STITLE" Name="STITLE" DataType="text" Length="200" SASFieldName="STITLE">
          <Description>
            <TranslatedText xml:lang="en">STITLE</TranslatedText>
          </Description>
          <def:Origin Type="OTHER"/>
        </ItemDef>
        <ItemDef OID="IT.TS.TSVAL.STRAIN" Name="STRAIN" DataType="text" Length="200" SASFieldName="STRAIN">
          <Description>
            <TranslatedText xml:lang="en">STRAIN</TranslatedText>
          </Description>
          <CodeListRef CodeListOID="STRAIN"/>
          <def:Origin Type="OTHER"/>
        </ItemDef>
        <ItemDef OID="IT.TS.TSVAL.TFCNTRY" Name="TFCNTRY" DataType="text" Length="200" SASFieldName="TFCNTRY">
          <Description>
            <TranslatedText xml:lang="en">TFCNTRY</TranslatedText>
          </Description>
          <CodeListRef CodeListOID="COUNTRY"/>
          <def:Origin Type="OTHER"/>
        </ItemDef>
        <ItemDef OID="IT.TS.TSVAL.TRT" Name="TRT" DataType="text" Length="200" SASFieldName="TRT">
          <Description>
            <TranslatedText xml:lang="en">TRT</TranslatedText>
          </Description>
          <def:Origin Type="OTHER"/>
        </ItemDef>
        <ItemDef OID="IT.TS.TSVALNF" Name="TSVALNF" DataType="text" Length="14" SASFieldName="TSVALNF">
          <Description>
            <TranslatedText xml:lang="en">Parameter Null Flavor</TranslatedText>
          </Description>
          <CodeListRef CodeListOID="NULLFLAV"/>
          <def:Origin Type="OTHER"/>
        </ItemDef>
        <ItemDef OID="IT.TX.DOMAIN" Name="DOMAIN" DataType="text" Length="2" SASFieldName="DOMAIN">
          <Description>
            <TranslatedText xml:lang="en">Domain Abbreviation</TranslatedText>
          </Description>
          <CodeListRef CodeListOID="SDOMAIN"/>
          <def:Origin Type="OTHER"/>
        </ItemDef>
        <ItemDef OID="IT.TX.SET" Name="SET" DataType="text" Length="4" SASFieldName="SET">
          <Description>
            <TranslatedText xml:lang="en">Set Description</TranslatedText>
          </Description>
          <def:Origin Type="OTHER"/>
        </ItemDef>
        <ItemDef OID="IT.TX.SETCD" Name="SETCD" DataType="text" Length="1" SASFieldName="SETCD">
          <Description>
            <TranslatedText xml:lang="en">Set Code</TranslatedText>
          </Description>
          <def:Origin Type="OTHER"/>
        </ItemDef>
        <ItemDef OID="IT.TX.STUDYID" Name="STUDYID" DataType="text" Length="7" SASFieldName="STUDYID">
          <Description>
            <TranslatedText xml:lang="en">Study Identifier</TranslatedText>
          </Description>
          <def:Origin Type="OTHER"/>
        </ItemDef>
        <ItemDef OID="IT.TX.TXPARM" Name="TXPARM" DataType="text" Length="33" SASFieldName="TXPARM">
          <Description>
            <TranslatedText xml:lang="en">Trial Set Parameter</TranslatedText>
          </Description>
          <CodeListRef CodeListOID="STSPRM"/>
          <def:Origin Type="OTHER"/>
        </ItemDef>
        <ItemDef OID="IT.TX.TXPARMCD" Name="TXPARMCD" DataType="text" Length="8" SASFieldName="TXPARMCD">
          <Description>
            <TranslatedText xml:lang="en">Trial Set Parameter Short Name</TranslatedText>
          </Description>
          <CodeListRef CodeListOID="STSPRMCD"/>
          <def:Origin Type="OTHER"/>
        </ItemDef>
        <ItemDef OID="IT.TX.TXSEQ" Name="TXSEQ" DataType="integer" Length="8" SASFieldName="TXSEQ">
          <Description>
            <TranslatedText xml:lang="en">Sequence Number</TranslatedText>
          </Description>
          <def:Origin Type="OTHER"/>
        </ItemDef>
        <ItemDef OID="IT.TX.TXVAL" Name="TXVAL" DataType="text" Length="36" SASFieldName="TXVAL">
          <Description>
            <TranslatedText xml:lang="en">Trial Set Parameter Value</TranslatedText>
          </Description>
          <def:Origin Type="OTHER"/>
          <def:ValueListRef ValueListOID="VL.TX.TXVAL"/>
        </ItemDef>
        <ItemDef OID="IT.TX.TXVAL.GRPLBL" Name="GRPLBL" DataType="text" Length="200" SASFieldName="GRPLBL">
          <Description>
            <TranslatedText xml:lang="en">GRPLBL</TranslatedText>
          </Description>
          <def:Origin Type="OTHER"/>
        </ItemDef>
        <ItemDef OID="IT.TX.TXVAL.SPGRPCD" Name="SPGRPCD" DataType="text" Length="200" SASFieldName="SPGRPCD">
          <Description>
            <TranslatedText xml:lang="en">SPGRPCD</TranslatedText>
          </Description>
          <def:Origin Type="OTHER"/>
        </ItemDef>
        <ItemDef OID="IT.a18dd54c-a3c0-40f2" Name="ISSPEC" DataType="text" Length="11" SASFieldName="LBSPEC">
          <Description>
            <TranslatedText xml:lang="en">Specimen Material Type</TranslatedText>
          </Description>
          <CodeListRef CodeListOID="SPEC"/>
          <def:Origin Type="OTHER"/>
        </ItemDef>
        <ItemDef OID="IT.a5fe98d3-9062-4b5f" Name="PHASEDAY" DataType="integer" Length="3" SASFieldName="PHASEDAY">
          <Description>
            <TranslatedText xml:lang="en">PHASEDAY</TranslatedText>
          </Description>
          <def:Origin Type="OTHER"/>
        </ItemDef>
        <ItemDef OID="IT.a7c4ce4e-aef6-460d" Name="QVAL" DataType="text" Length="7" SASFieldName="QVAL">
          <Description>
            <TranslatedText xml:lang="en">Data Value</TranslatedText>
          </Description>
          <def:Origin Type="OTHER"/>
          <def:ValueListRef ValueListOID="VL.871e28ea-8467-4cf4"/>
        </ItemDef>
        <ItemDef OID="IT.bfb4fc85-b376-424e" Name="QNAM" DataType="text" Length="8" SASFieldName="QNAM">
          <Description>
            <TranslatedText xml:lang="en">Qualifier Variable Name</TranslatedText>
          </Description>
          <def:Origin Type="OTHER"/>
        </ItemDef>
        <ItemDef OID="IT.c113593a-90c0-49ed" Name="IDVAR" DataType="text" Length="5" SASFieldName="IDVAR">
          <Description>
            <TranslatedText xml:lang="en">Identifying Variable</TranslatedText>
          </Description>
          <def:Origin Type="OTHER"/>
        </ItemDef>
        <ItemDef OID="IT.c6766d44-8996-44be" Name="ISNOMDY" DataType="integer" Length="8" SASFieldName="LBNOMDY">
          <Description>
            <TranslatedText xml:lang="en">Nominal Study Day for Tabulations</TranslatedText>
          </Description>
          <def:Origin Type="DERIVED"/>
        </ItemDef>
        <ItemDef OID="IT.c9011a24-8a9e-4d28" Name="ISBLFL" DataType="text" Length="1" SASFieldName="LBBLFL">
          <Description>
            <TranslatedText xml:lang="en">Baseline Flag</TranslatedText>
          </Description>
          <CodeListRef CodeListOID="NY"/>
          <def:Origin Type="DERIVED"/>
        </ItemDef>
        <ItemDef OID="IT.cbd1625e-8cd5-498f" Name="ISSEQ" DataType="integer" Length="8" SASFieldName="LBSEQ">
          <Description>
            <TranslatedText xml:lang="en">Sequence Number</TranslatedText>
          </Description>
          <def:Origin Type="OTHER"/>
        </ItemDef>
        <ItemDef OID="IT.cc4c63b6-8d1a-404e" Name="USUBJID" DataType="text" Length="14" SASFieldName="USUBJID">
          <Description>
            <TranslatedText xml:lang="en">Unique Subject Identifier</TranslatedText>
          </Description>
          <def:Origin Type="OTHER"/>
        </ItemDef>
        <ItemDef OID="IT.cd75dada-a378-4f77" Name="USUBJID" DataType="text" Length="14" SASFieldName="USUBJID">
          <Description>
            <TranslatedText xml:lang="en">Unique Subject Identifier</TranslatedText>
          </Description>
          <def:Origin Type="OTHER"/>
        </ItemDef>
        <ItemDef OID="IT.cf62f2a4-89c6-4ba5" Name="ISLOC" DataType="text" Length="12" SASFieldName="LBLOC">
          <Description>
            <TranslatedText xml:lang="en">Specimen Collection Location</TranslatedText>
          </Description>
          <def:Origin Type="OTHER"/>
        </ItemDef>
        <ItemDef OID="IT.d7154932-ba71-4edc" Name="PHSENAME" DataType="text" Length="64" SASFieldName="PHSENAME">
          <Description>
            <TranslatedText xml:lang="en">PHSENAME</TranslatedText>
          </Description>
          <def:Origin Type="OTHER"/>
        </ItemDef>
        <ItemDef OID="IT.dfba3bc2-8b0e-4e5b" Name="ISLLOQ" DataType="integer" Length="3" SASFieldName="ISLLOQ">
          <Description>
            <TranslatedText xml:lang="en">Lower Limit of Quantitation</TranslatedText>
          </Description>
          <def:Origin Type="OTHER"/>
        </ItemDef>
        <ItemDef OID="IT.e3bde74c-9d92-40c9" Name="ISORRESU" DataType="text" Length="7" SASFieldName="LBORRESU">
          <Description>
            <TranslatedText xml:lang="en">Original Units</TranslatedText>
          </Description>
          <def:Origin Type="COLLECTED"/>
        </ItemDef>
        <ItemDef OID="IT.ec0cdd96-ae0d-45b8" Name="ISFAST" DataType="text" Length="1" SASFieldName="ISFAST">
          <Description>
            <TranslatedText xml:lang="en">Fasting Status</TranslatedText>
          </Description>
          <CodeListRef CodeListOID="NY"/>
          <def:Origin Type="OTHER"/>
        </ItemDef>
        <!-- ******************** -->
        <!-- Codelist Definitions -->
        <!-- ******************** -->
        <CodeList OID="AGEU" Name="Age Unit" DataType="text">
          <EnumeratedItem CodedValue="YEARS" OrderNumber="1">
            <Alias Context="nci:ExtCodeID" Name="C29848"/>
          </EnumeratedItem>
          <Alias Context="nci:ExtCodeID" Name="C66781"/>
        </CodeList>
        <CodeList OID="BGTEST" Name="Body Weight Gain Test Name" DataType="text">
          <EnumeratedItem CodedValue="Body Weight Gain" OrderNumber="1">
            <Alias Context="nci:ExtCodeID" Name="C62754"/>
          </EnumeratedItem>
          <Alias Context="nci:ExtCodeID" Name="C89959"/>
        </CodeList>
        <CodeList OID="BGTESTCD" Name="Body Weight Gain Test Code" DataType="text">
          <CodeListItem CodedValue="BWGAIN" OrderNumber="1">
            <Decode>
              <TranslatedText xml:lang="en">A change in overall body weight, relative to the beginning of the collection period.</TranslatedText>
            </Decode>
            <Alias Context="nci:ExtCodeID" Name="C62754"/>
          </CodeListItem>
          <Alias Context="nci:ExtCodeID" Name="C89960"/>
        </CodeList>
        <CodeList OID="BWTEST" Name="Body Weight Test Name" DataType="text">
          <EnumeratedItem CodedValue="Body Weight" OrderNumber="1">
            <Alias Context="nci:ExtCodeID" Name="C81328"/>
          </EnumeratedItem>
          <Alias Context="nci:ExtCodeID" Name="C89961"/>
        </CodeList>
        <CodeList OID="BWTESTCD" Name="Body Weight Test Code" DataType="text">
          <CodeListItem CodedValue="BW" OrderNumber="1">
            <Decode>
              <TranslatedText xml:lang="en">The weight of a subject. (NCI)</TranslatedText>
            </Decode>
            <Alias Context="nci:ExtCodeID" Name="C81328"/>
          </CodeListItem>
          <Alias Context="nci:ExtCodeID" Name="C89962"/>
        </CodeList>
        <CodeList OID="CLCAT" Name="Category for Clinical Observation" DataType="text">
          <EnumeratedItem CodedValue="CLINICAL SIGNS" OrderNumber="1">
            <Alias Context="nci:ExtCodeID" Name="C100104"/>
          </EnumeratedItem>
          <Alias Context="nci:ExtCodeID" Name="C89963"/>
        </CodeList>
        <CodeList OID="CLSCAT" Name="CLSCAT" DataType="text">
          <EnumeratedItem CodedValue="Discharge" OrderNumber="1" def:ExtendedValue="Yes"/>
          <EnumeratedItem CodedValue="Excretion" OrderNumber="2" def:ExtendedValue="Yes"/>
          <EnumeratedItem CodedValue="Physical Appearance" OrderNumber="3" def:ExtendedValue="Yes"/>
          <EnumeratedItem CodedValue="Vet Exam" OrderNumber="4" def:ExtendedValue="Yes"/>
        </CodeList>
        <CodeList OID="CLTEST" Name="CLTEST" DataType="text">
          <EnumeratedItem CodedValue="Clinical Observation" OrderNumber="1" def:ExtendedValue="Yes"/>
        </CodeList>
        <CodeList OID="CLTESTCD" Name="CLTESTCD" DataType="text">
          <CodeListItem CodedValue="CLNOB" OrderNumber="1" def:ExtendedValue="Yes">
            <Decode>
              <TranslatedText xml:lang="en">An assessment of clinical observations.</TranslatedText>
            </Decode>
          </CodeListItem>
        </CodeList>
        <CodeList OID="COUNTRY" Name="Country" DataType="text">
          <EnumeratedItem CodedValue="USA" OrderNumber="1">
            <Alias Context="nci:ExtCodeID" Name="C17234"/>
          </EnumeratedItem>
          <Alias Context="nci:ExtCodeID" Name="C66786"/>
        </CodeList>
        <CodeList OID="DESIGN" Name="Study Design" DataType="text">
          <EnumeratedItem CodedValue="PARALLEL" OrderNumber="1">
            <Alias Context="nci:ExtCodeID" Name="C82639"/>
          </EnumeratedItem>
          <Alias Context="nci:ExtCodeID" Name="C89967"/>
        </CodeList>
        <CodeList OID="DSDECOD" Name="Standardized Disposition Term" DataType="text">
          <EnumeratedItem CodedValue="REMOVED FROM STUDY ALIVE" OrderNumber="1">
            <Alias Context="nci:ExtCodeID" Name="C90447"/>
          </EnumeratedItem>
          <Alias Context="nci:ExtCodeID" Name="C89968"/>
        </CodeList>
        <CodeList OID="FREQ" Name="Frequency" DataType="text">
          <EnumeratedItem CodedValue="TWICE" OrderNumber="1">
            <Alias Context="nci:ExtCodeID" Name="C65134"/>
          </EnumeratedItem>
          <Alias Context="nci:ExtCodeID" Name="C71113"/>
        </CodeList>
        <CodeList OID="FRM" Name="Pharmaceutical Dosage Form" DataType="text">
          <EnumeratedItem CodedValue="SOLUTION" OrderNumber="1">
            <Alias Context="nci:ExtCodeID" Name="C42986"/>
          </EnumeratedItem>
          <Alias Context="nci:ExtCodeID" Name="C66726"/>
        </CodeList>
        <CodeList OID="LBCAT" Name="LBCAT" DataType="text">
          <EnumeratedItem CodedValue="CLINICAL CHEMISTRY" OrderNumber="1" def:ExtendedValue="Yes"/>
          <EnumeratedItem CodedValue="COAGULATION" OrderNumber="2" def:ExtendedValue="Yes"/>
          <EnumeratedItem CodedValue="HEMATOLOGY" OrderNumber="3" def:ExtendedValue="Yes"/>
          <EnumeratedItem CodedValue="URINALYSIS/URINE CHEMISTRY" OrderNumber="4" def:ExtendedValue="Yes"/>
        </CodeList>
        <CodeList OID="LBTEST" Name="Laboratory Test Name" DataType="text">
          <EnumeratedItem CodedValue="Activated Partial Thromboplastin Time" OrderNumber="1">
            <Alias Context="nci:ExtCodeID" Name="C38462"/>
          </EnumeratedItem>
          <EnumeratedItem CodedValue="Alanine Aminotransferase" OrderNumber="2">
            <Alias Context="nci:ExtCodeID" Name="C64433"/>
          </EnumeratedItem>
          <EnumeratedItem CodedValue="Albumin" OrderNumber="3">
            <Alias Context="nci:ExtCodeID" Name="C64431"/>
          </EnumeratedItem>
          <EnumeratedItem CodedValue="Albumin/Globulin" OrderNumber="4">
            <Alias Context="nci:ExtCodeID" Name="C74894"/>
          </EnumeratedItem>
          <EnumeratedItem CodedValue="Alkaline Phosphatase" OrderNumber="5">
            <Alias Context="nci:ExtCodeID" Name="C64432"/>
          </EnumeratedItem>
          <EnumeratedItem CodedValue="Anisocytes" OrderNumber="6">
            <Alias Context="nci:ExtCodeID" Name="C74797"/>
          </EnumeratedItem>
          <EnumeratedItem CodedValue="Aspartate Aminotransferase" OrderNumber="7">
            <Alias Context="nci:ExtCodeID" Name="C64467"/>
          </EnumeratedItem>
          <EnumeratedItem CodedValue="Bacteria" OrderNumber="8">
            <Alias Context="nci:ExtCodeID" Name="C64469"/>
          </EnumeratedItem>
          <EnumeratedItem CodedValue="Basophils" OrderNumber="9">
            <Alias Context="nci:ExtCodeID" Name="C64470"/>
          </EnumeratedItem>
          <EnumeratedItem CodedValue="Basophils/Leukocytes" OrderNumber="10">
            <Alias Context="nci:ExtCodeID" Name="C64471"/>
          </EnumeratedItem>
          <EnumeratedItem CodedValue="Bilirubin" OrderNumber="11">
            <Alias Context="nci:ExtCodeID" Name="C38037"/>
          </EnumeratedItem>
          <EnumeratedItem CodedValue="Calcium" OrderNumber="12">
            <Alias Context="nci:ExtCodeID" Name="C64488"/>
          </EnumeratedItem>
          <EnumeratedItem CodedValue="Casts" OrderNumber="13">
            <Alias Context="nci:ExtCodeID" Name="C74763"/>
          </EnumeratedItem>
          <EnumeratedItem CodedValue="Chloride" OrderNumber="14">
            <Alias Context="nci:ExtCodeID" Name="C64495"/>
          </EnumeratedItem>
          <EnumeratedItem CodedValue="Cholesterol" OrderNumber="15">
            <Alias Context="nci:ExtCodeID" Name="C105586"/>
          </EnumeratedItem>
          <EnumeratedItem CodedValue="Clarity" OrderNumber="16">
            <Alias Context="nci:ExtCodeID" Name="C96594"/>
          </EnumeratedItem>
          <EnumeratedItem CodedValue="Color" OrderNumber="17">
            <Alias Context="nci:ExtCodeID" Name="C64546"/>
          </EnumeratedItem>
          <EnumeratedItem CodedValue="Creatine Kinase" OrderNumber="18">
            <Alias Context="nci:ExtCodeID" Name="C64489"/>
          </EnumeratedItem>
          <EnumeratedItem CodedValue="Creatinine" OrderNumber="19">
            <Alias Context="nci:ExtCodeID" Name="C64547"/>
          </EnumeratedItem>
          <EnumeratedItem CodedValue="Crystals" OrderNumber="20">
            <Alias Context="nci:ExtCodeID" Name="C74673"/>
          </EnumeratedItem>
          <EnumeratedItem CodedValue="Direct Bilirubin" OrderNumber="21">
            <Alias Context="nci:ExtCodeID" Name="C64481"/>
          </EnumeratedItem>
          <EnumeratedItem CodedValue="Eosinophils" OrderNumber="22">
            <Alias Context="nci:ExtCodeID" Name="C64550"/>
          </EnumeratedItem>
          <EnumeratedItem CodedValue="Eosinophils/Leukocytes" OrderNumber="23">
            <Alias Context="nci:ExtCodeID" Name="C64604"/>
          </EnumeratedItem>
          <EnumeratedItem CodedValue="Epithelial Cells" OrderNumber="24">
            <Alias Context="nci:ExtCodeID" Name="C64605"/>
          </EnumeratedItem>
          <EnumeratedItem CodedValue="Ery. Mean Corpuscular HGB Concentration" OrderNumber="25">
            <Alias Context="nci:ExtCodeID" Name="C64798"/>
          </EnumeratedItem>
          <EnumeratedItem CodedValue="Ery. Mean Corpuscular Hemoglobin" OrderNumber="26">
            <Alias Context="nci:ExtCodeID" Name="C64797"/>
          </EnumeratedItem>
          <EnumeratedItem CodedValue="Ery. Mean Corpuscular Volume" OrderNumber="27">
            <Alias Context="nci:ExtCodeID" Name="C64799"/>
          </EnumeratedItem>
          <EnumeratedItem CodedValue="Erythrocytes" OrderNumber="28">
            <Alias Context="nci:ExtCodeID" Name="C51946"/>
          </EnumeratedItem>
          <EnumeratedItem CodedValue="Gamma Glutamyl Transferase" OrderNumber="29">
            <Alias Context="nci:ExtCodeID" Name="C64847"/>
          </EnumeratedItem>
          <EnumeratedItem CodedValue="Globulin" OrderNumber="30">
            <Alias Context="nci:ExtCodeID" Name="C74738"/>
          </EnumeratedItem>
          <EnumeratedItem CodedValue="Glucose" OrderNumber="31">
            <Alias Context="nci:ExtCodeID" Name="C105585"/>
          </EnumeratedItem>
          <EnumeratedItem CodedValue="Hematocrit" OrderNumber="32">
            <Alias Context="nci:ExtCodeID" Name="C64796"/>
          </EnumeratedItem>
          <EnumeratedItem CodedValue="Hemoglobin" OrderNumber="33">
            <Alias Context="nci:ExtCodeID" Name="C64848"/>
          </EnumeratedItem>
          <EnumeratedItem CodedValue="Hypochromia" OrderNumber="34">
            <Alias Context="nci:ExtCodeID" Name="C64802"/>
          </EnumeratedItem>
          <EnumeratedItem CodedValue="Ketones" OrderNumber="35">
            <Alias Context="nci:ExtCodeID" Name="C64854"/>
          </EnumeratedItem>
          <EnumeratedItem CodedValue="Large Unstained Cells" OrderNumber="36">
            <Alias Context="nci:ExtCodeID" Name="C74659"/>
          </EnumeratedItem>
          <EnumeratedItem CodedValue="Large Unstained Cells/Leukocytes" OrderNumber="37">
            <Alias Context="nci:ExtCodeID" Name="C79467"/>
          </EnumeratedItem>
          <EnumeratedItem CodedValue="Leukocytes" OrderNumber="38">
            <Alias Context="nci:ExtCodeID" Name="C51948"/>
          </EnumeratedItem>
          <EnumeratedItem CodedValue="Lymphocytes" OrderNumber="39">
            <Alias Context="nci:ExtCodeID" Name="C51949"/>
          </EnumeratedItem>
          <EnumeratedItem CodedValue="Lymphocytes/Leukocytes" OrderNumber="40">
            <Alias Context="nci:ExtCodeID" Name="C64820"/>
          </EnumeratedItem>
          <EnumeratedItem CodedValue="Monocytes" OrderNumber="41">
            <Alias Context="nci:ExtCodeID" Name="C64823"/>
          </EnumeratedItem>
          <EnumeratedItem CodedValue="Monocytes/Leukocytes" OrderNumber="42">
            <Alias Context="nci:ExtCodeID" Name="C64824"/>
          </EnumeratedItem>
          <EnumeratedItem CodedValue="Neutrophils" OrderNumber="43">
            <Alias Context="nci:ExtCodeID" Name="C63321"/>
          </EnumeratedItem>
          <EnumeratedItem CodedValue="Neutrophils/Leukocytes" OrderNumber="44">
            <Alias Context="nci:ExtCodeID" Name="C64827"/>
          </EnumeratedItem>
          <EnumeratedItem CodedValue="Occult Blood" OrderNumber="45">
            <Alias Context="nci:ExtCodeID" Name="C74686"/>
          </EnumeratedItem>
          <EnumeratedItem CodedValue="Other Urine Microscopic Findings" OrderNumber="46" def:ExtendedValue="Yes"/>
          <EnumeratedItem CodedValue="Phosphate" OrderNumber="47">
            <Alias Context="nci:ExtCodeID" Name="C64857"/>
          </EnumeratedItem>
          <EnumeratedItem CodedValue="Platelets" OrderNumber="48">
            <Alias Context="nci:ExtCodeID" Name="C51951"/>
          </EnumeratedItem>
          <EnumeratedItem CodedValue="Poikilocytes" OrderNumber="49">
            <Alias Context="nci:ExtCodeID" Name="C79602"/>
          </EnumeratedItem>
          <EnumeratedItem CodedValue="Polychromasia" OrderNumber="50">
            <Alias Context="nci:ExtCodeID" Name="C64803"/>
          </EnumeratedItem>
          <EnumeratedItem CodedValue="Potassium" OrderNumber="51">
            <Alias Context="nci:ExtCodeID" Name="C64853"/>
          </EnumeratedItem>
          <EnumeratedItem CodedValue="Protein" OrderNumber="52">
            <Alias Context="nci:ExtCodeID" Name="C64858"/>
          </EnumeratedItem>
          <EnumeratedItem CodedValue="Prothrombin Time" OrderNumber="53">
            <Alias Context="nci:ExtCodeID" Name="C62656"/>
          </EnumeratedItem>
          <EnumeratedItem CodedValue="Reticulocytes" OrderNumber="54">
            <Alias Context="nci:ExtCodeID" Name="C51947"/>
          </EnumeratedItem>
          <EnumeratedItem CodedValue="Reticulocytes/Erythrocytes" OrderNumber="55">
            <Alias Context="nci:ExtCodeID" Name="C64828"/>
          </EnumeratedItem>
          <EnumeratedItem CodedValue="Sodium" OrderNumber="56">
            <Alias Context="nci:ExtCodeID" Name="C64809"/>
          </EnumeratedItem>
          <EnumeratedItem CodedValue="Specific Gravity" OrderNumber="57">
            <Alias Context="nci:ExtCodeID" Name="C64832"/>
          </EnumeratedItem>
          <EnumeratedItem CodedValue="Toxic Granulation" OrderNumber="58">
            <Alias Context="nci:ExtCodeID" Name="C96641"/>
          </EnumeratedItem>
          <EnumeratedItem CodedValue="Triglycerides" OrderNumber="59">
            <Alias Context="nci:ExtCodeID" Name="C64812"/>
          </EnumeratedItem>
          <EnumeratedItem CodedValue="Unclassified Casts" OrderNumber="60">
            <Alias Context="nci:ExtCodeID" Name="C74776"/>
          </EnumeratedItem>
          <EnumeratedItem CodedValue="Unclassified Crystals" OrderNumber="61">
            <Alias Context="nci:ExtCodeID" Name="C74757"/>
          </EnumeratedItem>
          <EnumeratedItem CodedValue="Urea Nitrogen" OrderNumber="62">
            <Alias Context="nci:ExtCodeID" Name="C125949"/>
          </EnumeratedItem>
          <EnumeratedItem CodedValue="Urobilinogen" OrderNumber="63">
            <Alias Context="nci:ExtCodeID" Name="C64816"/>
          </EnumeratedItem>
          <EnumeratedItem CodedValue="Volume" OrderNumber="64">
            <Alias Context="nci:ExtCodeID" Name="C74720"/>
          </EnumeratedItem>
          <EnumeratedItem CodedValue="pH" OrderNumber="65">
            <Alias Context="nci:ExtCodeID" Name="C45997"/>
          </EnumeratedItem>
          <Alias Context="nci:ExtCodeID" Name="C67154"/>
        </CodeList>
        <CodeList OID="LBTESTCD" Name="Laboratory Test Code" DataType="text">
          <CodeListItem CodedValue="ALB" OrderNumber="1">
            <Decode>
              <TranslatedText xml:lang="en">A measurement of the albumin protein in a biological specimen.</TranslatedText>
            </Decode>
            <Alias Context="nci:ExtCodeID" Name="C64431"/>
          </CodeListItem>
          <CodeListItem CodedValue="ALBGLOB" OrderNumber="2">
            <Decode>
              <TranslatedText xml:lang="en">The ratio of albumin to globulin in a biological specimen.</TranslatedText>
            </Decode>
            <Alias Context="nci:ExtCodeID" Name="C74894"/>
          </CodeListItem>
          <CodeListItem CodedValue="ALP" OrderNumber="3">
            <Decode>
              <TranslatedText xml:lang="en">A measurement of the alkaline phosphatase in a biological specimen.</TranslatedText>
            </Decode>
            <Alias Context="nci:ExtCodeID" Name="C64432"/>
          </CodeListItem>
          <CodeListItem CodedValue="ALT" OrderNumber="4">
            <Decode>
              <TranslatedText xml:lang="en">A measurement of the alanine aminotransferase in a biological specimen.</TranslatedText>
            </Decode>
            <Alias Context="nci:ExtCodeID" Name="C64433"/>
          </CodeListItem>
          <CodeListItem CodedValue="ANISO" OrderNumber="5">
            <Decode>
              <TranslatedText xml:lang="en">A measurement of the variability in the size of the red blood cells in a whole blood specimen.</TranslatedText>
            </Decode>
            <Alias Context="nci:ExtCodeID" Name="C74797"/>
          </CodeListItem>
          <CodeListItem CodedValue="APTT" OrderNumber="6">
            <Decode>
              <TranslatedText xml:lang="en">A measurement of the length of time that it takes for clotting to occur when reagents are added to a plasma specimen. The test is partial due to the absence of tissue factor (Factor III) from the reaction mixture.</TranslatedText>
            </Decode>
            <Alias Context="nci:ExtCodeID" Name="C38462"/>
          </CodeListItem>
          <CodeListItem CodedValue="AST" OrderNumber="7">
            <Decode>
              <TranslatedText xml:lang="en">A measurement of the aspartate aminotransferase in a biological specimen.</TranslatedText>
            </Decode>
            <Alias Context="nci:ExtCodeID" Name="C64467"/>
          </CodeListItem>
          <CodeListItem CodedValue="BACT" OrderNumber="8">
            <Decode>
              <TranslatedText xml:lang="en">A measurement of the bacteria in a biological specimen.</TranslatedText>
            </Decode>
            <Alias Context="nci:ExtCodeID" Name="C64469"/>
          </CodeListItem>
          <CodeListItem CodedValue="BASO" OrderNumber="9">
            <Decode>
              <TranslatedText xml:lang="en">A measurement of the basophils in a biological specimen.</TranslatedText>
            </Decode>
            <Alias Context="nci:ExtCodeID" Name="C64470"/>
          </CodeListItem>
          <CodeListItem CodedValue="BASOLE" OrderNumber="10">
            <Decode>
              <TranslatedText xml:lang="en">A relative measurement (ratio or percentage) of the basophils to leukocytes in a biological specimen.</TranslatedText>
            </Decode>
            <Alias Context="nci:ExtCodeID" Name="C64471"/>
          </CodeListItem>
          <CodeListItem CodedValue="BILDIR" OrderNumber="11">
            <Decode>
              <TranslatedText xml:lang="en">A measurement of the conjugated or water-soluble bilirubin in a biological specimen.</TranslatedText>
            </Decode>
            <Alias Context="nci:ExtCodeID" Name="C64481"/>
          </CodeListItem>
          <CodeListItem CodedValue="BILI" OrderNumber="12">
            <Decode>
              <TranslatedText xml:lang="en">A measurement of the total bilirubin in a biological specimen.</TranslatedText>
            </Decode>
            <Alias Context="nci:ExtCodeID" Name="C38037"/>
          </CodeListItem>
          <CodeListItem CodedValue="CA" OrderNumber="13">
            <Decode>
              <TranslatedText xml:lang="en">A measurement of the calcium in a biological specimen.</TranslatedText>
            </Decode>
            <Alias Context="nci:ExtCodeID" Name="C64488"/>
          </CodeListItem>
          <CodeListItem CodedValue="CASTS" OrderNumber="14">
            <Decode>
              <TranslatedText xml:lang="en">A statement that indicates casts were looked for in a biological specimen.</TranslatedText>
            </Decode>
            <Alias Context="nci:ExtCodeID" Name="C74763"/>
          </CodeListItem>
          <CodeListItem CodedValue="CHOL" OrderNumber="15">
            <Decode>
              <TranslatedText xml:lang="en">A measurement of the cholesterol in a biological specimen.</TranslatedText>
            </Decode>
            <Alias Context="nci:ExtCodeID" Name="C105586"/>
          </CodeListItem>
          <CodeListItem CodedValue="CK" OrderNumber="16">
            <Decode>
              <TranslatedText xml:lang="en">A measurement of the total creatine kinase in a biological specimen.</TranslatedText>
            </Decode>
            <Alias Context="nci:ExtCodeID" Name="C64489"/>
          </CodeListItem>
          <CodeListItem CodedValue="CL" OrderNumber="17">
            <Decode>
              <TranslatedText xml:lang="en">A measurement of the chloride in a biological specimen.</TranslatedText>
            </Decode>
            <Alias Context="nci:ExtCodeID" Name="C64495"/>
          </CodeListItem>
          <CodeListItem CodedValue="CLARITY" OrderNumber="18">
            <Decode>
              <TranslatedText xml:lang="en">A measurement of the transparency of a biological specimen.</TranslatedText>
            </Decode>
            <Alias Context="nci:ExtCodeID" Name="C96594"/>
          </CodeListItem>
          <CodeListItem CodedValue="COLOR" OrderNumber="19">
            <Decode>
              <TranslatedText xml:lang="en">A measurement of the color of a biological specimen.</TranslatedText>
            </Decode>
            <Alias Context="nci:ExtCodeID" Name="C64546"/>
          </CodeListItem>
          <CodeListItem CodedValue="CREAT" OrderNumber="20">
            <Decode>
              <TranslatedText xml:lang="en">A measurement of the creatinine in a biological specimen.</TranslatedText>
            </Decode>
            <Alias Context="nci:ExtCodeID" Name="C64547"/>
          </CodeListItem>
          <CodeListItem CodedValue="CRYSTALS" OrderNumber="21">
            <Decode>
              <TranslatedText xml:lang="en">A statement that indicates crystals were looked for in a biological specimen.</TranslatedText>
            </Decode>
            <Alias Context="nci:ExtCodeID" Name="C74673"/>
          </CodeListItem>
          <CodeListItem CodedValue="CSUNCLA" OrderNumber="22">
            <Decode>
              <TranslatedText xml:lang="en">A measurement of the unclassifiable casts present in a biological specimen.</TranslatedText>
            </Decode>
            <Alias Context="nci:ExtCodeID" Name="C74776"/>
          </CodeListItem>
          <CodeListItem CodedValue="CYUNCLA" OrderNumber="23">
            <Decode>
              <TranslatedText xml:lang="en">A measurement of the unclassifiable crystals present in a biological specimen.</TranslatedText>
            </Decode>
            <Alias Context="nci:ExtCodeID" Name="C74757"/>
          </CodeListItem>
          <CodeListItem CodedValue="EOS" OrderNumber="24">
            <Decode>
              <TranslatedText xml:lang="en">A measurement of the eosinophils in a biological specimen.</TranslatedText>
            </Decode>
            <Alias Context="nci:ExtCodeID" Name="C64550"/>
          </CodeListItem>
          <CodeListItem CodedValue="EOSLE" OrderNumber="25">
            <Decode>
              <TranslatedText xml:lang="en">A relative measurement (ratio or percentage) of the eosinophils to leukocytes in a biological specimen.</TranslatedText>
            </Decode>
            <Alias Context="nci:ExtCodeID" Name="C64604"/>
          </CodeListItem>
          <CodeListItem CodedValue="EPIC" OrderNumber="26">
            <Decode>
              <TranslatedText xml:lang="en">A measurement of the epithelial cells in a biological specimen.</TranslatedText>
            </Decode>
            <Alias Context="nci:ExtCodeID" Name="C64605"/>
          </CodeListItem>
          <CodeListItem CodedValue="GGT" OrderNumber="27">
            <Decode>
              <TranslatedText xml:lang="en">A measurement of the gamma glutamyl transferase in a biological specimen.</TranslatedText>
            </Decode>
            <Alias Context="nci:ExtCodeID" Name="C64847"/>
          </CodeListItem>
          <CodeListItem CodedValue="GLOBUL" OrderNumber="28">
            <Decode>
              <TranslatedText xml:lang="en">A measurement of the globulin protein in a biological specimen.</TranslatedText>
            </Decode>
            <Alias Context="nci:ExtCodeID" Name="C74738"/>
          </CodeListItem>
          <CodeListItem CodedValue="GLUC" OrderNumber="29">
            <Decode>
              <TranslatedText xml:lang="en">A measurement of the glucose in a biological specimen.</TranslatedText>
            </Decode>
            <Alias Context="nci:ExtCodeID" Name="C105585"/>
          </CodeListItem>
          <CodeListItem CodedValue="HCT" OrderNumber="30">
            <Decode>
              <TranslatedText xml:lang="en">The percentage of a whole blood specimen that is composed of red blood cells (erythrocytes).</TranslatedText>
            </Decode>
            <Alias Context="nci:ExtCodeID" Name="C64796"/>
          </CodeListItem>
          <CodeListItem CodedValue="HGB" OrderNumber="31">
            <Decode>
              <TranslatedText xml:lang="en">A measurement of the total erythrocyte associated hemoglobin in a biological specimen.</TranslatedText>
            </Decode>
            <Alias Context="nci:ExtCodeID" Name="C64848"/>
          </CodeListItem>
          <CodeListItem CodedValue="HPOCROM" OrderNumber="32">
            <Decode>
              <TranslatedText xml:lang="en">An observation which indicates that the hemoglobin concentration in a red blood cell specimen has fallen below a specified level.</TranslatedText>
            </Decode>
            <Alias Context="nci:ExtCodeID" Name="C64802"/>
          </CodeListItem>
          <CodeListItem CodedValue="K" OrderNumber="33">
            <Decode>
              <TranslatedText xml:lang="en">A measurement of the potassium in a biological specimen.</TranslatedText>
            </Decode>
            <Alias Context="nci:ExtCodeID" Name="C64853"/>
          </CodeListItem>
          <CodeListItem CodedValue="KETONES" OrderNumber="34">
            <Decode>
              <TranslatedText xml:lang="en">A measurement of the ketones in a biological specimen.</TranslatedText>
            </Decode>
            <Alias Context="nci:ExtCodeID" Name="C64854"/>
          </CodeListItem>
          <CodeListItem CodedValue="LGLUCLE" OrderNumber="35">
            <Decode>
              <TranslatedText xml:lang="en">A relative measure (ratio or percentage) of the large unstained cells to leukocytes in a biological specimen.</TranslatedText>
            </Decode>
            <Alias Context="nci:ExtCodeID" Name="C79467"/>
          </CodeListItem>
          <CodeListItem CodedValue="LGUNSCE" OrderNumber="36">
            <Decode>
              <TranslatedText xml:lang="en">A measurement of the large, peroxidase-negative cells which cannot be further characterized (i.e. as large lymphocytes, virocytes, or stem cells) present in a biological specimen.</TranslatedText>
            </Decode>
            <Alias Context="nci:ExtCodeID" Name="C74659"/>
          </CodeListItem>
          <CodeListItem CodedValue="LYM" OrderNumber="37">
            <Decode>
              <TranslatedText xml:lang="en">A measurement of the lymphocytes in a biological specimen.</TranslatedText>
            </Decode>
            <Alias Context="nci:ExtCodeID" Name="C51949"/>
          </CodeListItem>
          <CodeListItem CodedValue="LYMLE" OrderNumber="38">
            <Decode>
              <TranslatedText xml:lang="en">A relative measurement (ratio or percentage) of the lymphocytes to leukocytes in a biological specimen.</TranslatedText>
            </Decode>
            <Alias Context="nci:ExtCodeID" Name="C64820"/>
          </CodeListItem>
          <CodeListItem CodedValue="MCH" OrderNumber="39">
            <Decode>
              <TranslatedText xml:lang="en">A measurement of the mean amount of hemoglobin per erythrocyte in a biological specimen, calculated as the product of hemoglobin times ten, divided by the number of erythrocytes.</TranslatedText>
            </Decode>
            <Alias Context="nci:ExtCodeID" Name="C64797"/>
          </CodeListItem>
          <CodeListItem CodedValue="MCHC" OrderNumber="40">
            <Decode>
              <TranslatedText xml:lang="en">An indirect measurement of the average concentration of hemoglobin per erythrocyte in a biological specimen, calculated as the ratio of hemoglobin to hematocrit.</TranslatedText>
            </Decode>
            <Alias Context="nci:ExtCodeID" Name="C64798"/>
          </CodeListItem>
          <CodeListItem CodedValue="MCV" OrderNumber="41">
            <Decode>
              <TranslatedText xml:lang="en">A measurement of the mean cellular volume per erythrocyte in a biological specimen.</TranslatedText>
            </Decode>
            <Alias Context="nci:ExtCodeID" Name="C64799"/>
          </CodeListItem>
          <CodeListItem CodedValue="MONO" OrderNumber="42">
            <Decode>
              <TranslatedText xml:lang="en">A measurement of the monocytes in a biological specimen.</TranslatedText>
            </Decode>
            <Alias Context="nci:ExtCodeID" Name="C64823"/>
          </CodeListItem>
          <CodeListItem CodedValue="MONOLE" OrderNumber="43">
            <Decode>
              <TranslatedText xml:lang="en">A relative measurement (ratio or percentage) of the monocytes to leukocytes in a biological specimen.</TranslatedText>
            </Decode>
            <Alias Context="nci:ExtCodeID" Name="C64824"/>
          </CodeListItem>
          <CodeListItem CodedValue="NEUT" OrderNumber="44">
            <Decode>
              <TranslatedText xml:lang="en">A measurement of the neutrophils in a biological specimen.</TranslatedText>
            </Decode>
            <Alias Context="nci:ExtCodeID" Name="C63321"/>
          </CodeListItem>
          <CodeListItem CodedValue="NEUTLE" OrderNumber="45">
            <Decode>
              <TranslatedText xml:lang="en">A relative measurement (ratio or percentage) of the neutrophils to leukocytes in a biological specimen.</TranslatedText>
            </Decode>
            <Alias Context="nci:ExtCodeID" Name="C64827"/>
          </CodeListItem>
          <CodeListItem CodedValue="OCCBLD" OrderNumber="46">
            <Decode>
              <TranslatedText xml:lang="en">A measurement of the blood in body products such as a urine or stool sample, not detectable on gross examination.</TranslatedText>
            </Decode>
            <Alias Context="nci:ExtCodeID" Name="C74686"/>
          </CodeListItem>
          <CodeListItem CodedValue="OTHR" OrderNumber="47" def:ExtendedValue="Yes">
            <Decode>
              <TranslatedText xml:lang="en">Sperm was observed as present in the urine sample during a microscopic examination.</TranslatedText>
            </Decode>
          </CodeListItem>
          <CodeListItem CodedValue="PH" OrderNumber="48">
            <Decode>
              <TranslatedText xml:lang="en">The negative logarithm (base 10) of the concentration of hydronium ions, which is used as a measure of the acidity or alkalinity of a fluid.</TranslatedText>
            </Decode>
            <Alias Context="nci:ExtCodeID" Name="C45997"/>
          </CodeListItem>
          <CodeListItem CodedValue="PHOS" OrderNumber="49">
            <Decode>
              <TranslatedText xml:lang="en">A measurement of the phosphate in a biological specimen.</TranslatedText>
            </Decode>
            <Alias Context="nci:ExtCodeID" Name="C64857"/>
          </CodeListItem>
          <CodeListItem CodedValue="PLAT" OrderNumber="50">
            <Decode>
              <TranslatedText xml:lang="en">A measurement of the platelets (non-nucleated thrombocytes) in a biological specimen.</TranslatedText>
            </Decode>
            <Alias Context="nci:ExtCodeID" Name="C51951"/>
          </CodeListItem>
          <CodeListItem CodedValue="POIKILO" OrderNumber="51">
            <Decode>
              <TranslatedText xml:lang="en">A measurement of the odd-shaped erythrocytes in a whole blood specimen.</TranslatedText>
            </Decode>
            <Alias Context="nci:ExtCodeID" Name="C79602"/>
          </CodeListItem>
          <CodeListItem CodedValue="POLYCHR" OrderNumber="52">
            <Decode>
              <TranslatedText xml:lang="en">A measurement of the blue-staining characteristic of newly generated erythrocytes.</TranslatedText>
            </Decode>
            <Alias Context="nci:ExtCodeID" Name="C64803"/>
          </CodeListItem>
          <CodeListItem CodedValue="PROT" OrderNumber="53">
            <Decode>
              <TranslatedText xml:lang="en">A measurement of the total protein in a biological specimen.</TranslatedText>
            </Decode>
            <Alias Context="nci:ExtCodeID" Name="C64858"/>
          </CodeListItem>
          <CodeListItem CodedValue="PT" OrderNumber="54">
            <Decode>
              <TranslatedText xml:lang="en">A blood clotting measurement that evaluates the extrinsic pathway of coagulation.</TranslatedText>
            </Decode>
            <Alias Context="nci:ExtCodeID" Name="C62656"/>
          </CodeListItem>
          <CodeListItem CodedValue="RBC" OrderNumber="55">
            <Decode>
              <TranslatedText xml:lang="en">A measurement of the total erythrocytes in a biological specimen.</TranslatedText>
            </Decode>
            <Alias Context="nci:ExtCodeID" Name="C51946"/>
          </CodeListItem>
          <CodeListItem CodedValue="RETI" OrderNumber="56">
            <Decode>
              <TranslatedText xml:lang="en">A measurement of the reticulocytes in a biological specimen.</TranslatedText>
            </Decode>
            <Alias Context="nci:ExtCodeID" Name="C51947"/>
          </CodeListItem>
          <CodeListItem CodedValue="RETIRBC" OrderNumber="57">
            <Decode>
              <TranslatedText xml:lang="en">A relative measurement (ratio or percentage) of reticulocytes to erythrocytes in a biological specimen.</TranslatedText>
            </Decode>
            <Alias Context="nci:ExtCodeID" Name="C64828"/>
          </CodeListItem>
          <CodeListItem CodedValue="SODIUM" OrderNumber="58">
            <Decode>
              <TranslatedText xml:lang="en">A measurement of the sodium in a biological specimen.</TranslatedText>
            </Decode>
            <Alias Context="nci:ExtCodeID" Name="C64809"/>
          </CodeListItem>
          <CodeListItem CodedValue="SPGRAV" OrderNumber="59">
            <Decode>
              <TranslatedText xml:lang="en">A ratio of the density of a fluid to the density of water.</TranslatedText>
            </Decode>
            <Alias Context="nci:ExtCodeID" Name="C64832"/>
          </CodeListItem>
          <CodeListItem CodedValue="TOXGRAN" OrderNumber="60">
            <Decode>
              <TranslatedText xml:lang="en">A measurement of the toxic granulation in granulocytic blood cells.</TranslatedText>
            </Decode>
            <Alias Context="nci:ExtCodeID" Name="C96641"/>
          </CodeListItem>
          <CodeListItem CodedValue="TRIG" OrderNumber="61">
            <Decode>
              <TranslatedText xml:lang="en">A measurement of the triglycerides in a biological specimen.</TranslatedText>
            </Decode>
            <Alias Context="nci:ExtCodeID" Name="C64812"/>
          </CodeListItem>
          <CodeListItem CodedValue="UREAN" OrderNumber="62">
            <Decode>
              <TranslatedText xml:lang="en">A measurement of the urea nitrogen in a biological specimen.</TranslatedText>
            </Decode>
            <Alias Context="nci:ExtCodeID" Name="C125949"/>
          </CodeListItem>
          <CodeListItem CodedValue="UROBIL" OrderNumber="63">
            <Decode>
              <TranslatedText xml:lang="en">A measurement of the urobilinogen in a biological specimen.</TranslatedText>
            </Decode>
            <Alias Context="nci:ExtCodeID" Name="C64816"/>
          </CodeListItem>
          <CodeListItem CodedValue="VOLUME" OrderNumber="64">
            <Decode>
              <TranslatedText xml:lang="en">A measurement of the volume of a biological specimen.</TranslatedText>
            </Decode>
            <Alias Context="nci:ExtCodeID" Name="C74720"/>
          </CodeListItem>
          <CodeListItem CodedValue="WBC" OrderNumber="65">
            <Decode>
              <TranslatedText xml:lang="en">A measurement of the leukocytes in a biological specimen.</TranslatedText>
            </Decode>
            <Alias Context="nci:ExtCodeID" Name="C51948"/>
          </CodeListItem>
          <Alias Context="nci:ExtCodeID" Name="C65047"/>
        </CodeList>
        <CodeList OID="NULLFLAV" Name="Null Flavor Reason" DataType="text">
          <EnumeratedItem CodedValue="MASKED" OrderNumber="1">
            <Alias Context="nci:ExtCodeID" Name="C150904"/>
          </EnumeratedItem>
          <EnumeratedItem CodedValue="NOT APPLICABLE" OrderNumber="2">
            <Alias Context="nci:ExtCodeID" Name="C48660"/>
          </EnumeratedItem>
          <EnumeratedItem CodedValue="UNKNOWN" OrderNumber="3">
            <Alias Context="nci:ExtCodeID" Name="C17998"/>
          </EnumeratedItem>
          <Alias Context="nci:ExtCodeID" Name="C150810"/>
        </CodeList>
        <CodeList OID="NY" Name="No Yes Response" DataType="text">
          <CodeListItem CodedValue="Y" OrderNumber="1" def:ExtendedValue="Yes">
            <Decode>
              <TranslatedText xml:lang="en">Yes</TranslatedText>
            </Decode>
			<Alias Context="nci:ExtCodeID" Name="C49488"/>
          </CodeListItem>
          <Alias Context="nci:ExtCodeID" Name="C66742"/>
        </CodeList>
        <CodeList OID="ROUTE" Name="Route of Administration Response" DataType="text">
          <EnumeratedItem CodedValue="INTRAMUSCULAR" OrderNumber="1">
            <Alias Context="nci:ExtCodeID" Name="C28161"/>
          </EnumeratedItem>
          <Alias Context="nci:ExtCodeID" Name="C66729"/>
        </CodeList>
        <CodeList OID="SDOMAIN" Name="SEND Domain Abbreviation" DataType="text">
          <CodeListItem CodedValue="BG" OrderNumber="1">
            <Decode>
              <TranslatedText xml:lang="en">Body weight gain is the actual difference between two body weight measurements for any given interval for a subject. This is most commonly shown as the difference between two consecutive body weight measurements.</TranslatedText>
            </Decode>
            <Alias Context="nci:ExtCodeID" Name="C95083"/>
          </CodeListItem>
          <CodeListItem CodedValue="BW" OrderNumber="2">
            <Decode>
              <TranslatedText xml:lang="en">This domain captures body weights collected for subjects during the study and at the end of the study (terminal body weights).</TranslatedText>
            </Decode>
            <Alias Context="nci:ExtCodeID" Name="C95085"/>
          </CodeListItem>
          <CodeListItem CodedValue="CL" OrderNumber="3">
            <Decode>
              <TranslatedText xml:lang="en">This domain captures clinical sign information including ophthalmology, physical examination, and dermal examination collected in life while executing the study.</TranslatedText>
            </Decode>
            <Alias Context="nci:ExtCodeID" Name="C95086"/>
          </CodeListItem>
          <CodeListItem CodedValue="CO" OrderNumber="4">
            <Decode>
              <TranslatedText xml:lang="en">A special-purpose domain that contains comments that may be collected alongside other data.</TranslatedText>
            </Decode>
            <Alias Context="nci:ExtCodeID" Name="C49569"/>
          </CodeListItem>
          <CodeListItem CodedValue="DM" OrderNumber="5">
            <Decode>
              <TranslatedText xml:lang="en">A special-purpose domain that includes a set of essential standard variables that describe each subject in a clinical study. It is the parent domain for all other observations for human clinical subjects.</TranslatedText>
            </Decode>
            <Alias Context="nci:ExtCodeID" Name="C49572"/>
          </CodeListItem>
          <CodeListItem CodedValue="DS" OrderNumber="6">
            <Decode>
              <TranslatedText xml:lang="en">An events domain that contains information encompassing and representing data related to subject disposition.</TranslatedText>
            </Decode>
            <Alias Context="nci:ExtCodeID" Name="C49576"/>
          </CodeListItem>
          <CodeListItem CodedValue="EX" OrderNumber="7">
            <Decode>
              <TranslatedText xml:lang="en">An interventions domain that contains the details of a subject's exposure to protocol-specified study treatment. Study treatment may be any intervention that is prospectively defined as a test material within a study, and is typically but not always supplied to the subject.</TranslatedText>
            </Decode>
            <Alias Context="nci:ExtCodeID" Name="C49587"/>
          </CodeListItem>
          <CodeListItem CodedValue="LB" OrderNumber="8">
            <Decode>
              <TranslatedText xml:lang="en">A findings domain that contains laboratory test data such as hematology, clinical chemistry and urinalysis. This domain does not include microbiology or pharmacokinetic data, which are stored in separate domains.</TranslatedText>
            </Decode>
            <Alias Context="nci:ExtCodeID" Name="C49592"/>
          </CodeListItem>
          <CodeListItem CodedValue="SE" OrderNumber="9">
            <Decode>
              <TranslatedText xml:lang="en">A special-purpose domain that contains the actual order of elements followed by the subject, together with the start date/time and end date/time for each element.</TranslatedText>
            </Decode>
            <Alias Context="nci:ExtCodeID" Name="C49616"/>
          </CodeListItem>
          <CodeListItem CodedValue="TA" OrderNumber="10">
            <Decode>
              <TranslatedText xml:lang="en">A trial design domain that contains each planned arm in the trial.</TranslatedText>
            </Decode>
            <Alias Context="nci:ExtCodeID" Name="C49618"/>
          </CodeListItem>
          <CodeListItem CodedValue="TE" OrderNumber="11">
            <Decode>
              <TranslatedText xml:lang="en">A trial design domain that contains the element code that is unique for each element, the element description, and the rules for starting and ending an element.</TranslatedText>
            </Decode>
            <Alias Context="nci:ExtCodeID" Name="C49619"/>
          </CodeListItem>
          <CodeListItem CodedValue="TS" OrderNumber="12">
            <Decode>
              <TranslatedText xml:lang="en">A trial design domain that contains one record for each trial summary characteristic. This domain is not subject oriented.</TranslatedText>
            </Decode>
            <Alias Context="nci:ExtCodeID" Name="C53483"/>
          </CodeListItem>
          <CodeListItem CodedValue="TX" OrderNumber="13">
            <Decode>
              <TranslatedText xml:lang="en">A trial design domain that contains one record for each trial set characteristic including experimental factors, treatment factors, inherent characteristics, or distinct sponsor designations. This domain is not subject oriented.</TranslatedText>
            </Decode>
            <Alias Context="nci:ExtCodeID" Name="C95103"/>
          </CodeListItem>
          <CodeListItem CodedValue="IS" def:ExtendedValue="Yes" OrderNumber="14">
            <Decode>
              <TranslatedText xml:lang="en">A findings domain for assessments that determine whether a therapy induced an immune response.</TranslatedText>
            </Decode>
          </CodeListItem>
          <Alias Context="nci:ExtCodeID" Name="C111113"/>
        </CodeList>
        <CodeList OID="SEX" Name="Sex" DataType="text">
          <CodeListItem CodedValue="F" OrderNumber="1">
            <Decode>
              <TranslatedText xml:lang="en">A person who belongs to the sex that normally produces ova. The term is used to indicate biological sex distinctions, or cultural gender role distinctions, or both. (NCI)</TranslatedText>
            </Decode>
            <Alias Context="nci:ExtCodeID" Name="C16576"/>
          </CodeListItem>
          <Alias Context="nci:ExtCodeID" Name="C66731"/>
        </CodeList>
        <CodeList OID="SEXPOP" Name="Sex of Participants Response" DataType="text">
          <CodeListItem CodedValue="F" OrderNumber="1">
            <Decode>
              <TranslatedText xml:lang="en">A person who belongs to the sex that normally produces ova. The term is used to indicate biological sex distinctions, or cultural gender role distinctions, or both. (NCI)</TranslatedText>
            </Decode>
            <Alias Context="nci:ExtCodeID" Name="C16576"/>
          </CodeListItem>
          <Alias Context="nci:ExtCodeID" Name="C66732"/>
        </CodeList>
        <CodeList OID="SNDIGVER" Name="SEND Implementation Guide Version" DataType="text">
          <EnumeratedItem CodedValue="SEND IMPLEMENTATION GUIDE VERSION 3.1" OrderNumber="1">
            <Alias Context="nci:ExtCodeID" Name="C120925"/>
          </EnumeratedItem>
          <Alias Context="nci:ExtCodeID" Name="C89982"/>
        </CodeList>
        <CodeList OID="SPEC" Name="Specimen" DataType="text">
          <EnumeratedItem CodedValue="PLASMA" OrderNumber="1">
            <Alias Context="nci:ExtCodeID" Name="C13356"/>
          </EnumeratedItem>
          <EnumeratedItem CodedValue="SERUM" OrderNumber="2">
            <Alias Context="nci:ExtCodeID" Name="C13325"/>
          </EnumeratedItem>
          <EnumeratedItem CodedValue="URINE" OrderNumber="3">
            <Alias Context="nci:ExtCodeID" Name="C13283"/>
          </EnumeratedItem>
          <EnumeratedItem CodedValue="WHOLE BLOOD" OrderNumber="4">
            <Alias Context="nci:ExtCodeID" Name="C41067"/>
          </EnumeratedItem>
          <Alias Context="nci:ExtCodeID" Name="C77529"/>
        </CodeList>
        <CodeList OID="SPECIES" Name="Species" DataType="text">
          <EnumeratedItem CodedValue="MONKEY" OrderNumber="1">
            <Alias Context="nci:ExtCodeID" Name="C14243"/>
          </EnumeratedItem>
          <Alias Context="nci:ExtCodeID" Name="C77808"/>
        </CodeList>
        <CodeList OID="SSTYP" Name="SEND Study Type" DataType="text">
          <EnumeratedItem CodedValue="REPEAT DOSE TOXICITY" OrderNumber="1">
            <Alias Context="nci:ExtCodeID" Name="C79376"/>
          </EnumeratedItem>
          <Alias Context="nci:ExtCodeID" Name="C90003"/>
        </CodeList>
        <CodeList OID="STCAT" Name="Study Category" DataType="text">
          <EnumeratedItem CodedValue="TOX" OrderNumber="1">
            <Alias Context="nci:ExtCodeID" Name="C17206"/>
          </EnumeratedItem>
          <Alias Context="nci:ExtCodeID" Name="C90002"/>
        </CodeList>
        <CodeList OID="STRAIN" Name="Strain/Substrain" DataType="text">
          <EnumeratedItem CodedValue="CYNOMOLGUS" OrderNumber="1">
            <Alias Context="nci:ExtCodeID" Name="C14232"/>
          </EnumeratedItem>
          <Alias Context="nci:ExtCodeID" Name="C77530"/>
        </CodeList>
        <CodeList OID="STSPRM" Name="SEND Trial Summary Parameter Test Name" DataType="text">
          <EnumeratedItem CodedValue="Age Text" OrderNumber="1">
            <Alias Context="nci:ExtCodeID" Name="C90352"/>
          </EnumeratedItem>
          <EnumeratedItem CodedValue="Age Unit" OrderNumber="2">
            <Alias Context="nci:ExtCodeID" Name="C50400"/>
          </EnumeratedItem>
          <EnumeratedItem CodedValue="Arm Code" OrderNumber="3">
            <Alias Context="nci:ExtCodeID" Name="C83216"/>
          </EnumeratedItem>
          <EnumeratedItem CodedValue="Dose Level" OrderNumber="4">
            <Alias Context="nci:ExtCodeID" Name="C25488"/>
          </EnumeratedItem>
          <EnumeratedItem CodedValue="Dose Units" OrderNumber="5">
            <Alias Context="nci:ExtCodeID" Name="C73558"/>
          </EnumeratedItem>
          <EnumeratedItem CodedValue="Dosing Duration" OrderNumber="6">
            <Alias Context="nci:ExtCodeID" Name="C90378"/>
          </EnumeratedItem>
          <EnumeratedItem CodedValue="Experimental End Date" OrderNumber="7">
            <Alias Context="nci:ExtCodeID" Name="C90382"/>
          </EnumeratedItem>
          <EnumeratedItem CodedValue="Experimental Start Date" OrderNumber="8">
            <Alias Context="nci:ExtCodeID" Name="C90487"/>
          </EnumeratedItem>
          <EnumeratedItem CodedValue="Good Laboratory Practice Type" OrderNumber="9">
            <Alias Context="nci:ExtCodeID" Name="C90389"/>
          </EnumeratedItem>
          <EnumeratedItem CodedValue="Group Label" OrderNumber="10">
            <Alias Context="nci:ExtCodeID" Name="C90391"/>
          </EnumeratedItem>
          <EnumeratedItem CodedValue="Housing Group" OrderNumber="11">
            <Alias Context="nci:ExtCodeID" Name="C90394"/>
          </EnumeratedItem>
          <EnumeratedItem CodedValue="Investigational Therapy or Treatment" OrderNumber="12">
            <Alias Context="nci:ExtCodeID" Name="C41161"/>
          </EnumeratedItem>
          <EnumeratedItem CodedValue="Planned Number of Female Subjects" OrderNumber="13">
            <Alias Context="nci:ExtCodeID" Name="C90437"/>
          </EnumeratedItem>
          <EnumeratedItem CodedValue="Planned Number of Subjects" OrderNumber="14">
            <Alias Context="nci:ExtCodeID" Name="C95106"/>
          </EnumeratedItem>
          <EnumeratedItem CodedValue="Primary Treatment CAS Registry Number" OrderNumber="15">
            <Alias Context="nci:ExtCodeID" Name="C92645"/>
          </EnumeratedItem>
          <EnumeratedItem CodedValue="Route of Administration" OrderNumber="16">
            <Alias Context="nci:ExtCodeID" Name="C38114"/>
          </EnumeratedItem>
          <EnumeratedItem CodedValue="SEND Controlled Terminology Version" OrderNumber="17">
            <Alias Context="nci:ExtCodeID" Name="C96370"/>
          </EnumeratedItem>
          <EnumeratedItem CodedValue="SEND Implementation Guide Version" OrderNumber="18">
            <Alias Context="nci:ExtCodeID" Name="C90458"/>
          </EnumeratedItem>
          <EnumeratedItem CodedValue="Sex of Participants" OrderNumber="19">
            <Alias Context="nci:ExtCodeID" Name="C49696"/>
          </EnumeratedItem>
          <EnumeratedItem CodedValue="Species" OrderNumber="20">
            <Alias Context="nci:ExtCodeID" Name="C96433"/>
          </EnumeratedItem>
          <EnumeratedItem CodedValue="Sponsor's Study Reference ID" OrderNumber="21">
            <Alias Context="nci:ExtCodeID" Name="C135009"/>
          </EnumeratedItem>
          <EnumeratedItem CodedValue="Sponsor-Defined Group Code" OrderNumber="22">
            <Alias Context="nci:ExtCodeID" Name="C90456"/>
          </EnumeratedItem>
          <EnumeratedItem CodedValue="Sponsoring Organization" OrderNumber="23">
            <Alias Context="nci:ExtCodeID" Name="C129946"/>
          </EnumeratedItem>
          <EnumeratedItem CodedValue="Strain/Substrain" OrderNumber="24">
            <Alias Context="nci:ExtCodeID" Name="C96373"/>
          </EnumeratedItem>
          <EnumeratedItem CodedValue="Study Category" OrderNumber="25">
            <Alias Context="nci:ExtCodeID" Name="C90461"/>
          </EnumeratedItem>
          <EnumeratedItem CodedValue="Study Design" OrderNumber="26">
            <Alias Context="nci:ExtCodeID" Name="C95082"/>
          </EnumeratedItem>
          <EnumeratedItem CodedValue="Study Director" OrderNumber="27">
            <Alias Context="nci:ExtCodeID" Name="C129944"/>
          </EnumeratedItem>
          <EnumeratedItem CodedValue="Study End Date" OrderNumber="28">
            <Alias Context="nci:ExtCodeID" Name="C99156"/>
          </EnumeratedItem>
          <EnumeratedItem CodedValue="Study Length" OrderNumber="29">
            <Alias Context="nci:ExtCodeID" Name="C95105"/>
          </EnumeratedItem>
          <EnumeratedItem CodedValue="Study Start Date" OrderNumber="30">
            <Alias Context="nci:ExtCodeID" Name="C99157"/>
          </EnumeratedItem>
          <EnumeratedItem CodedValue="Study Title" OrderNumber="31">
            <Alias Context="nci:ExtCodeID" Name="C95108"/>
          </EnumeratedItem>
          <EnumeratedItem CodedValue="Study Type" OrderNumber="32">
            <Alias Context="nci:ExtCodeID" Name="C92644"/>
          </EnumeratedItem>
          <EnumeratedItem CodedValue="Test Facility Country" OrderNumber="33">
            <Alias Context="nci:ExtCodeID" Name="C90467"/>
          </EnumeratedItem>
          <EnumeratedItem CodedValue="Test Facility Location" OrderNumber="34">
            <Alias Context="nci:ExtCodeID" Name="C90468"/>
          </EnumeratedItem>
          <EnumeratedItem CodedValue="Test Facility Name" OrderNumber="35">
            <Alias Context="nci:ExtCodeID" Name="C90469"/>
          </EnumeratedItem>
          <EnumeratedItem CodedValue="Test Subject Supplier" OrderNumber="36">
            <Alias Context="nci:ExtCodeID" Name="C90473"/>
          </EnumeratedItem>
          <EnumeratedItem CodedValue="Time to Terminal Sacrifice" OrderNumber="37">
            <Alias Context="nci:ExtCodeID" Name="C90466"/>
          </EnumeratedItem>
          <EnumeratedItem CodedValue="Treatment Vehicle" OrderNumber="38">
            <Alias Context="nci:ExtCodeID" Name="C927"/>
          </EnumeratedItem>
          <Alias Context="nci:ExtCodeID" Name="C90007"/>
        </CodeList>
        <CodeList OID="STSPRMCD" Name="SEND Trial Summary Parameter Test Code" DataType="text">
          <CodeListItem CodedValue="AGETXT" OrderNumber="1">
            <Decode>
              <TranslatedText xml:lang="en">A textual representation of a chronological age. (NCI)</TranslatedText>
            </Decode>
            <Alias Context="nci:ExtCodeID" Name="C90352"/>
          </CodeListItem>
          <CodeListItem CodedValue="AGEU" OrderNumber="2">
            <Decode>
              <TranslatedText xml:lang="en">Those units of time that are routinely used to express the age of a person. (NCI)</TranslatedText>
            </Decode>
            <Alias Context="nci:ExtCodeID" Name="C50400"/>
          </CodeListItem>
          <CodeListItem CodedValue="ARMCD" OrderNumber="3">
            <Decode>
              <TranslatedText xml:lang="en">A character or string that represents a planned arm of a trial or study.</TranslatedText>
            </Decode>
            <Alias Context="nci:ExtCodeID" Name="C83216"/>
          </CodeListItem>
          <CodeListItem CodedValue="DOSDUR" OrderNumber="4">
            <Decode>
              <TranslatedText xml:lang="en">The interval of time over which a course of doses occurs. (NCI)</TranslatedText>
            </Decode>
            <Alias Context="nci:ExtCodeID" Name="C90378"/>
          </CodeListItem>
          <CodeListItem CodedValue="EXPENDTC" OrderNumber="5">
            <Decode>
              <TranslatedText xml:lang="en">Experimental completion date means the last date on which data are collected from the study. (OECD)</TranslatedText>
            </Decode>
            <Alias Context="nci:ExtCodeID" Name="C90382"/>
          </CodeListItem>
          <CodeListItem CodedValue="EXPSTDTC" OrderNumber="6">
            <Decode>
              <TranslatedText xml:lang="en">Experimental starting date means the date on which the first study specific data are collected. (OECD)</TranslatedText>
            </Decode>
            <Alias Context="nci:ExtCodeID" Name="C90487"/>
          </CodeListItem>
          <CodeListItem CodedValue="GLPTYP" OrderNumber="7">
            <Decode>
              <TranslatedText xml:lang="en">A quality system concerned with the organizational process and the conditions under which non-clinical health and environmental safety studies are planned, performed, monitored, recorded, archived and reported. (OECD)</TranslatedText>
            </Decode>
            <Alias Context="nci:ExtCodeID" Name="C90389"/>
          </CodeListItem>
          <CodeListItem CodedValue="GRPLBL" OrderNumber="8">
            <Decode>
              <TranslatedText xml:lang="en">Alpha-numeric character(s) assigned to identify a particular collection of subjects possessing common characteristic(s).</TranslatedText>
            </Decode>
            <Alias Context="nci:ExtCodeID" Name="C90391"/>
          </CodeListItem>
          <CodeListItem CodedValue="HOUSEGRP" OrderNumber="9">
            <Decode>
              <TranslatedText xml:lang="en">A classification of a group of animals based upon their shared living space.</TranslatedText>
            </Decode>
            <Alias Context="nci:ExtCodeID" Name="C90394"/>
          </CodeListItem>
          <CodeListItem CodedValue="PLANFSUB" OrderNumber="10">
            <Decode>
              <TranslatedText xml:lang="en">The intended quantity of female subjects.</TranslatedText>
            </Decode>
            <Alias Context="nci:ExtCodeID" Name="C90437"/>
          </CodeListItem>
          <CodeListItem CodedValue="ROUTE" OrderNumber="11">
            <Decode>
              <TranslatedText xml:lang="en">The course by which a substance is administered in order to reach the site of action in the body.</TranslatedText>
            </Decode>
            <Alias Context="nci:ExtCodeID" Name="C38114"/>
          </CodeListItem>
          <CodeListItem CodedValue="SDESIGN" OrderNumber="12">
            <Decode>
              <TranslatedText xml:lang="en">A plan detailing how a trial or study will be performed in order to represent the phenomenon under examination, to answer the research questions that have been asked, and defining the methods of data analysis. Study design is driven by the research hypothesis being posed, study subject/population/sample available, logistics/resources: technology, support, networking, collaborative support, etc.</TranslatedText>
            </Decode>
            <Alias Context="nci:ExtCodeID" Name="C95082"/>
          </CodeListItem>
          <CodeListItem CodedValue="SEXPOP" OrderNumber="13">
            <Decode>
              <TranslatedText xml:lang="en">The specific sex, either male, female, or mixed of the subject group being studied. (NCI)</TranslatedText>
            </Decode>
            <Alias Context="nci:ExtCodeID" Name="C49696"/>
          </CodeListItem>
          <CodeListItem CodedValue="SLENGTH" OrderNumber="14">
            <Decode>
              <TranslatedText xml:lang="en">The anticipated length of a nonclinical study measured as a unit of time. (NCI)</TranslatedText>
            </Decode>
            <Alias Context="nci:ExtCodeID" Name="C95105"/>
          </CodeListItem>
          <CodeListItem CodedValue="SNDCTVER" OrderNumber="15">
            <Decode>
              <TranslatedText xml:lang="en">The version of the Standard for the Exchange of Nonclinical Data Controlled Terminology that is being used in the study.</TranslatedText>
            </Decode>
            <Alias Context="nci:ExtCodeID" Name="C96370"/>
          </CodeListItem>
          <CodeListItem CodedValue="SNDIGVER" OrderNumber="16">
            <Decode>
              <TranslatedText xml:lang="en">The version of the Standard for the Exchange of Nonclinical Data Implementation Guide that is being used in the study submission.</TranslatedText>
            </Decode>
            <Alias Context="nci:ExtCodeID" Name="C90458"/>
          </CodeListItem>
          <CodeListItem CodedValue="SPECIES" OrderNumber="17">
            <Decode>
              <TranslatedText xml:lang="en">The common name for an animal used as the test system on a study (e.g., dog, monkey, mouse, rabbit, rat).</TranslatedText>
            </Decode>
            <Alias Context="nci:ExtCodeID" Name="C96433"/>
          </CodeListItem>
          <CodeListItem CodedValue="SPGRPCD" OrderNumber="18">
            <Decode>
              <TranslatedText xml:lang="en">Alpha-numeric character(s) assigned by the sponsor to identify a particular collection of subjects possessing common characteristic(s).</TranslatedText>
            </Decode>
            <Alias Context="nci:ExtCodeID" Name="C90456"/>
          </CodeListItem>
          <CodeListItem CodedValue="SPLANSUB" OrderNumber="19">
            <Decode>
              <TranslatedText xml:lang="en">The planned number of subjects to be entered in a nonclinical study.</TranslatedText>
            </Decode>
            <Alias Context="nci:ExtCodeID" Name="C95106"/>
          </CodeListItem>
          <CodeListItem CodedValue="SPLRNAM" OrderNumber="20">
            <Decode>
              <TranslatedText xml:lang="en">The name of the organization that supplied the test subjects. (NCI)</TranslatedText>
            </Decode>
            <Alias Context="nci:ExtCodeID" Name="C90473"/>
          </CodeListItem>
          <CodeListItem CodedValue="SPREFID" OrderNumber="21">
            <Decode>
              <TranslatedText xml:lang="en">The reference identifier by which the study is known to the sponsor. This may be different from the STUDYID if the data were collected under a different identifier in the GLP protocol (e.g., used in a situation where a contract facility performs the study and provides a final report).</TranslatedText>
            </Decode>
            <Alias Context="nci:ExtCodeID" Name="C135009"/>
          </CodeListItem>
          <CodeListItem CodedValue="SSPONSOR" OrderNumber="22">
            <Decode>
              <TranslatedText xml:lang="en">The name of the entity that is responsible for the initiation, management, and/or financing of a nonclinical study. (NCI)</TranslatedText>
            </Decode>
            <Alias Context="nci:ExtCodeID" Name="C129946"/>
          </CodeListItem>
          <CodeListItem CodedValue="SSTYP" OrderNumber="23">
            <Decode>
              <TranslatedText xml:lang="en">The type of nonclinical study performed e.g. Single Dose, Repeat Dose. (NCI)</TranslatedText>
            </Decode>
            <Alias Context="nci:ExtCodeID" Name="C92644"/>
          </CodeListItem>
          <CodeListItem CodedValue="STCAT" OrderNumber="24">
            <Decode>
              <TranslatedText xml:lang="en">The classification of the study. (NCI)</TranslatedText>
            </Decode>
            <Alias Context="nci:ExtCodeID" Name="C90461"/>
          </CodeListItem>
          <CodeListItem CodedValue="STDIR" OrderNumber="25">
            <Decode>
              <TranslatedText xml:lang="en">The name of the person who has overall responsibility for the technical conduct of a study, as well as for the interpretation, analysis, documentation and reporting of results, and represents the single point of study control. (FDA)</TranslatedText>
            </Decode>
            <Alias Context="nci:ExtCodeID" Name="C129944"/>
          </CodeListItem>
          <CodeListItem CodedValue="STENDTC" OrderNumber="26">
            <Decode>
              <TranslatedText xml:lang="en">The date on which the final report is signed by the study director. Also known as Study Completion Date. (FDA)</TranslatedText>
            </Decode>
            <Alias Context="nci:ExtCodeID" Name="C99156"/>
          </CodeListItem>
          <CodeListItem CodedValue="STITLE" OrderNumber="27">
            <Decode>
              <TranslatedText xml:lang="en">The name of a nonclinical study.</TranslatedText>
            </Decode>
            <Alias Context="nci:ExtCodeID" Name="C95108"/>
          </CodeListItem>
          <CodeListItem CodedValue="STRAIN" OrderNumber="28">
            <Decode>
              <TranslatedText xml:lang="en">The vendor-supplied species/strain/substrain designation for the test system under study. It may combine the species, background strain, substrain, and associated genetic modifications as supplied by the vendor (e.g. FISCHER 344, SPRAGUE-DAWLEY IGS, WISTAR Kyoto, BEAGLE, CYNOMOLGUS, RHESUS and CHIMPANZEE).</TranslatedText>
            </Decode>
            <Alias Context="nci:ExtCodeID" Name="C96373"/>
          </CodeListItem>
          <CodeListItem CodedValue="STSTDTC" OrderNumber="29">
            <Decode>
              <TranslatedText xml:lang="en">The date on which the protocol is signed by the study director. Also known as Study Initiation Date. (FDA)</TranslatedText>
            </Decode>
            <Alias Context="nci:ExtCodeID" Name="C99157"/>
          </CodeListItem>
          <CodeListItem CodedValue="TFCNTRY" OrderNumber="30">
            <Decode>
              <TranslatedText xml:lang="en">The country of the place in which a nonclinical laboratory study takes place, i.e., actually uses the test article in a test system. Testing facility includes any establishment required to register under section 510 of the act that conducts nonclinical laboratory studies and any consulting laboratory described in section 704 of the act that conducts such studies. Testing facility encompasses only those operational units that are being or have been used to conduct nonclinical laboratory studies. (FDA)</TranslatedText>
