<?xml version="1.0" encoding="UTF-8"?>
<?xml-stylesheet type="text/xsl" href="define2-0-0.xsl"?>
<!-- ********************************************************************************** -->
<!-- File: phuse_example.xml                                                            -->
<!-- Author: sgqyq                                                                      -->
<!-- Description: This is the define.xml for a study                                    -->
<!-- ********************************************************************************** -->
<ODM
  xmlns="http://www.cdisc.org/ns/odm/v1.3"
  xmlns:xlink="http://www.w3.org/1999/xlink"
  xmlns:def="http://www.cdisc.org/ns/def/v2.0"
  ODMVersion="1.3.2"
  FileOID="Study12345-defineXML-2.0-ADAM"
  FileType="Snapshot"
  CreationDateTime="2016-09-28T09:17:43"
  Originator="Company XY"
  SourceSystem="SAS Macro definexml"
  SourceSystemVersion="1.0">
  <Study OID="Study12345">
  <GlobalVariables>
    <StudyName>Study 12345</StudyName>
    <StudyDescription>This is the study description, this study is a dummy study used as example for the define.xml generation.</StudyDescription>
    <ProtocolName>Protocol 98765/12345</ProtocolName>
  </GlobalVariables>
  <MetaDataVersion OID="CDISC.ADaM.1.0"
    Name="Study 12345, Data Definitions"
    Description="Study 12345, Data Definitions"
    def:DefineVersion="2.0.0"
    def:StandardName="ADaM-IG"
    def:StandardVersion="1.0">
    <def:SupplementalDoc>
      <def:DocumentRef leafID="LF.AdamReviewersGuide"/>
      <def:DocumentRef leafID="LF.SAP"/>
    </def:SupplementalDoc>
    <!-- ******************************************* -->
    <!-- VALUE LEVEL LIST DEFINITION INFORMATION  ** -->
    <!-- ******************************************* -->
    <def:ValueListDef OID="VL.ADEX.AVAL">
      <ItemRef ItemOID="IT.ADEX.PARAMCD.ACDSDAY.DTYPE. .PARAMTYP.DERIVED"
               OrderNumber="1"
               Mandatory="Yes"
               >
        <def:WhereClauseRef WhereClauseOID="WC.ADEX.PARAMCD.ACDSDAY.DTYPE. .PARAMTYP.DERIVED"/>
      </ItemRef>
      <ItemRef ItemOID="IT.ADEX.PARAMCD.COMPL.DTYPE. .PARAMTYP.DERIVED"
               OrderNumber="2"
               Mandatory="Yes"
               >
        <def:WhereClauseRef WhereClauseOID="WC.ADEX.PARAMCD.COMPL.DTYPE. .PARAMTYP.DERIVED"/>
      </ItemRef>
      <ItemRef ItemOID="IT.ADEX.PARAMCD.OVDSDAY.DTYPE. .PARAMTYP.DERIVED"
               OrderNumber="3"
               Mandatory="Yes"
               >
        <def:WhereClauseRef WhereClauseOID="WC.ADEX.PARAMCD.OVDSDAY.DTYPE. .PARAMTYP.DERIVED"/>
      </ItemRef>
    </def:ValueListDef>
    <!-- ***************************************************** -->
    <!-- VALUE LEVEL WHERE CLAUSE DEFINITION INFORMATION    ** -->
    <!-- ***************************************************** -->
    <def:WhereClauseDef OID="WC.ADEX.PARAMCD.ACDSDAY.DTYPE. .PARAMTYP.DERIVED">
      <RangeCheck SoftHard="Soft" def:ItemOID="IT.ADEX.PARAMCD" Comparator="EQ">
          <CheckValue>ACDSDAY</CheckValue>
      </RangeCheck>
      <RangeCheck SoftHard="Soft" def:ItemOID="IT.ADEX.DTYPE" Comparator="EQ">
          <CheckValue> </CheckValue>
      </RangeCheck>
      <RangeCheck SoftHard="Soft" def:ItemOID="IT.ADEX.PARAMTYP" Comparator="EQ">
          <CheckValue>DERIVED</CheckValue>
      </RangeCheck>
    </def:WhereClauseDef>
    <def:WhereClauseDef OID="WC.ADEX.PARAMCD.COMPL.DTYPE. .PARAMTYP.DERIVED">
      <RangeCheck SoftHard="Soft" def:ItemOID="IT.ADEX.PARAMCD" Comparator="EQ">
          <CheckValue>COMPL</CheckValue>
      </RangeCheck>
      <RangeCheck SoftHard="Soft" def:ItemOID="IT.ADEX.DTYPE" Comparator="EQ">
          <CheckValue> </CheckValue>
      </RangeCheck>
      <RangeCheck SoftHard="Soft" def:ItemOID="IT.ADEX.PARAMTYP" Comparator="EQ">
          <CheckValue>DERIVED</CheckValue>
      </RangeCheck>
    </def:WhereClauseDef>
    <def:WhereClauseDef OID="WC.ADEX.PARAMCD.OVDSDAY.DTYPE. .PARAMTYP.DERIVED">
      <RangeCheck SoftHard="Soft" def:ItemOID="IT.ADEX.PARAMCD" Comparator="EQ">
          <CheckValue>OVDSDAY</CheckValue>
      </RangeCheck>
      <RangeCheck SoftHard="Soft" def:ItemOID="IT.ADEX.DTYPE" Comparator="EQ">
          <CheckValue> </CheckValue>
      </RangeCheck>
      <RangeCheck SoftHard="Soft" def:ItemOID="IT.ADEX.PARAMTYP" Comparator="EQ">
          <CheckValue>DERIVED</CheckValue>
      </RangeCheck>
    </def:WhereClauseDef>
    <!-- ******************************************* -->
    <!-- ADSL           ItemGroupDef INFORMATION *** -->
    <!-- ******************************************* -->
    <ItemGroupDef OID="IG.ADSL"
      Name="ADSL"
      Repeating="No"
      IsReferenceData="No"
      SASDatasetName="ADSL"
      Purpose="Analysis"
      def:Structure="One record per Subject"
      def:Class="SUBJECT LEVEL ANALYSIS DATASET"
      def:CommentOID=" "
      def:ArchiveLocationID="LF.adsl">
      <Description>
      <TranslatedText xml:lang="en">Subject Level Analysis Dataset</TranslatedText>
      </Description>
      <ItemRef ItemOID="IT.ADSL.ADSNAME"
        OrderNumber="1"
        Mandatory="Yes"
        MethodOID="MT.ADSL.ADSNAME"
      />
      <ItemRef ItemOID="IT.ADSL.STUDYID"
        OrderNumber="2"
        Mandatory="Yes"
        KeySequence="1"
      />
      <ItemRef ItemOID="IT.ADSL.USUBJID"
        OrderNumber="3"
        Mandatory="Yes"
        KeySequence="2"
      />
      <ItemRef ItemOID="IT.ADSL.SUBJIDN"
        OrderNumber="4"
        Mandatory="Yes"
      />
      <ItemRef ItemOID="IT.ADSL.SUBJID"
        OrderNumber="5"
        Mandatory="Yes"
      />
      <ItemRef ItemOID="IT.ADSL.TREATNO"
        OrderNumber="6"
        Mandatory="No"
      />
      <ItemRef ItemOID="IT.ADSL.RANDNO"
        OrderNumber="7"
        Mandatory="No"
      />
      <ItemRef ItemOID="IT.ADSL.UASR"
        OrderNumber="8"
        Mandatory="No"
        MethodOID="MT.ADSL.UASR"
      />
      <ItemRef ItemOID="IT.ADSL.RASR"
        OrderNumber="9"
        Mandatory="No"
        MethodOID="MT.ADSL.RASR"
      />
      <ItemRef ItemOID="IT.ADSL.PPROTFL"
        OrderNumber="10"
        Mandatory="No"
      />
      <ItemRef ItemOID="IT.ADSL.PPROTFN"
        OrderNumber="11"
        Mandatory="No"
      />
      <ItemRef ItemOID="IT.ADSL.SAFFL"
        OrderNumber="12"
        Mandatory="No"
      />
      <ItemRef ItemOID="IT.ADSL.SAFFN"
        OrderNumber="13"
        Mandatory="No"
      />
      <ItemRef ItemOID="IT.ADSL.FASFL"
        OrderNumber="14"
        Mandatory="No"
      />
      <ItemRef ItemOID="IT.ADSL.FASFN"
        OrderNumber="15"
        Mandatory="No"
      />
      <ItemRef ItemOID="IT.ADSL.ENRLFL"
        OrderNumber="16"
        Mandatory="No"
        MethodOID="MT.ADSL.ENRLFL"
      />
      <ItemRef ItemOID="IT.ADSL.ENRLFN"
        OrderNumber="17"
        Mandatory="No"
        MethodOID="MT.ADSL.ENRLFN"
      />
      <ItemRef ItemOID="IT.ADSL.RANDFL"
        OrderNumber="18"
        Mandatory="No"
        MethodOID="MT.ADSL.RANDFL"
      />
      <ItemRef ItemOID="IT.ADSL.RANDFN"
        OrderNumber="19"
        Mandatory="No"
        MethodOID="MT.ADSL.RANDFN"
      />
      <ItemRef ItemOID="IT.ADSL.COMPLFL"
        OrderNumber="20"
        Mandatory="No"
        MethodOID="MT.ADSL.COMPLFL"
      />
      <ItemRef ItemOID="IT.ADSL.COMPLFN"
        OrderNumber="21"
        Mandatory="No"
        MethodOID="MT.ADSL.COMPLFN"
      />
      <ItemRef ItemOID="IT.ADSL.SCRNFLFL"
        OrderNumber="22"
        Mandatory="Yes"
        MethodOID="MT.ADSL.SCRNFLFL"
      />
      <ItemRef ItemOID="IT.ADSL.SCRNFLFN"
        OrderNumber="23"
        Mandatory="Yes"
        MethodOID="MT.ADSL.SCRNFLFN"
      />
      <ItemRef ItemOID="IT.ADSL.RFIC_D"
        OrderNumber="24"
        Mandatory="Yes"
      />
      <ItemRef ItemOID="IT.ADSL.RFIC_M"
        OrderNumber="25"
        Mandatory="Yes"
      />
      <ItemRef ItemOID="IT.ADSL.RFIC_Y"
        OrderNumber="26"
        Mandatory="Yes"
      />
      <ItemRef ItemOID="IT.ADSL.RFICDT"
        OrderNumber="27"
        Mandatory="Yes"
        MethodOID="MT.ADSL.RFICDT"
      />
      <ItemRef ItemOID="IT.ADSL.RFIC_TC"
        OrderNumber="28"
        Mandatory="Yes"
        MethodOID="MT.ADSL.RFIC_TC"
      />
      <ItemRef ItemOID="IT.ADSL.TR01SDT"
        OrderNumber="29"
        Mandatory="No"
        MethodOID="MT.ADSL.TR01SDT"
      />
      <ItemRef ItemOID="IT.ADSL.TR01STM"
        OrderNumber="30"
        Mandatory="No"
        MethodOID="MT.ADSL.TR01STM"
      />
      <ItemRef ItemOID="IT.ADSL.TR01EDT"
        OrderNumber="31"
        Mandatory="No"
        MethodOID="MT.ADSL.TR01EDT"
      />
      <ItemRef ItemOID="IT.ADSL.TR01ETM"
        OrderNumber="32"
        Mandatory="No"
        MethodOID="MT.ADSL.TR01ETM"
      />
      <ItemRef ItemOID="IT.ADSL.LVDT"
        OrderNumber="33"
        Mandatory="No"
        MethodOID="MT.ADSL.LVDT"
      />
      <ItemRef ItemOID="IT.ADSL.RANDDT"
        OrderNumber="34"
        Mandatory="No"
        MethodOID="MT.ADSL.RANDDT"
      />
      <ItemRef ItemOID="IT.ADSL.SITEID"
        OrderNumber="35"
        Mandatory="Yes"
      />
      <ItemRef ItemOID="IT.ADSL.SITENAM"
        OrderNumber="36"
        Mandatory="No"
      />
      <ItemRef ItemOID="IT.ADSL.INVID"
        OrderNumber="37"
        Mandatory="No"
      />
      <ItemRef ItemOID="IT.ADSL.INVNAM"
        OrderNumber="38"
        Mandatory="Yes"
      />
      <ItemRef ItemOID="IT.ADSL.BRTH_D"
        OrderNumber="39"
        Mandatory="Yes"
      />
      <ItemRef ItemOID="IT.ADSL.BRTH_M"
        OrderNumber="40"
        Mandatory="Yes"
      />
      <ItemRef ItemOID="IT.ADSL.BRTH_Y"
        OrderNumber="41"
        Mandatory="Yes"
      />
      <ItemRef ItemOID="IT.ADSL.BRTHDT"
        OrderNumber="42"
        Mandatory="Yes"
        MethodOID="MT.ADSL.BRTHDT"
      />
      <ItemRef ItemOID="IT.ADSL.BRTHDTL"
        OrderNumber="43"
        Mandatory="No"
        MethodOID="MT.ADSL.BRTHDTL"
      />
      <ItemRef ItemOID="IT.ADSL.AGE"
        OrderNumber="44"
        Mandatory="Yes"
      />
      <ItemRef ItemOID="IT.ADSL.AGEU"
        OrderNumber="45"
        Mandatory="Yes"
      />
      <ItemRef ItemOID="IT.ADSL.AGEGR02N"
        OrderNumber="46"
        Mandatory="No"
        MethodOID="MT.ADSL.AGEGR02N"
      />
      <ItemRef ItemOID="IT.ADSL.AGEGR02"
        OrderNumber="47"
        Mandatory="No"
        MethodOID="MT.ADSL.AGEGR02"
      />
      <ItemRef ItemOID="IT.ADSL.AGEGR01N"
        OrderNumber="48"
        Mandatory="No"
        MethodOID="MT.ADSL.AGEGR01N"
      />
      <ItemRef ItemOID="IT.ADSL.AGEGR01"
        OrderNumber="49"
        Mandatory="No"
        MethodOID="MT.ADSL.AGEGR01"
      />
      <ItemRef ItemOID="IT.ADSL.SEX"
        OrderNumber="50"
        Mandatory="Yes"
      />
      <ItemRef ItemOID="IT.ADSL.SEXN"
        OrderNumber="51"
        Mandatory="Yes"
      />
      <ItemRef ItemOID="IT.ADSL.RACE"
        OrderNumber="52"
        Mandatory="Yes"
      />
      <ItemRef ItemOID="IT.ADSL.RACEN"
        OrderNumber="53"
        Mandatory="Yes"
      />
      <ItemRef ItemOID="IT.ADSL.RACEALLN"
        OrderNumber="54"
        Mandatory="Yes"
      />
      <ItemRef ItemOID="IT.ADSL.ASR"
        OrderNumber="55"
        Mandatory="Yes"
        MethodOID="MT.ADSL.ASR"
      />
      <ItemRef ItemOID="IT.ADSL.ETHNIC"
        OrderNumber="56"
        Mandatory="No"
      />
      <ItemRef ItemOID="IT.ADSL.ETHNICN"
        OrderNumber="57"
        Mandatory="No"
      />
      <ItemRef ItemOID="IT.ADSL.ARMCD"
        OrderNumber="58"
        Mandatory="Yes"
      />
      <ItemRef ItemOID="IT.ADSL.ARM"
        OrderNumber="59"
        Mandatory="Yes"
      />
      <ItemRef ItemOID="IT.ADSL.ACTARM"
        OrderNumber="60"
        Mandatory="Yes"
      />
      <ItemRef ItemOID="IT.ADSL.ACTARMCD"
        OrderNumber="61"
        Mandatory="Yes"
      />
      <ItemRef ItemOID="IT.ADSL.TRT01P"
        OrderNumber="62"
        Mandatory="Yes"
        MethodOID="MT.ADSL.TRT01P"
      />
      <ItemRef ItemOID="IT.ADSL.TRT01PN"
        OrderNumber="63"
        Mandatory="Yes"
        MethodOID="MT.ADSL.TRT01PN"
      />
      <ItemRef ItemOID="IT.ADSL.TRT01A"
        OrderNumber="64"
        Mandatory="Yes"
        MethodOID="MT.ADSL.TRT01A"
      />
      <ItemRef ItemOID="IT.ADSL.TRT01AN"
        OrderNumber="65"
        Mandatory="Yes"
        MethodOID="MT.ADSL.TRT01AN"
      />
      <ItemRef ItemOID="IT.ADSL.COUNTRY"
        OrderNumber="66"
        Mandatory="Yes"
      />
      <ItemRef ItemOID="IT.ADSL.CNTYGR1"
        OrderNumber="67"
        Mandatory="No"
        MethodOID="MT.ADSL.CNTYGR1"
      />
      <ItemRef ItemOID="IT.ADSL.CNTYGR1N"
        OrderNumber="68"
        Mandatory="No"
        MethodOID="MT.ADSL.CNTYGR1N"
      />
      <ItemRef ItemOID="IT.ADSL.BASEWEIG"
        OrderNumber="69"
        Mandatory="No"
        MethodOID="MT.ADSL.BASEWEIG"
      />
      <ItemRef ItemOID="IT.ADSL.BASEHEIG"
        OrderNumber="70"
        Mandatory="No"
        MethodOID="MT.ADSL.BASEHEIG"
      />
      <ItemRef ItemOID="IT.ADSL.BASEBMI"
        OrderNumber="71"
        Mandatory="No"
        MethodOID="MT.ADSL.BASEBMI"
      />
      <ItemRef ItemOID="IT.ADSL.EGFRGR1N"
        OrderNumber="72"
        Mandatory="No"
        MethodOID="MT.ADSL.EGFRGR1N"
      />
      <ItemRef ItemOID="IT.ADSL.EGFRGR1"
        OrderNumber="73"
        Mandatory="No"
        MethodOID="MT.ADSL.EGFRGR1"
      />
      <!-- **************************************************** -->
      <!-- def:leaf details for hypertext linking the dataset -->
      <!-- **************************************************** -->
      <def:leaf ID="LF.adsl" xlink:href="adsl.xpt">
        <def:title>adsl.xpt </def:title>
      </def:leaf>
    </ItemGroupDef>
    <!-- ******************************************* -->
    <!-- ADAE           ItemGroupDef INFORMATION *** -->
    <!-- ******************************************* -->
    <ItemGroupDef OID="IG.ADAE"
      Name="ADAE"
      Repeating="Yes"
      IsReferenceData="No"
      SASDatasetName="ADAE"
      Purpose="Analysis"
      def:Structure="One record per subject per each AE recorded in SDTM AE domain"
      def:Class="OCCURRENCE DATA STRUCTURE"
      def:CommentOID=" "
      def:ArchiveLocationID="LF.adae">
      <Description>
      <TranslatedText xml:lang="en">Adverse Events Analysis Dataset</TranslatedText>
      </Description>
      <ItemRef ItemOID="IT.ADAE.ADSNAME"
        OrderNumber="1"
        Mandatory="Yes"
        MethodOID="MT.ADAE.ADSNAME"
      />
      <ItemRef ItemOID="IT.ADAE.STUDYID"
        OrderNumber="2"
        Mandatory="Yes"
        KeySequence="1"
      />
      <ItemRef ItemOID="IT.ADAE.USUBJID"
        OrderNumber="3"
        Mandatory="Yes"
        KeySequence="2"
      />
      <ItemRef ItemOID="IT.ADAE.SUBJIDN"
        OrderNumber="4"
        Mandatory="Yes"
      />
      <ItemRef ItemOID="IT.ADAE.AESEQ"
        OrderNumber="5"
        Mandatory="Yes"
      />
      <ItemRef ItemOID="IT.ADAE.SEQ"
        OrderNumber="6"
        Mandatory="Yes"
        KeySequence="3"
        MethodOID="MT.ADAE.SEQ"
      />
      <ItemRef ItemOID="IT.ADAE.ASEQ"
        OrderNumber="7"
        Mandatory="No"
        MethodOID="MT.ADAE.ASEQ"
      />
      <ItemRef ItemOID="IT.ADAE.AESPID"
        OrderNumber="8"
        Mandatory="Yes"
      />
      <ItemRef ItemOID="IT.ADAE.AETERM"
        OrderNumber="9"
        Mandatory="Yes"
      />
      <ItemRef ItemOID="IT.ADAE.AETERMCV"
        OrderNumber="10"
        Mandatory="Yes"
      />
      <ItemRef ItemOID="IT.ADAE.AEMODIFY"
        OrderNumber="11"
        Mandatory="Yes"
      />
      <ItemRef ItemOID="IT.ADAE.AEDECOD"
        OrderNumber="12"
        Mandatory="Yes"
      />
      <ItemRef ItemOID="IT.ADAE.AELLT"
        OrderNumber="13"
        Mandatory="Yes"
      />
      <ItemRef ItemOID="IT.ADAE.AELLTCD"
        OrderNumber="14"
        Mandatory="Yes"
      />
      <ItemRef ItemOID="IT.ADAE.AEPTCD"
        OrderNumber="15"
        Mandatory="Yes"
      />
      <ItemRef ItemOID="IT.ADAE.AEHLT"
        OrderNumber="16"
        Mandatory="Yes"
      />
      <ItemRef ItemOID="IT.ADAE.AEHLTCD"
        OrderNumber="17"
        Mandatory="Yes"
      />
      <ItemRef ItemOID="IT.ADAE.AEHLGT"
        OrderNumber="18"
        Mandatory="Yes"
      />
      <ItemRef ItemOID="IT.ADAE.AEHLGTCD"
        OrderNumber="19"
        Mandatory="Yes"
      />
      <ItemRef ItemOID="IT.ADAE.AESOC"
        OrderNumber="20"
        Mandatory="Yes"
      />
      <ItemRef ItemOID="IT.ADAE.AESOCCD"
        OrderNumber="21"
        Mandatory="Yes"
      />
      <ItemRef ItemOID="IT.ADAE.AEMLLT"
        OrderNumber="22"
        Mandatory="Yes"
      />
      <ItemRef ItemOID="IT.ADAE.AEBODSYS"
        OrderNumber="23"
        Mandatory="Yes"
      />
      <ItemRef ItemOID="IT.ADAE.AEBDSYCD"
        OrderNumber="24"
        Mandatory="Yes"
      />
      <ItemRef ItemOID="IT.ADAE.AESEV"
        OrderNumber="25"
        Mandatory="Yes"
      />
      <ItemRef ItemOID="IT.ADAE.AESEVN"
        OrderNumber="26"
        Mandatory="Yes"
      />
      <ItemRef ItemOID="IT.ADAE.AESER"
        OrderNumber="27"
        Mandatory="Yes"
      />
      <ItemRef ItemOID="IT.ADAE.AESERN"
        OrderNumber="28"
        Mandatory="Yes"
      />
      <ItemRef ItemOID="IT.ADAE.AESREAS"
        OrderNumber="29"
        Mandatory="No"
        MethodOID="MT.ADAE.AESREAS"
      />
      <ItemRef ItemOID="IT.ADAE.AEACN"
        OrderNumber="30"
        Mandatory="Yes"
      />
      <ItemRef ItemOID="IT.ADAE.AEACNN"
        OrderNumber="31"
        Mandatory="Yes"
      />
      <ItemRef ItemOID="IT.ADAE.AEACNOTH"
        OrderNumber="32"
        Mandatory="No"
      />
      <ItemRef ItemOID="IT.ADAE.AECNOTHN"
        OrderNumber="33"
        Mandatory="No"
      />
      <ItemRef ItemOID="IT.ADAE.AEREL"
        OrderNumber="34"
        Mandatory="Yes"
      />
      <ItemRef ItemOID="IT.ADAE.AERELN"
        OrderNumber="35"
        Mandatory="Yes"
      />
      <ItemRef ItemOID="IT.ADAE.AEOUT"
        OrderNumber="36"
        Mandatory="Yes"
      />
      <ItemRef ItemOID="IT.ADAE.AEOUTN"
        OrderNumber="37"
        Mandatory="Yes"
      />
      <ItemRef ItemOID="IT.ADAE.AESCONG"
        OrderNumber="38"
        Mandatory="Yes"
      />
      <ItemRef ItemOID="IT.ADAE.AESCONGN"
        OrderNumber="39"
        Mandatory="Yes"
      />
      <ItemRef ItemOID="IT.ADAE.AESDISAB"
        OrderNumber="40"
        Mandatory="Yes"
      />
      <ItemRef ItemOID="IT.ADAE.AESDSABN"
        OrderNumber="41"
        Mandatory="Yes"
      />
      <ItemRef ItemOID="IT.ADAE.AESDTH"
        OrderNumber="42"
        Mandatory="Yes"
      />
      <ItemRef ItemOID="IT.ADAE.AESDTHN"
        OrderNumber="43"
        Mandatory="Yes"
      />
      <ItemRef ItemOID="IT.ADAE.AESHOSP"
        OrderNumber="44"
        Mandatory="Yes"
      />
      <ItemRef ItemOID="IT.ADAE.AESHOSPN"
        OrderNumber="45"
        Mandatory="Yes"
      />
      <ItemRef ItemOID="IT.ADAE.AESLIFE"
        OrderNumber="46"
        Mandatory="Yes"
      />
      <ItemRef ItemOID="IT.ADAE.AESLIFEN"
        OrderNumber="47"
        Mandatory="Yes"
      />
      <ItemRef ItemOID="IT.ADAE.AESMIE"
        OrderNumber="48"
        Mandatory="Yes"
      />
      <ItemRef ItemOID="IT.ADAE.AESMIEN"
        OrderNumber="49"
        Mandatory="Yes"
      />
      <ItemRef ItemOID="IT.ADAE.AECONTRT"
        OrderNumber="50"
        Mandatory="Yes"
      />
      <ItemRef ItemOID="IT.ADAE.AECNTRTN"
        OrderNumber="51"
        Mandatory="Yes"
      />
      <ItemRef ItemOID="IT.ADAE.AEPRDOS"
        OrderNumber="52"
        Mandatory="Yes"
      />
      <ItemRef ItemOID="IT.ADAE.AEPRDOSN"
        OrderNumber="53"
        Mandatory="Yes"
      />
      <ItemRef ItemOID="IT.ADAE.AERELPR"
        OrderNumber="54"
        Mandatory="No"
      />
      <ItemRef ItemOID="IT.ADAE.AERELPRN"
        OrderNumber="55"
        Mandatory="No"
      />
      <ItemRef ItemOID="IT.ADAE.EPOCH"
        OrderNumber="56"
        Mandatory="Yes"
      />
      <ItemRef ItemOID="IT.ADAE.EPOCHN"
        OrderNumber="57"
        Mandatory="Yes"
      />
      <ItemRef ItemOID="IT.ADAE.AEST_D"
        OrderNumber="58"
        Mandatory="Yes"
      />
      <ItemRef ItemOID="IT.ADAE.AEST_M"
        OrderNumber="59"
        Mandatory="Yes"
      />
      <ItemRef ItemOID="IT.ADAE.AEST_Y"
        OrderNumber="60"
        Mandatory="Yes"
      />
      <ItemRef ItemOID="IT.ADAE.AESTDT"
        OrderNumber="61"
        Mandatory="Yes"
        MethodOID="MT.ADAE.AESTDT"
      />
      <ItemRef ItemOID="IT.ADAE.AESTDTL"
        OrderNumber="62"
        Mandatory="No"
        MethodOID="MT.ADAE.AESTDTL"
      />
      <ItemRef ItemOID="IT.ADAE.ASTDT"
        OrderNumber="63"
        Mandatory="No"
        MethodOID="MT.ADAE.ASTDT"
      />
      <ItemRef ItemOID="IT.ADAE.ASTDTF"
        OrderNumber="64"
        Mandatory="No"
        MethodOID="MT.ADAE.ASTDTF"
      />
      <ItemRef ItemOID="IT.ADAE.AEST_TC"
        OrderNumber="65"
        Mandatory="No"
        MethodOID="MT.ADAE.AEST_TC"
      />
      <ItemRef ItemOID="IT.ADAE.ASTTM"
        OrderNumber="66"
        Mandatory="No"
        MethodOID="MT.ADAE.ASTTM"
      />
      <ItemRef ItemOID="IT.ADAE.ASTTMF"
        OrderNumber="67"
        Mandatory="No"
        MethodOID="MT.ADAE.ASTTMF"
      />
      <ItemRef ItemOID="IT.ADAE.ASTDTM"
        OrderNumber="68"
        Mandatory="No"
        MethodOID="MT.ADAE.ASTDTM"
      />
      <ItemRef ItemOID="IT.ADAE.AEEN_D"
        OrderNumber="69"
        Mandatory="Yes"
      />
      <ItemRef ItemOID="IT.ADAE.AEEN_M"
        OrderNumber="70"
        Mandatory="Yes"
      />
      <ItemRef ItemOID="IT.ADAE.AEEN_Y"
        OrderNumber="71"
        Mandatory="Yes"
      />
      <ItemRef ItemOID="IT.ADAE.AEENDT"
        OrderNumber="72"
        Mandatory="Yes"
        MethodOID="MT.ADAE.AEENDT"
      />
      <ItemRef ItemOID="IT.ADAE.AEENDTL"
        OrderNumber="73"
        Mandatory="No"
        MethodOID="MT.ADAE.AEENDTL"
      />
      <ItemRef ItemOID="IT.ADAE.AENDT"
        OrderNumber="74"
        Mandatory="No"
        MethodOID="MT.ADAE.AENDT"
      />
      <ItemRef ItemOID="IT.ADAE.AENDTF"
        OrderNumber="75"
        Mandatory="No"
        MethodOID="MT.ADAE.AENDTF"
      />
      <ItemRef ItemOID="IT.ADAE.AEEN_TC"
        OrderNumber="76"
        Mandatory="Yes"
        MethodOID="MT.ADAE.AEEN_TC"
      />
      <ItemRef ItemOID="IT.ADAE.AENTM"
        OrderNumber="77"
        Mandatory="No"
        MethodOID="MT.ADAE.AENTM"
      />
      <ItemRef ItemOID="IT.ADAE.AENTMF"
        OrderNumber="78"
        Mandatory="No"
        MethodOID="MT.ADAE.AENTMF"
      />
      <ItemRef ItemOID="IT.ADAE.AENDTM"
        OrderNumber="79"
        Mandatory="No"
        MethodOID="MT.ADAE.AENDTM"
      />
      <ItemRef ItemOID="IT.ADAE.ADURN"
        OrderNumber="80"
        Mandatory="No"
        MethodOID="MT.ADAE.ADURN"
      />
      <ItemRef ItemOID="IT.ADAE.ADURU"
        OrderNumber="81"
        Mandatory="No"
        MethodOID="MT.ADAE.ADURU"
      />
      <ItemRef ItemOID="IT.ADAE.AESTDY"
        OrderNumber="82"
        Mandatory="Yes"
      />
      <ItemRef ItemOID="IT.ADAE.AEENDY"
        OrderNumber="83"
        Mandatory="Yes"
      />
      <ItemRef ItemOID="IT.ADAE.AESTREDZ"
        OrderNumber="84"
        Mandatory="Yes"
      />
      <ItemRef ItemOID="IT.ADAE.AEENREDZ"
        OrderNumber="85"
        Mandatory="Yes"
      />
      <ItemRef ItemOID="IT.ADAE.AESTRF"
        OrderNumber="86"
        Mandatory="Yes"
      />
      <ItemRef ItemOID="IT.ADAE.AESTRFN"
        OrderNumber="87"
        Mandatory="Yes"
      />
      <ItemRef ItemOID="IT.ADAE.AEENRF"
        OrderNumber="88"
        Mandatory="Yes"
      />
      <ItemRef ItemOID="IT.ADAE.AEENRFN"
        OrderNumber="89"
        Mandatory="Yes"
      />
      <ItemRef ItemOID="IT.ADAE.AETRTEM"
        OrderNumber="90"
        Mandatory="Yes"
      />
      <ItemRef ItemOID="IT.ADAE.AETRTEMN"
        OrderNumber="91"
        Mandatory="Yes"
      />
      <ItemRef ItemOID="IT.ADAE.ANL01FL"
        OrderNumber="92"
        Mandatory="No"
        MethodOID="MT.ADAE.ANL01FL"
      />
      <ItemRef ItemOID="IT.ADAE.ANL01FN"
        OrderNumber="93"
        Mandatory="No"
        MethodOID="MT.ADAE.ANL01FN"
      />
      <ItemRef ItemOID="IT.ADAE.TRTP"
        OrderNumber="94"
        Mandatory="Yes"
        MethodOID="MT.ADAE.TRTP"
      />
      <ItemRef ItemOID="IT.ADAE.TRTPN"
        OrderNumber="95"
        Mandatory="Yes"
        MethodOID="MT.ADAE.TRTPN"
      />
      <ItemRef ItemOID="IT.ADAE.TRTA"
        OrderNumber="96"
        Mandatory="Yes"
        MethodOID="MT.ADAE.TRTA"
      />
      <ItemRef ItemOID="IT.ADAE.TRTAN"
        OrderNumber="97"
        Mandatory="Yes"
        MethodOID="MT.ADAE.TRTAN"
      />
      <!-- **************************************************** -->
      <!-- def:leaf details for hypertext linking the dataset -->
      <!-- **************************************************** -->
      <def:leaf ID="LF.adae" xlink:href="adae.xpt">
        <def:title>adae.xpt </def:title>
      </def:leaf>
    </ItemGroupDef>
    <!-- ******************************************* -->
    <!-- ADEX           ItemGroupDef INFORMATION *** -->
    <!-- ******************************************* -->
    <ItemGroupDef OID="IG.ADEX"
      Name="ADEX"
      Repeating="Yes"
      IsReferenceData="No"
      SASDatasetName="ADEX"
      Purpose="Analysis"
      def:Structure="One or more records per subject per analysis parameter"
      def:Class="BASIC DATA STRUCTURE"
      def:CommentOID="COM.ADEX"
      def:ArchiveLocationID="LF.adex">
      <Description>
      <TranslatedText xml:lang="en">Exposure Analysis Dataset</TranslatedText>
      </Description>
      <ItemRef ItemOID="IT.ADEX.ADSNAME"
        OrderNumber="1"
        Mandatory="Yes"
        MethodOID="MT.ADEX.ADSNAME"
      />
      <ItemRef ItemOID="IT.ADEX.STUDYID"
        OrderNumber="2"
        Mandatory="Yes"
        KeySequence="1"
      />
      <ItemRef ItemOID="IT.ADEX.USUBJID"
        OrderNumber="3"
        Mandatory="Yes"
        KeySequence="2"
      />
      <ItemRef ItemOID="IT.ADEX.SUBJIDN"
        OrderNumber="4"
        Mandatory="Yes"
      />
      <ItemRef ItemOID="IT.ADEX.EXSEQ"
        OrderNumber="5"
        Mandatory="Yes"
      />
      <ItemRef ItemOID="IT.ADEX.SEQ"
        OrderNumber="6"
        Mandatory="Yes"
        KeySequence="3"
        MethodOID="MT.ADEX.SEQ"
      />
      <ItemRef ItemOID="IT.ADEX.ASEQ"
        OrderNumber="7"
        Mandatory="No"
        MethodOID="MT.ADEX.ASEQ"
      />
      <ItemRef ItemOID="IT.ADEX.EXNY"
        OrderNumber="8"
        Mandatory="Yes"
      />
      <ItemRef ItemOID="IT.ADEX.EXNYN"
        OrderNumber="9"
        Mandatory="Yes"
      />
      <ItemRef ItemOID="IT.ADEX.EXTRT"
        OrderNumber="10"
        Mandatory="Yes"
      />
      <ItemRef ItemOID="IT.ADEX.EXTRTN"
        OrderNumber="11"
        Mandatory="Yes"
      />
      <ItemRef ItemOID="IT.ADEX.EXCAT"
        OrderNumber="12"
        Mandatory="Yes"
      />
      <ItemRef ItemOID="IT.ADEX.EXCATN"
        OrderNumber="13"
        Mandatory="Yes"
      />
      <ItemRef ItemOID="IT.ADEX.EXSCAT"
        OrderNumber="14"
        Mandatory="No"
      />
      <ItemRef ItemOID="IT.ADEX.EXSCATN"
        OrderNumber="15"
        Mandatory="No"
      />
      <ItemRef ItemOID="IT.ADEX.EXDOSE"
        OrderNumber="16"
        Mandatory="Yes"
      />
      <ItemRef ItemOID="IT.ADEX.EXDOSU"
        OrderNumber="17"
        Mandatory="Yes"
      />
      <ItemRef ItemOID="IT.ADEX.EXDOSRGM"
        OrderNumber="18"
        Mandatory="No"
      />
      <ItemRef ItemOID="IT.ADEX.EXDSRGMN"
        OrderNumber="19"
        Mandatory="No"
      />
      <ItemRef ItemOID="IT.ADEX.EXDOSFRM"
        OrderNumber="20"
        Mandatory="Yes"
      />
      <ItemRef ItemOID="IT.ADEX.EXDSFRMN"
        OrderNumber="21"
        Mandatory="Yes"
      />
      <ItemRef ItemOID="IT.ADEX.EXDOSFRQ"
        OrderNumber="22"
        Mandatory="Yes"
      />
      <ItemRef ItemOID="IT.ADEX.EXDSFRQN"
        OrderNumber="23"
        Mandatory="Yes"
      />
      <ItemRef ItemOID="IT.ADEX.EXDSFOTH"
        OrderNumber="24"
        Mandatory="No"
      />
      <ItemRef ItemOID="IT.ADEX.EXDOSTOT"
        OrderNumber="25"
        Mandatory="No"
      />
      <ItemRef ItemOID="IT.ADEX.EXROUTE"
        OrderNumber="26"
        Mandatory="No"
      />
      <ItemRef ItemOID="IT.ADEX.EXROUTEN"
        OrderNumber="27"
        Mandatory="No"
      />
      <ItemRef ItemOID="IT.ADEX.EXADJ"
        OrderNumber="28"
        Mandatory="No"
      />
      <ItemRef ItemOID="IT.ADEX.EXADJN"
        OrderNumber="29"
        Mandatory="No"
      />
      <ItemRef ItemOID="IT.ADEX.EXADJOTH"
        OrderNumber="30"
        Mandatory="No"
      />
      <ItemRef ItemOID="IT.ADEX.VISITNUM"
        OrderNumber="31"
        Mandatory="No"
      />
      <ItemRef ItemOID="IT.ADEX.VISIT"
        OrderNumber="32"
        Mandatory="No"
      />
      <ItemRef ItemOID="IT.ADEX.AVISIT"
        OrderNumber="33"
        Mandatory="No"
        MethodOID="MT.ADEX.AVISIT"
      />
      <ItemRef ItemOID="IT.ADEX.AVISITN"
        OrderNumber="34"
        Mandatory="No"
        MethodOID="MT.ADEX.AVISITN"
      />
      <ItemRef ItemOID="IT.ADEX.TAETORD"
        OrderNumber="35"
        Mandatory="Yes"
      />
      <ItemRef ItemOID="IT.ADEX.EPOCH"
        OrderNumber="36"
        Mandatory="Yes"
      />
      <ItemRef ItemOID="IT.ADEX.EPOCHN"
        OrderNumber="37"
        Mandatory="Yes"
      />
      <ItemRef ItemOID="IT.ADEX.TRTP"
        OrderNumber="38"
        Mandatory="Yes"
        MethodOID="MT.ADEX.TRTP"
      />
      <ItemRef ItemOID="IT.ADEX.TRTPN"
        OrderNumber="39"
        Mandatory="Yes"
        MethodOID="MT.ADEX.TRTPN"
      />
      <ItemRef ItemOID="IT.ADEX.TRTA"
        OrderNumber="40"
        Mandatory="Yes"
        MethodOID="MT.ADEX.TRTA"
      />
      <ItemRef ItemOID="IT.ADEX.TRTAN"
        OrderNumber="41"
        Mandatory="Yes"
        MethodOID="MT.ADEX.TRTAN"
      />
      <ItemRef ItemOID="IT.ADEX.ANL01FL"
        OrderNumber="42"
        Mandatory="Yes"
        MethodOID="MT.ADEX.ANL01FL"
      />
      <ItemRef ItemOID="IT.ADEX.ANL01FN"
        OrderNumber="43"
        Mandatory="Yes"
        MethodOID="MT.ADEX.ANL01FN"
      />
      <ItemRef ItemOID="IT.ADEX.PARAMCD"
        OrderNumber="44"
        Mandatory="Yes"
        MethodOID="MT.ADEX.PARAMCD"
      />
      <ItemRef ItemOID="IT.ADEX.PARAM"
        OrderNumber="45"
        Mandatory="Yes"
        MethodOID="MT.ADEX.PARAM"
      />
      <ItemRef ItemOID="IT.ADEX.PARAMN"
        OrderNumber="46"
        Mandatory="Yes"
        MethodOID="MT.ADEX.PARAMN"
      />
      <ItemRef ItemOID="IT.ADEX.AVAL"
        OrderNumber="47"
        Mandatory="Yes"
        MethodOID="MT.ADEX.AVAL"
      />
      <ItemRef ItemOID="IT.ADEX.AVALC"
        OrderNumber="48"
        Mandatory="Yes"
        MethodOID="MT.ADEX.AVALC"
      />
      <ItemRef ItemOID="IT.ADEX.AVALCAT1"
        OrderNumber="49"
        Mandatory="No"
        MethodOID="MT.ADEX.AVALCAT1"
      />
      <ItemRef ItemOID="IT.ADEX.AVALCT1N"
        OrderNumber="50"
        Mandatory="No"
        MethodOID="MT.ADEX.AVALCT1N"
      />
      <ItemRef ItemOID="IT.ADEX.PARAMTYP"
        OrderNumber="51"
        Mandatory="Yes"
        MethodOID="MT.ADEX.PARAMTYP"
      />
      <ItemRef ItemOID="IT.ADEX.DTYPE"
        OrderNumber="52"
        Mandatory="No"
        MethodOID="MT.ADEX.DTYPE"
      />
      <ItemRef ItemOID="IT.ADEX.DTYPEC"
        OrderNumber="53"
        Mandatory="No"
        MethodOID="MT.ADEX.DTYPEC"
      />
      <ItemRef ItemOID="IT.ADEX.EXDOSMOD"
        OrderNumber="54"
        Mandatory="Yes"
      />
      <ItemRef ItemOID="IT.ADEX.EXDSMODN"
        OrderNumber="55"
        Mandatory="Yes"
      />
      <ItemRef ItemOID="IT.ADEX.EXINHNY"
        OrderNumber="56"
        Mandatory="No"
      />
      <ItemRef ItemOID="IT.ADEX.EXINHNYN"
        OrderNumber="57"
        Mandatory="No"
      />
      <!-- **************************************************** -->
      <!-- def:leaf details for hypertext linking the dataset -->
      <!-- **************************************************** -->
      <def:leaf ID="LF.adex" xlink:href="adex.xpt">
        <def:title>adex.xpt </def:title>
      </def:leaf>
    </ItemGroupDef>
    <!-- ************************************************************ -->
    <!-- The details of each variable is here for all domains -->
    <!-- ************************************************************ -->
    <ItemDef OID="IT.ADSL.ADSNAME"
      Name="ADSNAME"
      DataType="text"
      Length="4"
      SASFieldName="ADSNAME"
      def:DisplayFormat="8."
    >
      <Description>
      <TranslatedText xml:lang="en">Dataset Name</TranslatedText>
      </Description>
      <CodeListRef CodeListOID="CL.X_ADSNM"/>
      <def:Origin Type="Assigned"

      />
    </ItemDef>
    <ItemDef OID="IT.ADSL.STUDYID"
      Name="STUDYID"
      DataType="text"
      Length="5"
      SASFieldName="STUDYID"
      def:DisplayFormat="10."
    >
      <Description>
      <TranslatedText xml:lang="en">Study Identifier</TranslatedText>
      </Description>
      <def:Origin Type="Predecessor"

      >
        <Description>
          <TranslatedText xml:lang="en">DM.STUDYID</TranslatedText>
        </Description>
      </def:Origin>

    </ItemDef>
    <ItemDef OID="IT.ADSL.USUBJID"
      Name="USUBJID"
      DataType="text"
      Length="14"
      SASFieldName="USUBJID"
      def:DisplayFormat="20."
    >
      <Description>
      <TranslatedText xml:lang="en">Unique Subject Identifier</TranslatedText>
      </Description>
      <def:Origin Type="Predecessor"

      >
        <Description>
          <TranslatedText xml:lang="en">DM.USUBJID</TranslatedText>
        </Description>
      </def:Origin>

    </ItemDef>
    <ItemDef OID="IT.ADSL.SUBJIDN"
      Name="SUBJIDN"
      DataType="integer"
      Length="9"
      SASFieldName="SUBJIDN"
      def:DisplayFormat="9."
    >
      <Description>
      <TranslatedText xml:lang="en">Subject Identifier for the Study (N)</TranslatedText>
      </Description>
      <def:Origin Type="Predecessor"

      >
        <Description>
          <TranslatedText xml:lang="en">DM.SUBJIDN</TranslatedText>
        </Description>
      </def:Origin>

    </ItemDef>
    <ItemDef OID="IT.ADSL.SUBJID"
      Name="SUBJID"
      DataType="text"
      Length="9"
      SASFieldName="SUBJID"
      def:DisplayFormat="9."
    >
      <Description>
      <TranslatedText xml:lang="en">Subject Identifier for the Study</TranslatedText>
      </Description>
      <def:Origin Type="Predecessor"

      >
        <Description>
          <TranslatedText xml:lang="en">DM.SUBJID</TranslatedText>
        </Description>
      </def:Origin>

    </ItemDef>
    <ItemDef OID="IT.ADSL.TREATNO"
      Name="TREATNO"
      DataType="integer"
      Length="6"
      SASFieldName="TREATNO"
      def:DisplayFormat="6."
    >
      <Description>
      <TranslatedText xml:lang="en">Treatment Number</TranslatedText>
      </Description>
      <def:Origin Type="Predecessor"

      >
        <Description>
          <TranslatedText xml:lang="en">DS.TREATNO(DSDECOD EQ &apos;TREATMENT ALLOCATED&apos;)</TranslatedText>
        </Description>
      </def:Origin>

    </ItemDef>
    <ItemDef OID="IT.ADSL.RANDNO"
      Name="RANDNO"
      DataType="integer"
      Length="6"
      SASFieldName="RANDNO"
      def:DisplayFormat="6."
    >
      <Description>
      <TranslatedText xml:lang="en">Randomization Number</TranslatedText>
      </Description>
      <def:Origin Type="Predecessor"

      >
        <Description>
          <TranslatedText xml:lang="en">DS.RANDNO(dscatn EQ 1 AND dsdecodn EQ 17)</TranslatedText>
        </Description>
      </def:Origin>

    </ItemDef>
    <ItemDef OID="IT.ADSL.UASR"
      Name="UASR"
      DataType="text"
      Length="22"
      SASFieldName="UASR"
      def:DisplayFormat="40."
    >
      <Description>
      <TranslatedText xml:lang="en">Unique Subject Identifier/Age/Sex/Race</TranslatedText>
      </Description>
      <def:Origin Type="Derived"

      />
    </ItemDef>
    <ItemDef OID="IT.ADSL.RASR"
      Name="RASR"
      DataType="text"
      Length="14"
      SASFieldName="RASR"
      def:DisplayFormat="20."
    >
      <Description>
      <TranslatedText xml:lang="en">Randomization Number/Age/Sex/Race</TranslatedText>
      </Description>
      <def:Origin Type="Derived"

      />
    </ItemDef>
    <ItemDef OID="IT.ADSL.PPROTFL"
      Name="PPROTFL"
      DataType="text"
      Length="1"
      SASFieldName="PPROTFL"
      def:DisplayFormat="2."
    >
      <Description>
      <TranslatedText xml:lang="en">Per Protocol Set Flag</TranslatedText>
      </Description>
      <def:Origin Type="Predecessor"

      >
        <Description>
          <TranslatedText xml:lang="en">DM.PPROT</TranslatedText>
        </Description>
      </def:Origin>

    </ItemDef>
    <ItemDef OID="IT.ADSL.PPROTFN"
      Name="PPROTFN"
      DataType="integer"
      Length="1"
      SASFieldName="PPROTFN"
      def:DisplayFormat="3."
    >
      <Description>
      <TranslatedText xml:lang="en">Per Protocol Set Flag (N)</TranslatedText>
      </Description>
      <CodeListRef CodeListOID="CL.NY"/>
      <def:Origin Type="Predecessor"

      >
        <Description>
          <TranslatedText xml:lang="en">DM.PPROTN</TranslatedText>
        </Description>
      </def:Origin>

    </ItemDef>
    <ItemDef OID="IT.ADSL.SAFFL"
      Name="SAFFL"
      DataType="text"
      Length="1"
      SASFieldName="SAFFL"
      def:DisplayFormat="2."
    >
      <Description>
      <TranslatedText xml:lang="en">Safety Population Flag</TranslatedText>
      </Description>
      <def:Origin Type="Predecessor"

      >
        <Description>
          <TranslatedText xml:lang="en">DM.SAFETY</TranslatedText>
        </Description>
      </def:Origin>

    </ItemDef>
    <ItemDef OID="IT.ADSL.SAFFN"
      Name="SAFFN"
      DataType="integer"
      Length="1"
      SASFieldName="SAFFN"
      def:DisplayFormat="3."
    >
      <Description>
      <TranslatedText xml:lang="en">Safety Population Flag (N)</TranslatedText>
      </Description>
      <CodeListRef CodeListOID="CL.NY"/>
      <def:Origin Type="Predecessor"

      >
        <Description>
          <TranslatedText xml:lang="en">DM.SAFETYN</TranslatedText>
        </Description>
      </def:Origin>

    </ItemDef>
    <ItemDef OID="IT.ADSL.FASFL"
      Name="FASFL"
      DataType="text"
      Length="1"
      SASFieldName="FASFL"
      def:DisplayFormat="2."
    >
      <Description>
      <TranslatedText xml:lang="en">Full Analysis Set Flag</TranslatedText>
      </Description>
      <def:Origin Type="Predecessor"

      >
        <Description>
          <TranslatedText xml:lang="en">DM.FULLSET</TranslatedText>
        </Description>
      </def:Origin>

    </ItemDef>
    <ItemDef OID="IT.ADSL.FASFN"
      Name="FASFN"
      DataType="integer"
      Length="1"
      SASFieldName="FASFN"
      def:DisplayFormat="3."
    >
      <Description>
      <TranslatedText xml:lang="en">Full Analysis Set Flag (N)</TranslatedText>
      </Description>
      <CodeListRef CodeListOID="CL.NY"/>
      <def:Origin Type="Predecessor"

      >
        <Description>
          <TranslatedText xml:lang="en">DM.FULLSETN</TranslatedText>
        </Description>
      </def:Origin>

    </ItemDef>
    <ItemDef OID="IT.ADSL.ENRLFL"
      Name="ENRLFL"
      DataType="text"
      Length="1"
      SASFieldName="ENRLFL"
      def:DisplayFormat="15."
    >
      <Description>
      <TranslatedText xml:lang="en">Enrolled Population Flag</TranslatedText>
      </Description>
      <def:Origin Type="Derived"

      />
    </ItemDef>
    <ItemDef OID="IT.ADSL.ENRLFN"
      Name="ENRLFN"
      DataType="integer"
      Length="1"
      SASFieldName="ENRLFN"
      def:DisplayFormat="3."
    >
      <Description>
      <TranslatedText xml:lang="en">Enrolled Population Flag (N)</TranslatedText>
      </Description>
      <CodeListRef CodeListOID="CL.NY"/>
      <def:Origin Type="Derived"

      />
    </ItemDef>
    <ItemDef OID="IT.ADSL.RANDFL"
      Name="RANDFL"
      DataType="text"
      Length="1"
      SASFieldName="RANDFL"
      def:DisplayFormat="15."
    >
      <Description>
      <TranslatedText xml:lang="en">Randomized Population Flag</TranslatedText>
      </Description>
      <def:Origin Type="Derived"

      />
    </ItemDef>
    <ItemDef OID="IT.ADSL.RANDFN"
      Name="RANDFN"
      DataType="integer"
      Length="1"
      SASFieldName="RANDFN"
      def:DisplayFormat="3."
    >
      <Description>
      <TranslatedText xml:lang="en">Randomized Population Flag (N)</TranslatedText>
      </Description>
      <CodeListRef CodeListOID="CL.NY"/>
      <def:Origin Type="Derived"

      />
    </ItemDef>
    <ItemDef OID="IT.ADSL.COMPLFL"
      Name="COMPLFL"
      DataType="text"
      Length="1"
      SASFieldName="COMPLFL"
      def:DisplayFormat="15."
    >
      <Description>
      <TranslatedText xml:lang="en">Completers Population Flag</TranslatedText>
      </Description>
      <def:Origin Type="Derived"

      />
    </ItemDef>
    <ItemDef OID="IT.ADSL.COMPLFN"
      Name="COMPLFN"
      DataType="integer"
      Length="1"
      SASFieldName="COMPLFN"
      def:DisplayFormat="3."
    >
      <Description>
      <TranslatedText xml:lang="en">Completers Population Flag (N)</TranslatedText>
      </Description>
      <CodeListRef CodeListOID="CL.NY"/>
      <def:Origin Type="Derived"

      />
    </ItemDef>
    <ItemDef OID="IT.ADSL.SCRNFLFL"
      Name="SCRNFLFL"
      DataType="text"
      Length="1"
      SASFieldName="SCRNFLFL"
      def:DisplayFormat="15."
    >
      <Description>
      <TranslatedText xml:lang="en">Screen-Failure Flag</TranslatedText>
      </Description>
      <def:Origin Type="Derived"

      />
    </ItemDef>
    <ItemDef OID="IT.ADSL.SCRNFLFN"
      Name="SCRNFLFN"
      DataType="integer"
      Length="1"
      SASFieldName="SCRNFLFN"
      def:DisplayFormat="3."
    >
      <Description>
      <TranslatedText xml:lang="en">Screen-Failure Flag, N</TranslatedText>
      </Description>
      <CodeListRef CodeListOID="CL.NY"/>
      <def:Origin Type="Derived"

      />
    </ItemDef>
    <ItemDef OID="IT.ADSL.RFIC_D"
      Name="RFIC_D"
      DataType="integer"
      Length="2"
      SASFieldName="RFIC_D"
      def:DisplayFormat="2."
    >
      <Description>
      <TranslatedText xml:lang="en">Day of Informed Consent</TranslatedText>
      </Description>
      <def:Origin Type="Predecessor"

      >
        <Description>
          <TranslatedText xml:lang="en">DM.RFIC_D</TranslatedText>
        </Description>
      </def:Origin>

    </ItemDef>
    <ItemDef OID="IT.ADSL.RFIC_M"
      Name="RFIC_M"
      DataType="integer"
      Length="2"
      SASFieldName="RFIC_M"
      def:DisplayFormat="2."
    >
      <Description>
      <TranslatedText xml:lang="en">Month of Informed Consent</TranslatedText>
      </Description>
      <def:Origin Type="Predecessor"

      >
        <Description>
          <TranslatedText xml:lang="en">DM.RFIC_M</TranslatedText>
        </Description>
      </def:Origin>

    </ItemDef>
    <ItemDef OID="IT.ADSL.RFIC_Y"
      Name="RFIC_Y"
      DataType="integer"
      Length="4"
      SASFieldName="RFIC_Y"
      def:DisplayFormat="4."
    >
      <Description>
      <TranslatedText xml:lang="en">Year of Informed Consent</TranslatedText>
      </Description>
      <def:Origin Type="Predecessor"

      >
        <Description>
          <TranslatedText xml:lang="en">DM.RFIC_Y</TranslatedText>
        </Description>
      </def:Origin>

    </ItemDef>
    <ItemDef OID="IT.ADSL.RFICDT"
      Name="RFICDT"
      DataType="integer"
      Length="5"
      SASFieldName="RFICDT"
      def:DisplayFormat="DATE9."
    >
      <Description>
      <TranslatedText xml:lang="en">Informed Consent Date</TranslatedText>
      </Description>
      <def:Origin Type="Derived"

      />
    </ItemDef>
    <ItemDef OID="IT.ADSL.RFIC_TC"
      Name="RFIC_TC"
      DataType="text"
      Length="5"
      SASFieldName="RFIC_TC"
      def:DisplayFormat="5."
    >
      <Description>
      <TranslatedText xml:lang="en">Time of Informed Consent</TranslatedText>
      </Description>
      <def:Origin Type="Predecessor"

      >
        <Description>
          <TranslatedText xml:lang="en">DM.RFIC_TM</TranslatedText>
        </Description>
      </def:Origin>

    </ItemDef>
    <ItemDef OID="IT.ADSL.TR01SDT"
      Name="TR01SDT"
      DataType="integer"
      Length="5"
      SASFieldName="TR01SDT"
      def:DisplayFormat="DATE9."
    >
      <Description>
      <TranslatedText xml:lang="en">Date of First Exposure in Period 01</TranslatedText>
      </Description>
      <def:Origin Type="Derived"

      />
    </ItemDef>
    <ItemDef OID="IT.ADSL.TR01STM"
      Name="TR01STM"
      DataType="integer"
      Length="5"
      SASFieldName="TR01STM"
      def:DisplayFormat="TIME5."
    >
      <Description>
      <TranslatedText xml:lang="en">Time of First Exposure in Period 01</TranslatedText>
      </Description>
      <def:Origin Type="Derived"

      />
    </ItemDef>
    <ItemDef OID="IT.ADSL.TR01EDT"
      Name="TR01EDT"
      DataType="integer"
      Length="5"
      SASFieldName="TR01EDT"
      def:DisplayFormat="DATE9."
    >
      <Description>
      <TranslatedText xml:lang="en">Date of Last Exposure in Period 01</TranslatedText>
      </Description>
      <def:Origin Type="Derived"

      />
    </ItemDef>
    <ItemDef OID="IT.ADSL.TR01ETM"
      Name="TR01ETM"
      DataType="integer"
      Length="5"
      SASFieldName="TR01ETM"
      def:DisplayFormat="TIME5."
    >
      <Description>
      <TranslatedText xml:lang="en">Time of Last Exposure in Period 01</TranslatedText>
      </Description>
      <def:Origin Type="Derived"

      />
    </ItemDef>
    <ItemDef OID="IT.ADSL.LVDT"
      Name="LVDT"
      DataType="integer"
      Length="5"
      SASFieldName="LVDT"
      def:DisplayFormat="DATE9."
    >
      <Description>
      <TranslatedText xml:lang="en">Date of Last Visit</TranslatedText>
      </Description>
      <def:Origin Type="Derived"

      />
    </ItemDef>
    <ItemDef OID="IT.ADSL.RANDDT"
      Name="RANDDT"
      DataType="integer"
      Length="5"
      SASFieldName="RANDDT"
      def:DisplayFormat="DATE9."
    >
      <Description>
      <TranslatedText xml:lang="en">Date of Randomization</TranslatedText>
      </Description>
      <def:Origin Type="Derived"

      />
    </ItemDef>
    <ItemDef OID="IT.ADSL.SITEID"
      Name="SITEID"
      DataType="text"
      Length="5"
      SASFieldName="SITEID"
      def:DisplayFormat="10."
    >
      <Description>
      <TranslatedText xml:lang="en">Study Site Identifier</TranslatedText>
      </Description>
      <def:Origin Type="Predecessor"

      >
        <Description>
          <TranslatedText xml:lang="en">DM.SITEID</TranslatedText>
        </Description>
      </def:Origin>

    </ItemDef>
    <ItemDef OID="IT.ADSL.SITENAM"
      Name="SITENAM"
      DataType="text"
      Length="60"
      SASFieldName="SITENAM"
      def:DisplayFormat="200."
    >
      <Description>
      <TranslatedText xml:lang="en">Study Site Name</TranslatedText>
      </Description>
      <def:Origin Type="Predecessor"

      >
        <Description>
          <TranslatedText xml:lang="en">DM.SITENAM</TranslatedText>
        </Description>
      </def:Origin>

    </ItemDef>
    <ItemDef OID="IT.ADSL.INVID"
      Name="INVID"
      DataType="text"
      Length="6"
      SASFieldName="INVID"
      def:DisplayFormat="10."
    >
      <Description>
      <TranslatedText xml:lang="en">Investigator Identifier</TranslatedText>
      </Description>
      <def:Origin Type="Predecessor"

      >
        <Description>
          <TranslatedText xml:lang="en">DM.INVID</TranslatedText>
        </Description>
      </def:Origin>

    </ItemDef>
    <ItemDef OID="IT.ADSL.INVNAM"
      Name="INVNAM"
      DataType="text"
      Length="34"
      SASFieldName="INVNAM"
      def:DisplayFormat="200."
    >
      <Description>
      <TranslatedText xml:lang="en">Investigator Name</TranslatedText>
      </Description>
      <def:Origin Type="Predecessor"

      >
        <Description>
          <TranslatedText xml:lang="en">DM.INVNAM</TranslatedText>
        </Description>
      </def:Origin>

    </ItemDef>
    <ItemDef OID="IT.ADSL.BRTH_D"
      Name="BRTH_D"
      DataType="integer"
      Length="2"
      SASFieldName="BRTH_D"
      def:DisplayFormat="2."
    >
      <Description>
      <TranslatedText xml:lang="en">Day of Birth</TranslatedText>
      </Description>
      <def:Origin Type="Predecessor"

      >
        <Description>
          <TranslatedText xml:lang="en">DM.BRTH_D</TranslatedText>
        </Description>
      </def:Origin>

    </ItemDef>
    <ItemDef OID="IT.ADSL.BRTH_M"
      Name="BRTH_M"
      DataType="integer"
      Length="2"
      SASFieldName="BRTH_M"
      def:DisplayFormat="2."
    >
      <Description>
      <TranslatedText xml:lang="en">Month of Birth</TranslatedText>
      </Description>
      <def:Origin Type="Predecessor"

      >
        <Description>
          <TranslatedText xml:lang="en">DM.BRTH_M</TranslatedText>
        </Description>
      </def:Origin>

    </ItemDef>
    <ItemDef OID="IT.ADSL.BRTH_Y"
      Name="BRTH_Y"
      DataType="integer"
      Length="4"
      SASFieldName="BRTH_Y"
      def:DisplayFormat="4."
    >
      <Description>
      <TranslatedText xml:lang="en">Year of Birth</TranslatedText>
      </Description>
      <def:Origin Type="Predecessor"

      >
        <Description>
          <TranslatedText xml:lang="en">DM.BRTH_Y</TranslatedText>
        </Description>
      </def:Origin>

    </ItemDef>
    <ItemDef OID="IT.ADSL.BRTHDT"
      Name="BRTHDT"
      DataType="integer"
      Length="5"
      SASFieldName="BRTHDT"
      def:DisplayFormat="DATE9."
    >
      <Description>
      <TranslatedText xml:lang="en">Birth Date</TranslatedText>
      </Description>
      <def:Origin Type="Derived"

      />
    </ItemDef>
    <ItemDef OID="IT.ADSL.BRTHDTL"
      Name="BRTHDTL"
      DataType="date"
      SASFieldName="BRTHDTL"
      def:DisplayFormat="9."
    >
      <Description>
      <TranslatedText xml:lang="en">Birth Date</TranslatedText>
      </Description>
      <def:Origin Type="Derived"

      />
    </ItemDef>
    <ItemDef OID="IT.ADSL.AGE"
      Name="AGE"
      DataType="integer"
      Length="2"
      SASFieldName="AGE"
      def:DisplayFormat="3."
    >
      <Description>
      <TranslatedText xml:lang="en">Age</TranslatedText>
      </Description>
      <def:Origin Type="Predecessor"

      >
        <Description>
          <TranslatedText xml:lang="en">DM.AGE</TranslatedText>
        </Description>
      </def:Origin>

    </ItemDef>
    <ItemDef OID="IT.ADSL.AGEU"
      Name="AGEU"
      DataType="text"
      Length="5"
      SASFieldName="AGEU"
      def:DisplayFormat="6."
    >
      <Description>
      <TranslatedText xml:lang="en">Age Units</TranslatedText>
      </Description>
      <CodeListRef CodeListOID="CL.AGEU"/>
      <def:Origin Type="Predecessor"

      >
        <Description>
          <TranslatedText xml:lang="en">DM.AGEU</TranslatedText>
        </Description>
      </def:Origin>

    </ItemDef>
    <ItemDef OID="IT.ADSL.AGEGR02N"
      Name="AGEGR02N"
      DataType="float"
      Length="1"
      SASFieldName="AGEGR02N"
      SignificantDigits="0"
      def:DisplayFormat="2."
    >
      <Description>
      <TranslatedText xml:lang="en">Age Group 02 (N)</TranslatedText>
      </Description>
      <CodeListRef CodeListOID="CL.Z_AGEGRP"/>
      <def:Origin Type="Derived"

      />
    </ItemDef>
    <ItemDef OID="IT.ADSL.AGEGR02"
      Name="AGEGR02"
      DataType="text"
      Length="5"
      SASFieldName="AGEGR02"
      def:DisplayFormat="200."
    >
      <Description>
      <TranslatedText xml:lang="en">Age Group 02</TranslatedText>
      </Description>
      <def:Origin Type="Derived"

      />
    </ItemDef>
    <ItemDef OID="IT.ADSL.AGEGR01N"
      Name="AGEGR01N"
      DataType="float"
      Length="3"
      SASFieldName="AGEGR01N"
      SignificantDigits="1"
      def:DisplayFormat="2."
    >
      <Description>
      <TranslatedText xml:lang="en">Age Group 01 (N)</TranslatedText>
      </Description>
      <CodeListRef CodeListOID="CL.Z_AGEGRP"/>
      <def:Origin Type="Derived"

      />
    </ItemDef>
    <ItemDef OID="IT.ADSL.AGEGR01"
      Name="AGEGR01"
      DataType="text"
      Length="5"
      SASFieldName="AGEGR01"
      def:DisplayFormat="200."
    >
      <Description>
      <TranslatedText xml:lang="en">Age Group 01</TranslatedText>
      </Description>
      <def:Origin Type="Derived"

      />
    </ItemDef>
    <ItemDef OID="IT.ADSL.SEX"
      Name="SEX"
      DataType="text"
      Length="1"
      SASFieldName="SEX"
      def:DisplayFormat="2."
    >
      <Description>
      <TranslatedText xml:lang="en">Sex</TranslatedText>
      </Description>
      <def:Origin Type="Predecessor"

      >
        <Description>
          <TranslatedText xml:lang="en">DM.SEX</TranslatedText>
        </Description>
      </def:Origin>

    </ItemDef>
    <ItemDef OID="IT.ADSL.SEXN"
      Name="SEXN"
      DataType="integer"
      Length="1"
      SASFieldName="SEXN"
      def:DisplayFormat="3."
    >
      <Description>
      <TranslatedText xml:lang="en">Sex (N)</TranslatedText>
      </Description>
      <CodeListRef CodeListOID="CL.SEX"/>
      <def:Origin Type="Predecessor"

      >
        <Description>
          <TranslatedText xml:lang="en">DM.SEXN</TranslatedText>
        </Description>
      </def:Origin>

    </ItemDef>
    <ItemDef OID="IT.ADSL.RACE"
      Name="RACE"
      DataType="text"
      Length="41"
      SASFieldName="RACE"
      def:DisplayFormat="50."
    >
      <Description>
      <TranslatedText xml:lang="en">Race</TranslatedText>
      </Description>
      <def:Origin Type="Predecessor"

      >
        <Description>
          <TranslatedText xml:lang="en">DM.RACE</TranslatedText>
        </Description>
      </def:Origin>

    </ItemDef>
    <ItemDef OID="IT.ADSL.RACEN"
      Name="RACEN"
      DataType="integer"
      Length="3"
      SASFieldName="RACEN"
      def:DisplayFormat="3."
    >
      <Description>
      <TranslatedText xml:lang="en">Race (N)</TranslatedText>
      </Description>
      <CodeListRef CodeListOID="CL.RACE"/>
      <def:Origin Type="Predecessor"

      >
        <Description>
          <TranslatedText xml:lang="en">DM.RACEN</TranslatedText>
        </Description>
      </def:Origin>

    </ItemDef>
    <ItemDef OID="IT.ADSL.RACEALLN"
      Name="RACEALLN"
      DataType="integer"
      Length="3"
      SASFieldName="RACEALLN"
      def:DisplayFormat="5."
    >
      <Description>
      <TranslatedText xml:lang="en">Race All (N)</TranslatedText>
      </Description>
      <CodeListRef CodeListOID="CL.XRACE"/>
      <def:Origin Type="Predecessor"

      >
        <Description>
          <TranslatedText xml:lang="en">DM.RACEALLN</TranslatedText>
        </Description>
      </def:Origin>

    </ItemDef>
    <ItemDef OID="IT.ADSL.ASR"
      Name="ASR"
      DataType="text"
      Length="7"
      SASFieldName="ASR"
      def:DisplayFormat="8."
    >
      <Description>
      <TranslatedText xml:lang="en">Age/Sex/Race</TranslatedText>
      </Description>
      <def:Origin Type="Derived"

      />
    </ItemDef>
    <ItemDef OID="IT.ADSL.ETHNIC"
      Name="ETHNIC"
      DataType="text"
      Length="22"
      SASFieldName="ETHNIC"
      def:DisplayFormat="25."
    >
      <Description>
      <TranslatedText xml:lang="en">Ethnicity</TranslatedText>
      </Description>
      <def:Origin Type="Predecessor"

      >
        <Description>
          <TranslatedText xml:lang="en">DM.ETHNIC</TranslatedText>
        </Description>
      </def:Origin>

    </ItemDef>
    <ItemDef OID="IT.ADSL.ETHNICN"
      Name="ETHNICN"
      DataType="integer"
      Length="3"
      SASFieldName="ETHNICN"
      def:DisplayFormat="3."
    >
      <Description>
      <TranslatedText xml:lang="en">Ethnicity (N)</TranslatedText>
      </Description>
      <CodeListRef CodeListOID="CL.ETHNIC"/>
      <def:Origin Type="Predecessor"

      >
        <Description>
          <TranslatedText xml:lang="en">DM.ETHNICN</TranslatedText>
        </Description>
      </def:Origin>

    </ItemDef>
    <ItemDef OID="IT.ADSL.ARMCD"
      Name="ARMCD"
      DataType="text"
      Length="9"
      SASFieldName="ARMCD"
      def:DisplayFormat="20."
    >
      <Description>
      <TranslatedText xml:lang="en">Planned Arm Code</TranslatedText>
      </Description>
      <CodeListRef CodeListOID="CL.ZARMCD"/>
      <def:Origin Type="Predecessor"

      >
        <Description>
          <TranslatedText xml:lang="en">DM.ARMCD</TranslatedText>
        </Description>
      </def:Origin>

    </ItemDef>
    <ItemDef OID="IT.ADSL.ARM"
      Name="ARM"
      DataType="text"
      Length="40"
      SASFieldName="ARM"
      def:DisplayFormat="200."
    >
      <Description>
      <TranslatedText xml:lang="en">Description of Planned Arm</TranslatedText>
      </Description>
      <def:Origin Type="Predecessor"

      >
        <Description>
          <TranslatedText xml:lang="en">DM.ARM</TranslatedText>
        </Description>
      </def:Origin>

    </ItemDef>
    <ItemDef OID="IT.ADSL.ACTARM"
      Name="ACTARM"
      DataType="text"
      Length="40"
      SASFieldName="ACTARM"
      def:DisplayFormat="200."
    >
      <Description>
      <TranslatedText xml:lang="en">Description of Actual Arm</TranslatedText>
      </Description>
      <def:Origin Type="Predecessor"

      >
        <Description>
          <TranslatedText xml:lang="en">DM.ACTARM</TranslatedText>
        </Description>
      </def:Origin>

    </ItemDef>
    <ItemDef OID="IT.ADSL.ACTARMCD"
      Name="ACTARMCD"
      DataType="text"
      Length="9"
      SASFieldName="ACTARMCD"
      def:DisplayFormat="20."
    >
      <Description>
      <TranslatedText xml:lang="en">Actual Arm Code</TranslatedText>
      </Description>
      <CodeListRef CodeListOID="CL.ZARMCD"/>
      <def:Origin Type="Predecessor"

      >
        <Description>
          <TranslatedText xml:lang="en">DM.ACTARMCD</TranslatedText>
        </Description>
      </def:Origin>

    </ItemDef>
    <ItemDef OID="IT.ADSL.TRT01P"
      Name="TRT01P"
      DataType="text"
      Length="51"
      SASFieldName="TRT01P"
      def:DisplayFormat="200."
    >
      <Description>
      <TranslatedText xml:lang="en">Planned Treatment for Period 01</TranslatedText>
      </Description>
      <def:Origin Type="Derived"

      />
    </ItemDef>
    <ItemDef OID="IT.ADSL.TRT01PN"
      Name="TRT01PN"
      DataType="integer"
      Length="1"
      SASFieldName="TRT01PN"
      def:DisplayFormat="4."
    >
      <Description>
      <TranslatedText xml:lang="en">Planned Treatment for Period 01 (N)</TranslatedText>
      </Description>
      <CodeListRef CodeListOID="CL.Z_TRT"/>
      <def:Origin Type="Derived"

      />
    </ItemDef>
    <ItemDef OID="IT.ADSL.TRT01A"
      Name="TRT01A"
      DataType="text"
      Length="51"
      SASFieldName="TRT01A"
      def:DisplayFormat="200."
    >
      <Description>
      <TranslatedText xml:lang="en">Actual Treatment for Period 01</TranslatedText>
      </Description>
      <def:Origin Type="Derived"

      />
    </ItemDef>
    <ItemDef OID="IT.ADSL.TRT01AN"
      Name="TRT01AN"
      DataType="integer"
      Length="1"
      SASFieldName="TRT01AN"
      def:DisplayFormat="4."
    >
      <Description>
      <TranslatedText xml:lang="en">Actual Treatment for Period 01 (N)</TranslatedText>
      </Description>
      <CodeListRef CodeListOID="CL.Z_TRT"/>
      <def:Origin Type="Derived"

      />
    </ItemDef>
    <ItemDef OID="IT.ADSL.COUNTRY"
      Name="COUNTRY"
      DataType="text"
      Length="3"
      SASFieldName="COUNTRY"
      def:DisplayFormat="3."
    >
      <Description>
      <TranslatedText xml:lang="en">Country</TranslatedText>
      </Description>
      <CodeListRef CodeListOID="CL.COUNTRY"/>
      <def:Origin Type="Predecessor"

      >
        <Description>
          <TranslatedText xml:lang="en">DM.COUNTRY</TranslatedText>
        </Description>
      </def:Origin>

    </ItemDef>
    <ItemDef OID="IT.ADSL.CNTYGR1"
      Name="CNTYGR1"
      DataType="text"
      Length="21"
      SASFieldName="CNTYGR1"
      def:DisplayFormat="40."
    >
      <Description>
      <TranslatedText xml:lang="en">Pooled Country/Geographic Region 1</TranslatedText>
      </Description>
      <def:Origin Type="Derived"

      />
    </ItemDef>
    <ItemDef OID="IT.ADSL.CNTYGR1N"
      Name="CNTYGR1N"
      DataType="integer"
      Length="1"
      SASFieldName="CNTYGR1N"
      def:DisplayFormat="2."
    >
      <Description>
      <TranslatedText xml:lang="en">Pooled Country/Geographic Region 1 (N)</TranslatedText>
      </Description>
      <CodeListRef CodeListOID="CL.Z_CNTYGR"/>
      <def:Origin Type="Derived"

      />
    </ItemDef>
    <ItemDef OID="IT.ADSL.BASEWEIG"
      Name="BASEWEIG"
      DataType="float"
      Length="5"
      SASFieldName="BASEWEIG"
      SignificantDigits="1"
      def:DisplayFormat="8.3"
    >
      <Description>
      <TranslatedText xml:lang="en">Baseline Weight (kg)</TranslatedText>
      </Description>
      <def:Origin Type="Derived"

      />
    </ItemDef>
    <ItemDef OID="IT.ADSL.BASEHEIG"
      Name="BASEHEIG"
      DataType="float"
      Length="5"
      SASFieldName="BASEHEIG"
      SignificantDigits="1"
      def:DisplayFormat="8.3"
    >
      <Description>
      <TranslatedText xml:lang="en">Baseline Height (cm)</TranslatedText>
      </Description>
      <def:Origin Type="Derived"

      />
    </ItemDef>
    <ItemDef OID="IT.ADSL.BASEBMI"
      Name="BASEBMI"
      DataType="float"
      Length="4"
      SASFieldName="BASEBMI"
      SignificantDigits="1"
      def:DisplayFormat="8.3"
    >
      <Description>
      <TranslatedText xml:lang="en">Baseline Body Mass Index (kg/m2)</TranslatedText>
      </Description>
      <def:Origin Type="Derived"

      />
    </ItemDef>
    <ItemDef OID="IT.ADSL.EGFRGR1N"
      Name="EGFRGR1N"
      DataType="integer"
      Length="1"
      SASFieldName="EGFRGR1N"
      def:DisplayFormat="2."
    >
      <Description>
      <TranslatedText xml:lang="en">eGFR Group 1 (N)</TranslatedText>
      </Description>
      <CodeListRef CodeListOID="CL.Z_EGFRGR"/>
      <def:Origin Type="Derived"

      />
    </ItemDef>
    <ItemDef OID="IT.ADSL.EGFRGR1"
      Name="EGFRGR1"
      DataType="text"
      Length="12"
      SASFieldName="EGFRGR1"
      def:DisplayFormat="200."
    >
      <Description>
      <TranslatedText xml:lang="en">eGFR Group 1</TranslatedText>
      </Description>
      <def:Origin Type="Derived"

      />
    </ItemDef>
    <ItemDef OID="IT.ADAE.ADSNAME"
      Name="ADSNAME"
      DataType="text"
      Length="4"
      SASFieldName="ADSNAME"
      def:DisplayFormat="8."
      def:CommentOID="COM.ADAE.ADSNAME"
    >
      <Description>
      <TranslatedText xml:lang="en">Dataset Name</TranslatedText>
      </Description>
      <CodeListRef CodeListOID="CL.X_ADSNM"/>
      <def:Origin Type="Assigned"

      />
    </ItemDef>
    <ItemDef OID="IT.ADAE.STUDYID"
      Name="STUDYID"
      DataType="text"
      Length="5"
      SASFieldName="STUDYID"
      def:DisplayFormat="10."
      def:CommentOID="COM.ADAE.STUDYID"
    >
      <Description>
      <TranslatedText xml:lang="en">Study Identifier</TranslatedText>
      </Description>
      <def:Origin Type="Predecessor"

      >
        <Description>
          <TranslatedText xml:lang="en">AE.STUDYID</TranslatedText>
        </Description>
      </def:Origin>

    </ItemDef>
    <ItemDef OID="IT.ADAE.USUBJID"
      Name="USUBJID"
      DataType="text"
      Length="14"
      SASFieldName="USUBJID"
      def:DisplayFormat="20."
    >
      <Description>
      <TranslatedText xml:lang="en">Unique Subject Identifier</TranslatedText>
      </Description>
      <def:Origin Type="Predecessor"

      >
        <Description>
          <TranslatedText xml:lang="en">AE.USUBJID</TranslatedText>
        </Description>
      </def:Origin>

    </ItemDef>
    <ItemDef OID="IT.ADAE.SUBJIDN"
      Name="SUBJIDN"
      DataType="integer"
      Length="9"
      SASFieldName="SUBJIDN"
      def:DisplayFormat="9."
    >
      <Description>
      <TranslatedText xml:lang="en">Subject Identifier for the Study (N)</TranslatedText>
      </Description>
      <def:Origin Type="Predecessor"

      >
        <Description>
          <TranslatedText xml:lang="en">AE.SUBJIDN</TranslatedText>
        </Description>
      </def:Origin>

    </ItemDef>
    <ItemDef OID="IT.ADAE.AESEQ"
      Name="AESEQ"
      DataType="integer"
      Length="2"
      SASFieldName="AESEQ"
      def:DisplayFormat="8."
    >
      <Description>
      <TranslatedText xml:lang="en">Sequence Number</TranslatedText>
      </Description>
      <def:Origin Type="Predecessor"

      >
        <Description>
          <TranslatedText xml:lang="en">AE.AESEQ</TranslatedText>
        </Description>
      </def:Origin>

    </ItemDef>
    <ItemDef OID="IT.ADAE.SEQ"
      Name="SEQ"
      DataType="integer"
      Length="2"
      SASFieldName="SEQ"
      def:DisplayFormat="8."
    >
      <Description>
      <TranslatedText xml:lang="en">Sponsor Defined Analysis Sequence Number</TranslatedText>
      </Description>
      <def:Origin Type="Assigned"

      />
    </ItemDef>
    <ItemDef OID="IT.ADAE.ASEQ"
      Name="ASEQ"
      DataType="integer"
      Length="4"
      SASFieldName="ASEQ"
      def:DisplayFormat="8."
    >
      <Description>
      <TranslatedText xml:lang="en">Analysis Sequence Number</TranslatedText>
      </Description>
      <def:Origin Type="Assigned"

      />
    </ItemDef>
    <ItemDef OID="IT.ADAE.AESPID"
      Name="AESPID"
      DataType="text"
      Length="2"
      SASFieldName="AESPID"
      def:DisplayFormat="8."
    >
      <Description>
      <TranslatedText xml:lang="en">Sponsor-Defined Identifier</TranslatedText>
      </Description>
      <def:Origin Type="Predecessor"

      >
        <Description>
          <TranslatedText xml:lang="en">AE.AESPID</TranslatedText>
        </Description>
      </def:Origin>

    </ItemDef>
    <ItemDef OID="IT.ADAE.AETERM"
      Name="AETERM"
      DataType="text"
      Length="98"
      SASFieldName="AETERM"
      def:DisplayFormat="200."
    >
      <Description>
      <TranslatedText xml:lang="en">Reported Term for the Adverse Event</TranslatedText>
      </Description>
      <def:Origin Type="Predecessor"

      >
        <Description>
          <TranslatedText xml:lang="en">AE.AETERM</TranslatedText>
        </Description>
      </def:Origin>

    </ItemDef>
    <ItemDef OID="IT.ADAE.AETERMCV"
      Name="AETERMCV"
      DataType="text"
      Length="98"
      SASFieldName="AETERMCV"
      def:DisplayFormat="200."
    >
      <Description>
      <TranslatedText xml:lang="en">Clarified Verbatim</TranslatedText>
      </Description>
      <def:Origin Type="Predecessor"

      >
        <Description>
          <TranslatedText xml:lang="en">AE.AETERMCV</TranslatedText>
        </Description>
      </def:Origin>

    </ItemDef>
    <ItemDef OID="IT.ADAE.AEMODIFY"
      Name="AEMODIFY"
      DataType="text"
      Length="51"
      SASFieldName="AEMODIFY"
      def:DisplayFormat="200."
    >
      <Description>
      <TranslatedText xml:lang="en">Modified Reported Term</TranslatedText>
      </Description>
      <def:Origin Type="Predecessor"

      >
        <Description>
          <TranslatedText xml:lang="en">AE.AEMODIFY</TranslatedText>
        </Description>
      </def:Origin>

    </ItemDef>
    <ItemDef OID="IT.ADAE.AEDECOD"
      Name="AEDECOD"
      DataType="text"
      Length="57"
      SASFieldName="AEDECOD"
      def:DisplayFormat="200."
    >
      <Description>
      <TranslatedText xml:lang="en">Dictionary-Derived Term</TranslatedText>
      </Description>
      <def:Origin Type="Predecessor"

      >
        <Description>
          <TranslatedText xml:lang="en">AE.AEDECOD</TranslatedText>
        </Description>
      </def:Origin>

    </ItemDef>
    <ItemDef OID="IT.ADAE.AELLT"
      Name="AELLT"
      DataType="text"
      Length="51"
      SASFieldName="AELLT"
      def:DisplayFormat="200."
    >
      <Description>
      <TranslatedText xml:lang="en">Lowest Level Term</TranslatedText>
      </Description>
      <def:Origin Type="Predecessor"

      >
        <Description>
          <TranslatedText xml:lang="en">AE.AELLT</TranslatedText>
        </Description>
      </def:Origin>

    </ItemDef>
    <ItemDef OID="IT.ADAE.AELLTCD"
      Name="AELLTCD"
      DataType="integer"
      Length="8"
      SASFieldName="AELLTCD"
      def:DisplayFormat="8."
    >
      <Description>
      <TranslatedText xml:lang="en">Lowest Level Term Code</TranslatedText>
      </Description>
      <CodeListRef CodeListOID="CL.MEDDRAFN"/>
      <def:Origin Type="Predecessor"

      >
        <Description>
          <TranslatedText xml:lang="en">AE.AELLTCD</TranslatedText>
        </Description>
      </def:Origin>

    </ItemDef>
    <ItemDef OID="IT.ADAE.AEPTCD"
      Name="AEPTCD"
      DataType="integer"
      Length="8"
      SASFieldName="AEPTCD"
      def:DisplayFormat="8."
    >
      <Description>
      <TranslatedText xml:lang="en">Preferred Term Code</TranslatedText>
      </Description>
      <CodeListRef CodeListOID="CL.MEDDRAFN"/>
      <def:Origin Type="Predecessor"

      >
        <Description>
          <TranslatedText xml:lang="en">AE.AEPTCD</TranslatedText>
        </Description>
      </def:Origin>

    </ItemDef>
    <ItemDef OID="IT.ADAE.AEHLT"
      Name="AEHLT"
      DataType="text"
      Length="65"
      SASFieldName="AEHLT"
      def:DisplayFormat="200."
    >
      <Description>
      <TranslatedText xml:lang="en">High Level Term</TranslatedText>
      </Description>
      <def:Origin Type="Predecessor"

      >
        <Description>
          <TranslatedText xml:lang="en">AE.AEHLT</TranslatedText>
        </Description>
      </def:Origin>

    </ItemDef>
    <ItemDef OID="IT.ADAE.AEHLTCD"
      Name="AEHLTCD"
      DataType="integer"
      Length="8"
      SASFieldName="AEHLTCD"
      def:DisplayFormat="8."
    >
      <Description>
      <TranslatedText xml:lang="en">High Level Term Code</TranslatedText>
      </Description>
      <CodeListRef CodeListOID="CL.MEDDRAFN"/>
      <def:Origin Type="Predecessor"

      >
        <Description>
          <TranslatedText xml:lang="en">AE.AEHLTCD</TranslatedText>
        </Description>
      </def:Origin>

    </ItemDef>
    <ItemDef OID="IT.ADAE.AEHLGT"
      Name="AEHLGT"
      DataType="text"
      Length="86"
      SASFieldName="AEHLGT"
      def:DisplayFormat="200."
    >
      <Description>
      <TranslatedText xml:lang="en">High Level Group Term</TranslatedText>
      </Description>
      <def:Origin Type="Predecessor"

      >
        <Description>
          <TranslatedText xml:lang="en">AE.AEHLGT</TranslatedText>
        </Description>
      </def:Origin>

    </ItemDef>
    <ItemDef OID="IT.ADAE.AEHLGTCD"
      Name="AEHLGTCD"
      DataType="integer"
      Length="8"
      SASFieldName="AEHLGTCD"
      def:DisplayFormat="8."
    >
      <Description>
      <TranslatedText xml:lang="en">High Level Group Term Code</TranslatedText>
      </Description>
      <CodeListRef CodeListOID="CL.MEDDRAFN"/>
      <def:Origin Type="Predecessor"

      >
        <Description>
          <TranslatedText xml:lang="en">AE.AEHLGTCD</TranslatedText>
        </Description>
      </def:Origin>

    </ItemDef>
    <ItemDef OID="IT.ADAE.AESOC"
      Name="AESOC"
      DataType="text"
      Length="67"
      SASFieldName="AESOC"
      def:DisplayFormat="200."
    >
      <Description>
      <TranslatedText xml:lang="en">Primary System Organ Class</TranslatedText>
      </Description>
      <def:Origin Type="Predecessor"

      >
        <Description>
          <TranslatedText xml:lang="en">AE.AESOC</TranslatedText>
        </Description>
      </def:Origin>

    </ItemDef>
    <ItemDef OID="IT.ADAE.AESOCCD"
      Name="AESOCCD"
      DataType="integer"
      Length="8"
      SASFieldName="AESOCCD"
      def:DisplayFormat="8."
    >
      <Description>
      <TranslatedText xml:lang="en">Primary System Organ Class Code</TranslatedText>
      </Description>
      <CodeListRef CodeListOID="CL.MEDDRAFN"/>
      <def:Origin Type="Predecessor"

      >
        <Description>
          <TranslatedText xml:lang="en">AE.AESOCCD</TranslatedText>
        </Description>
      </def:Origin>

    </ItemDef>
    <ItemDef OID="IT.ADAE.AEMLLT"
      Name="AEMLLT"
      DataType="text"
      Length="8"
      SASFieldName="AEMLLT"
      def:DisplayFormat="8."
    >
      <Description>
      <TranslatedText xml:lang="en">MedDRA Term Code</TranslatedText>
      </Description>
      <CodeListRef CodeListOID="CL.MEDDRAF"/>
      <def:Origin Type="Predecessor"

      >
        <Description>
          <TranslatedText xml:lang="en">AE.AEMLLT</TranslatedText>
        </Description>
      </def:Origin>

    </ItemDef>
    <ItemDef OID="IT.ADAE.AEBODSYS"
      Name="AEBODSYS"
      DataType="text"
      Length="67"
      SASFieldName="AEBODSYS"
      def:DisplayFormat="200."
    >
      <Description>
      <TranslatedText xml:lang="en">Body System or Organ Class</TranslatedText>
      </Description>
      <def:Origin Type="Predecessor"

      >
        <Description>
          <TranslatedText xml:lang="en">AE.AEBODSYS</TranslatedText>
        </Description>
      </def:Origin>

    </ItemDef>
    <ItemDef OID="IT.ADAE.AEBDSYCD"
      Name="AEBDSYCD"
      DataType="integer"
      Length="8"
      SASFieldName="AEBDSYCD"
      def:DisplayFormat="8."
    >
      <Description>
      <TranslatedText xml:lang="en">Body System or Organ Class Code</TranslatedText>
      </Description>
      <CodeListRef CodeListOID="CL.MEDDRAFN"/>
      <def:Origin Type="Predecessor"

      >
        <Description>
          <TranslatedText xml:lang="en">AE.AEBDSYCD</TranslatedText>
        </Description>
      </def:Origin>

    </ItemDef>
    <ItemDef OID="IT.ADAE.AESEV"
      Name="AESEV"
      DataType="text"
      Length="8"
      SASFieldName="AESEV"
      def:DisplayFormat="20."
    >
      <Description>
      <TranslatedText xml:lang="en">Severity/Intensity</TranslatedText>
      </Description>
      <def:Origin Type="Predecessor"

      >
        <Description>
          <TranslatedText xml:lang="en">AE.AESEV</TranslatedText>
        </Description>
      </def:Origin>

    </ItemDef>
    <ItemDef OID="IT.ADAE.AESEVN"
      Name="AESEVN"
      DataType="integer"
      Length="1"
      SASFieldName="AESEVN"
      def:DisplayFormat="3."
    >
      <Description>
      <TranslatedText xml:lang="en">Severity/Intensity (N)</TranslatedText>
      </Description>
      <CodeListRef CodeListOID="CL.AESEV"/>
      <def:Origin Type="Predecessor"

      >
        <Description>
          <TranslatedText xml:lang="en">AE.AESEVN</TranslatedText>
        </Description>
      </def:Origin>

    </ItemDef>
    <ItemDef OID="IT.ADAE.AESER"
      Name="AESER"
      DataType="text"
      Length="1"
      SASFieldName="AESER"
      def:DisplayFormat="2."
    >
      <Description>
      <TranslatedText xml:lang="en">Serious Event</TranslatedText>
      </Description>
      <def:Origin Type="Predecessor"

      >
        <Description>
          <TranslatedText xml:lang="en">AE.AESER</TranslatedText>
        </Description>
      </def:Origin>

    </ItemDef>
    <ItemDef OID="IT.ADAE.AESERN"
      Name="AESERN"
      DataType="integer"
      Length="1"
      SASFieldName="AESERN"
      def:DisplayFormat="3."
    >
      <Description>
      <TranslatedText xml:lang="en">Serious Event (N)</TranslatedText>
      </Description>
      <CodeListRef CodeListOID="CL.NY"/>
      <def:Origin Type="Predecessor"

      >
        <Description>
          <TranslatedText xml:lang="en">AE.AESERN</TranslatedText>
        </Description>
      </def:Origin>

    </ItemDef>
    <ItemDef OID="IT.ADAE.AESREAS"
      Name="AESREAS"
      DataType="text"
      Length="77"
      SASFieldName="AESREAS"
      def:DisplayFormat="200."
    >
      <Description>
      <TranslatedText xml:lang="en">All Reasons for Seriousness</TranslatedText>
      </Description>
      <def:Origin Type="Derived"

      />
    </ItemDef>
    <ItemDef OID="IT.ADAE.AEACN"
      Name="AEACN"
      DataType="text"
      Length="16"
      SASFieldName="AEACN"
      def:DisplayFormat="20."
    >
      <Description>
      <TranslatedText xml:lang="en">Action Taken with Study Treatment</TranslatedText>
      </Description>
      <def:Origin Type="Predecessor"

      >
        <Description>
          <TranslatedText xml:lang="en">AE.AEACN</TranslatedText>
        </Description>
      </def:Origin>

    </ItemDef>
    <ItemDef OID="IT.ADAE.AEACNN"
      Name="AEACNN"
      DataType="integer"
      Length="3"
      SASFieldName="AEACNN"
      def:DisplayFormat="3."
    >
      <Description>
      <TranslatedText xml:lang="en">Action Taken with Study Treatment (N)</TranslatedText>
      </Description>
      <CodeListRef CodeListOID="CL.ACN"/>
      <def:Origin Type="Predecessor"

      >
        <Description>
          <TranslatedText xml:lang="en">AE.AEACNN</TranslatedText>
        </Description>
      </def:Origin>

    </ItemDef>
    <ItemDef OID="IT.ADAE.AEACNOTH"
      Name="AEACNOTH"
      DataType="text"
      Length="5"
      SASFieldName="AEACNOTH"
      def:DisplayFormat="200."
    >
      <Description>
      <TranslatedText xml:lang="en">Other Action Taken</TranslatedText>
      </Description>
      <def:Origin Type="Predecessor"

      >
        <Description>
          <TranslatedText xml:lang="en">AE.AEACNOTH</TranslatedText>
        </Description>
      </def:Origin>

    </ItemDef>
    <ItemDef OID="IT.ADAE.AECNOTHN"
      Name="AECNOTHN"
      DataType="integer"
      Length="3"
      SASFieldName="AECNOTHN"
      def:DisplayFormat="3."
    >
      <Description>
      <TranslatedText xml:lang="en">Other Action Taken (N)</TranslatedText>
      </Description>
      <CodeListRef CodeListOID="CL.XACNOTH"/>
      <def:Origin Type="Predecessor"

      >
        <Description>
          <TranslatedText xml:lang="en">AE.AECNOTHN</TranslatedText>
        </Description>
      </def:Origin>

    </ItemDef>
    <ItemDef OID="IT.ADAE.AEREL"
      Name="AEREL"
      DataType="text"
      Length="1"
      SASFieldName="AEREL"
      def:DisplayFormat="2."
    >
      <Description>
      <TranslatedText xml:lang="en">Causality</TranslatedText>
      </Description>
      <def:Origin Type="Predecessor"

      >
        <Description>
          <TranslatedText xml:lang="en">AE.AEREL</TranslatedText>
        </Description>
      </def:Origin>

    </ItemDef>
    <ItemDef OID="IT.ADAE.AERELN"
      Name="AERELN"
      DataType="integer"
      Length="1"
      SASFieldName="AERELN"
      def:DisplayFormat="3."
    >
      <Description>
      <TranslatedText xml:lang="en">Causality (N)</TranslatedText>
      </Description>
      <CodeListRef CodeListOID="CL.NY"/>
      <def:Origin Type="Predecessor"

      >
        <Description>
          <TranslatedText xml:lang="en">AE.AERELN</TranslatedText>
        </Description>
      </def:Origin>

    </ItemDef>
    <ItemDef OID="IT.ADAE.AEOUT"
      Name="AEOUT"
      DataType="text"
      Length="32"
      SASFieldName="AEOUT"
      def:DisplayFormat="40."
    >
      <Description>
      <TranslatedText xml:lang="en">Outcome of Adverse Event</TranslatedText>
      </Description>
      <def:Origin Type="Predecessor"

      >
        <Description>
          <TranslatedText xml:lang="en">AE.AEOUT</TranslatedText>
        </Description>
      </def:Origin>

    </ItemDef>
    <ItemDef OID="IT.ADAE.AEOUTN"
      Name="AEOUTN"
      DataType="integer"
      Length="3"
      SASFieldName="AEOUTN"
      def:DisplayFormat="3."
    >
      <Description>
      <TranslatedText xml:lang="en">Outcome of Adverse Event (N)</TranslatedText>
      </Description>
      <CodeListRef CodeListOID="CL.OUT"/>
      <def:Origin Type="Predecessor"

      >
        <Description>
          <TranslatedText xml:lang="en">AE.AEOUTN</TranslatedText>
        </Description>
      </def:Origin>

    </ItemDef>
    <ItemDef OID="IT.ADAE.AESCONG"
      Name="AESCONG"
      DataType="text"
      Length="2"
      SASFieldName="AESCONG"
      def:DisplayFormat="2."
    >
      <Description>
      <TranslatedText xml:lang="en">Congenital Anomaly or Birth Defect</TranslatedText>
      </Description>
      <def:Origin Type="Predecessor"

      >
        <Description>
          <TranslatedText xml:lang="en">AE.AESCONG</TranslatedText>
        </Description>
      </def:Origin>

    </ItemDef>
    <ItemDef OID="IT.ADAE.AESCONGN"
      Name="AESCONGN"
      DataType="integer"
      Length="3"
      SASFieldName="AESCONGN"
      def:DisplayFormat="3."
    >
      <Description>
      <TranslatedText xml:lang="en">Congenital Anomaly or Birth Defect (N)</TranslatedText>
      </Description>
      <CodeListRef CodeListOID="CL.NY"/>
      <def:Origin Type="Predecessor"

      >
        <Description>
          <TranslatedText xml:lang="en">AE.AESCONGN</TranslatedText>
        </Description>
      </def:Origin>

    </ItemDef>
    <ItemDef OID="IT.ADAE.AESDISAB"
      Name="AESDISAB"
      DataType="text"
      Length="1"
      SASFieldName="AESDISAB"
      def:DisplayFormat="2."
    >
      <Description>
      <TranslatedText xml:lang="en">Persist or Signif Disability/Incapacity</TranslatedText>
      </Description>
      <def:Origin Type="Predecessor"

      >
        <Description>
          <TranslatedText xml:lang="en">AE.AESDISAB</TranslatedText>
        </Description>
      </def:Origin>

    </ItemDef>
    <ItemDef OID="IT.ADAE.AESDSABN"
      Name="AESDSABN"
      DataType="integer"
      Length="1"
      SASFieldName="AESDSABN"
      def:DisplayFormat="3."
    >
      <Description>
      <TranslatedText xml:lang="en">Persist/Signif Disability/Incapacity (N)</TranslatedText>
      </Description>
      <CodeListRef CodeListOID="CL.NY"/>
      <def:Origin Type="Predecessor"

      >
        <Description>
          <TranslatedText xml:lang="en">AE.AESDSABN</TranslatedText>
        </Description>
      </def:Origin>

    </ItemDef>
    <ItemDef OID="IT.ADAE.AESDTH"
      Name="AESDTH"
      DataType="text"
      Length="1"
      SASFieldName="AESDTH"
      def:DisplayFormat="2."
    >
      <Description>
      <TranslatedText xml:lang="en">Results in Death</TranslatedText>
      </Description>
      <def:Origin Type="Predecessor"

      >
        <Description>
          <TranslatedText xml:lang="en">AE.AESDTH</TranslatedText>
        </Description>
      </def:Origin>

    </ItemDef>
    <ItemDef OID="IT.ADAE.AESDTHN"
      Name="AESDTHN"
      DataType="integer"
      Length="1"
      SASFieldName="AESDTHN"
      def:DisplayFormat="3."
    >
      <Description>
      <TranslatedText xml:lang="en">Results in Death (N)</TranslatedText>
      </Description>
      <CodeListRef CodeListOID="CL.NY"/>
      <def:Origin Type="Predecessor"

      >
        <Description>
          <TranslatedText xml:lang="en">AE.AESDTHN</TranslatedText>
        </Description>
      </def:Origin>

    </ItemDef>
    <ItemDef OID="IT.ADAE.AESHOSP"
      Name="AESHOSP"
      DataType="text"
      Length="1"
      SASFieldName="AESHOSP"
      def:DisplayFormat="2."
    >
      <Description>
      <TranslatedText xml:lang="en">Requires or Prolongs Hospitalization</TranslatedText>
      </Description>
      <def:Origin Type="Predecessor"

      >
        <Description>
          <TranslatedText xml:lang="en">AE.AESHOSP</TranslatedText>
        </Description>
      </def:Origin>

    </ItemDef>
    <ItemDef OID="IT.ADAE.AESHOSPN"
      Name="AESHOSPN"
      DataType="integer"
      Length="1"
      SASFieldName="AESHOSPN"
      def:DisplayFormat="3."
    >
      <Description>
      <TranslatedText xml:lang="en">Requires or Prolongs Hospitalization (N)</TranslatedText>
      </Description>
      <CodeListRef CodeListOID="CL.NY"/>
      <def:Origin Type="Predecessor"

      >
        <Description>
          <TranslatedText xml:lang="en">AE.AESHOSPN</TranslatedText>
        </Description>
      </def:Origin>

    </ItemDef>
    <ItemDef OID="IT.ADAE.AESLIFE"
      Name="AESLIFE"
      DataType="text"
      Length="1"
      SASFieldName="AESLIFE"
      def:DisplayFormat="2."
    >
      <Description>
      <TranslatedText xml:lang="en">Is Life Threatening</TranslatedText>
      </Description>
      <def:Origin Type="Predecessor"

      >
        <Description>
          <TranslatedText xml:lang="en">AE.AESLIFE</TranslatedText>
        </Description>
      </def:Origin>

    </ItemDef>
    <ItemDef OID="IT.ADAE.AESLIFEN"
      Name="AESLIFEN"
      DataType="integer"
      Length="1"
      SASFieldName="AESLIFEN"
      def:DisplayFormat="3."
    >
      <Description>
      <TranslatedText xml:lang="en">Is Life Threatening (N)</TranslatedText>
      </Description>
      <CodeListRef CodeListOID="CL.NY"/>
      <def:Origin Type="Predecessor"

      >
        <Description>
          <TranslatedText xml:lang="en">AE.AESLIFEN</TranslatedText>
        </Description>
      </def:Origin>

    </ItemDef>
    <ItemDef OID="IT.ADAE.AESMIE"
      Name="AESMIE"
      DataType="text"
      Length="1"
      SASFieldName="AESMIE"
      def:DisplayFormat="2."
    >
      <Description>
      <TranslatedText xml:lang="en">Other Medically Important Serious Event</TranslatedText>
      </Description>
      <def:Origin Type="Predecessor"

      >
        <Description>
          <TranslatedText xml:lang="en">AE.AESMIE</TranslatedText>
        </Description>
      </def:Origin>

    </ItemDef>
    <ItemDef OID="IT.ADAE.AESMIEN"
      Name="AESMIEN"
      DataType="integer"
      Length="1"
      SASFieldName="AESMIEN"
      def:DisplayFormat="3."
    >
      <Description>
      <TranslatedText xml:lang="en">Other Med. Important Serious Event (N)</TranslatedText>
      </Description>
      <CodeListRef CodeListOID="CL.NY"/>
      <def:Origin Type="Predecessor"

      >
        <Description>
          <TranslatedText xml:lang="en">AE.AESMIEN</TranslatedText>
        </Description>
      </def:Origin>

    </ItemDef>
    <ItemDef OID="IT.ADAE.AECONTRT"
      Name="AECONTRT"
      DataType="text"
      Length="1"
      SASFieldName="AECONTRT"
      def:DisplayFormat="2."
    >
      <Description>
      <TranslatedText xml:lang="en">Concomitant or Additional Trtmnt Given</TranslatedText>
      </Description>
      <def:Origin Type="Predecessor"

      >
        <Description>
          <TranslatedText xml:lang="en">AE.AECONTRT</TranslatedText>
        </Description>
      </def:Origin>

    </ItemDef>
    <ItemDef OID="IT.ADAE.AECNTRTN"
      Name="AECNTRTN"
      DataType="integer"
      Length="1"
      SASFieldName="AECNTRTN"
      def:DisplayFormat="3."
    >
      <Description>
      <TranslatedText xml:lang="en">Concomitant or Additional Trt Given (N)</TranslatedText>
      </Description>
      <CodeListRef CodeListOID="CL.NY"/>
      <def:Origin Type="Predecessor"

      >
        <Description>
          <TranslatedText xml:lang="en">AE.AECNTRTN</TranslatedText>
        </Description>
      </def:Origin>

    </ItemDef>
    <ItemDef OID="IT.ADAE.AEPRDOS"
      Name="AEPRDOS"
      DataType="text"
      Length="1"
      SASFieldName="AEPRDOS"
      def:DisplayFormat="2."
    >
      <Description>
      <TranslatedText xml:lang="en">AE Occur Prior to First Dose</TranslatedText>
      </Description>
      <def:Origin Type="Predecessor"

      >
        <Description>
          <TranslatedText xml:lang="en">AE.AEPRDOS</TranslatedText>
        </Description>
      </def:Origin>

    </ItemDef>
    <ItemDef OID="IT.ADAE.AEPRDOSN"
      Name="AEPRDOSN"
      DataType="integer"
      Length="1"
      SASFieldName="AEPRDOSN"
      def:DisplayFormat="3."
    >
      <Description>
      <TranslatedText xml:lang="en">AE Occur Prior to First Dose (N)</TranslatedText>
      </Description>
      <CodeListRef CodeListOID="CL.NY"/>
      <def:Origin Type="Predecessor"

      >
        <Description>
          <TranslatedText xml:lang="en">AE.AEPRDOSN</TranslatedText>
        </Description>
      </def:Origin>

    </ItemDef>
    <ItemDef OID="IT.ADAE.AERELPR"
      Name="AERELPR"
      DataType="text"
      Length="1"
      SASFieldName="AERELPR"
      def:DisplayFormat="2."
    >
      <Description>
      <TranslatedText xml:lang="en">Causality to Protocol Procedure</TranslatedText>
      </Description>
      <def:Origin Type="Predecessor"

      >
        <Description>
          <TranslatedText xml:lang="en">AE.AERELPR</TranslatedText>
        </Description>
      </def:Origin>

    </ItemDef>
    <ItemDef OID="IT.ADAE.AERELPRN"
      Name="AERELPRN"
      DataType="integer"
      Length="1"
      SASFieldName="AERELPRN"
      def:DisplayFormat="3."
    >
      <Description>
      <TranslatedText xml:lang="en">Causality to Protocol Procedure (N)</TranslatedText>
      </Description>
      <CodeListRef CodeListOID="CL.NY"/>
      <def:Origin Type="Predecessor"

      >
        <Description>
          <TranslatedText xml:lang="en">AE.AERELPRN</TranslatedText>
        </Description>
      </def:Origin>

    </ItemDef>
    <ItemDef OID="IT.ADAE.EPOCH"
      Name="EPOCH"
      DataType="text"
      Length="9"
      SASFieldName="EPOCH"
      def:DisplayFormat="40."
    >
      <Description>
      <TranslatedText xml:lang="en">Epoch</TranslatedText>
      </Description>
      <def:Origin Type="Predecessor"

      >
        <Description>
          <TranslatedText xml:lang="en">AE.EPOCH</TranslatedText>
        </Description>
      </def:Origin>

    </ItemDef>
    <ItemDef OID="IT.ADAE.EPOCHN"
      Name="EPOCHN"
      DataType="integer"
      Length="3"
      SASFieldName="EPOCHN"
      def:DisplayFormat="3."
    >
      <Description>
      <TranslatedText xml:lang="en">Epoch (N)</TranslatedText>
      </Description>
      <CodeListRef CodeListOID="CL.EPOCH"/>
      <def:Origin Type="Predecessor"

      >
        <Description>
          <TranslatedText xml:lang="en">AE.EPOCHN</TranslatedText>
        </Description>
      </def:Origin>

    </ItemDef>
    <ItemDef OID="IT.ADAE.AEST_D"
      Name="AEST_D"
      DataType="integer"
      Length="2"
      SASFieldName="AEST_D"
      def:DisplayFormat="2."
    >
      <Description>
      <TranslatedText xml:lang="en">Start Day of Adverse Event</TranslatedText>
      </Description>
      <def:Origin Type="Predecessor"

      >
        <Description>
          <TranslatedText xml:lang="en">AE.AEST_D</TranslatedText>
        </Description>
      </def:Origin>

    </ItemDef>
    <ItemDef OID="IT.ADAE.AEST_M"
      Name="AEST_M"
      DataType="integer"
      Length="2"
      SASFieldName="AEST_M"
      def:DisplayFormat="2."
    >
      <Description>
      <TranslatedText xml:lang="en">Start Month of Adverse Event</TranslatedText>
      </Description>
      <def:Origin Type="Predecessor"

      >
        <Description>
          <TranslatedText xml:lang="en">AE.AEST_M</TranslatedText>
        </Description>
      </def:Origin>

    </ItemDef>
    <ItemDef OID="IT.ADAE.AEST_Y"
      Name="AEST_Y"
      DataType="integer"
      Length="4"
      SASFieldName="AEST_Y"
      def:DisplayFormat="4."
    >
      <Description>
      <TranslatedText xml:lang="en">Start Year of Adverse Event</TranslatedText>
      </Description>
      <def:Origin Type="Predecessor"

      >
        <Description>
          <TranslatedText xml:lang="en">AE.AEST_Y</TranslatedText>
        </Description>
      </def:Origin>

    </ItemDef>
    <ItemDef OID="IT.ADAE.AESTDT"
      Name="AESTDT"
      DataType="integer"
      Length="5"
      SASFieldName="AESTDT"
      def:DisplayFormat="DATE9."
    >
      <Description>
      <TranslatedText xml:lang="en">Start Date</TranslatedText>
      </Description>
      <def:Origin Type="Derived"

      />
    </ItemDef>
    <ItemDef OID="IT.ADAE.AESTDTL"
      Name="AESTDTL"
      DataType="date"
      SASFieldName="AESTDTL"
      def:DisplayFormat="9."
    >
      <Description>
      <TranslatedText xml:lang="en">Start Date</TranslatedText>
      </Description>
      <def:Origin Type="Derived"

      />
    </ItemDef>
    <ItemDef OID="IT.ADAE.ASTDT"
      Name="ASTDT"
      DataType="integer"
      Length="5"
      SASFieldName="ASTDT"
      def:DisplayFormat="DATE9."
    >
      <Description>
      <TranslatedText xml:lang="en">Analysis Start Date</TranslatedText>
      </Description>
      <def:Origin Type="Derived"

      />
    </ItemDef>
    <ItemDef OID="IT.ADAE.ASTDTF"
      Name="ASTDTF"
      DataType="text"
      Length="1"
      SASFieldName="ASTDTF"
      def:DisplayFormat="1."
    >
      <Description>
      <TranslatedText xml:lang="en">Analysis Start Date Imputation Flag</TranslatedText>
      </Description>
      <CodeListRef CodeListOID="CL.DATEFL"/>
      <def:Origin Type="Derived"

      />
    </ItemDef>
    <ItemDef OID="IT.ADAE.AEST_TC"
      Name="AEST_TC"
      DataType="text"
      Length="5"
      SASFieldName="AEST_TC"
      def:DisplayFormat="5."
    >
      <Description>
      <TranslatedText xml:lang="en">Start Time of Adverse Event</TranslatedText>
      </Description>
      <def:Origin Type="Predecessor"

      >
        <Description>
          <TranslatedText xml:lang="en">AE.AEST_TM</TranslatedText>
        </Description>
      </def:Origin>

    </ItemDef>
    <ItemDef OID="IT.ADAE.ASTTM"
      Name="ASTTM"
      DataType="integer"
      Length="5"
      SASFieldName="ASTTM"
      def:DisplayFormat="TIME5."
    >
      <Description>
      <TranslatedText xml:lang="en">Analysis Start Time</TranslatedText>
      </Description>
      <def:Origin Type="Derived"

      />
    </ItemDef>
    <ItemDef OID="IT.ADAE.ASTTMF"
      Name="ASTTMF"
      DataType="text"
      Length="1"
      SASFieldName="ASTTMF"
      def:DisplayFormat="1."
    >
      <Description>
      <TranslatedText xml:lang="en">Analysis Start Time Imputation Flag</TranslatedText>
      </Description>
      <CodeListRef CodeListOID="CL.TIMEFL"/>
      <def:Origin Type="Derived"

      />
    </ItemDef>
    <ItemDef OID="IT.ADAE.ASTDTM"
      Name="ASTDTM"
      DataType="integer"
      Length="10"
      SASFieldName="ASTDTM"
      def:DisplayFormat="DATETIME."
    >
      <Description>
      <TranslatedText xml:lang="en">Analysis Start Date/Time</TranslatedText>
      </Description>
      <def:Origin Type="Derived"

      />
    </ItemDef>
    <ItemDef OID="IT.ADAE.AEEN_D"
      Name="AEEN_D"
      DataType="integer"
      Length="2"
      SASFieldName="AEEN_D"
      def:DisplayFormat="2."
    >
      <Description>
      <TranslatedText xml:lang="en">End Day of Adverse Event</TranslatedText>
      </Description>
      <def:Origin Type="Predecessor"

      >
        <Description>
          <TranslatedText xml:lang="en">AE.AEEN_D</TranslatedText>
        </Description>
      </def:Origin>

    </ItemDef>
    <ItemDef OID="IT.ADAE.AEEN_M"
      Name="AEEN_M"
      DataType="integer"
      Length="2"
      SASFieldName="AEEN_M"
      def:DisplayFormat="2."
    >
      <Description>
      <TranslatedText xml:lang="en">End Month of Adverse Event</TranslatedText>
      </Description>
      <def:Origin Type="Predecessor"

      >
        <Description>
          <TranslatedText xml:lang="en">AE.AEEN_M</TranslatedText>
        </Description>
      </def:Origin>

    </ItemDef>
    <ItemDef OID="IT.ADAE.AEEN_Y"
      Name="AEEN_Y"
      DataType="integer"
      Length="4"
      SASFieldName="AEEN_Y"
      def:DisplayFormat="4."
    >
      <Description>
      <TranslatedText xml:lang="en">End Year of Adverse Event</TranslatedText>
      </Description>
      <def:Origin Type="Predecessor"

      >
        <Description>
          <TranslatedText xml:lang="en">AE.AEEN_Y</TranslatedText>
        </Description>
      </def:Origin>

    </ItemDef>
    <ItemDef OID="IT.ADAE.AEENDT"
      Name="AEENDT"
      DataType="integer"
      Length="5"
      SASFieldName="AEENDT"
      def:DisplayFormat="DATE9."
    >
      <Description>
      <TranslatedText xml:lang="en">End Date</TranslatedText>
      </Description>
      <def:Origin Type="Derived"

      />
    </ItemDef>
    <ItemDef OID="IT.ADAE.AEENDTL"
      Name="AEENDTL"
      DataType="date"
      SASFieldName="AEENDTL"
      def:DisplayFormat="9."
    >
      <Description>
      <TranslatedText xml:lang="en">End Date</TranslatedText>
      </Description>
      <def:Origin Type="Derived"

      />
    </ItemDef>
    <ItemDef OID="IT.ADAE.AENDT"
      Name="AENDT"
      DataType="integer"
      Length="5"
      SASFieldName="AENDT"
      def:DisplayFormat="DATE9."
    >
      <Description>
      <TranslatedText xml:lang="en">Analysis End Date</TranslatedText>
      </Description>
      <def:Origin Type="Derived"

      />
    </ItemDef>
    <ItemDef OID="IT.ADAE.AENDTF"
      Name="AENDTF"
      DataType="text"
      Length="1"
      SASFieldName="AENDTF"
      def:DisplayFormat="1."
    >
      <Description>
      <TranslatedText xml:lang="en">Analysis End Date Imputation Flag</TranslatedText>
      </Description>
      <CodeListRef CodeListOID="CL.DATEFL"/>
      <def:Origin Type="Derived"

      />
    </ItemDef>
    <ItemDef OID="IT.ADAE.AEEN_TC"
      Name="AEEN_TC"
      DataType="text"
      Length="5"
      SASFieldName="AEEN_TC"
      def:DisplayFormat="5."
    >
      <Description>
      <TranslatedText xml:lang="en">End Time of Adverse Event</TranslatedText>
      </Description>
      <def:Origin Type="Predecessor"

      >
        <Description>
          <TranslatedText xml:lang="en">AE.AEEN_TM</TranslatedText>
        </Description>
      </def:Origin>

    </ItemDef>
    <ItemDef OID="IT.ADAE.AENTM"
      Name="AENTM"
      DataType="integer"
      Length="5"
      SASFieldName="AENTM"
      def:DisplayFormat="TIME5."
    >
      <Description>
      <TranslatedText xml:lang="en">Analysis End Time</TranslatedText>
      </Description>
      <def:Origin Type="Derived"

      />
    </ItemDef>
    <ItemDef OID="IT.ADAE.AENTMF"
      Name="AENTMF"
      DataType="text"
      Length="1"
      SASFieldName="AENTMF"
      def:DisplayFormat="1."
    >
      <Description>
      <TranslatedText xml:lang="en">Analysis End Time Imputation Flag</TranslatedText>
      </Description>
      <CodeListRef CodeListOID="CL.TIMEFL"/>
      <def:Origin Type="Derived"

      />
    </ItemDef>
    <ItemDef OID="IT.ADAE.AENDTM"
      Name="AENDTM"
      DataType="integer"
      Length="10"
      SASFieldName="AENDTM"
      def:DisplayFormat="DATETIME."
    >
      <Description>
      <TranslatedText xml:lang="en">Analysis End Date/Time</TranslatedText>
      </Description>
      <def:Origin Type="Derived"

      />
    </ItemDef>
    <ItemDef OID="IT.ADAE.ADURN"
      Name="ADURN"
      DataType="integer"
      Length="3"
      SASFieldName="ADURN"
      def:DisplayFormat="8."
    >
      <Description>
      <TranslatedText xml:lang="en">AE Duration (N)</TranslatedText>
      </Description>
      <def:Origin Type="Derived"

      />
    </ItemDef>
    <ItemDef OID="IT.ADAE.ADURU"
      Name="ADURU"
      DataType="text"
      Length="4"
      SASFieldName="ADURU"
      def:DisplayFormat="8."
    >
      <Description>
      <TranslatedText xml:lang="en">AE Duration Units</TranslatedText>
      </Description>
      <CodeListRef CodeListOID="CL.UNIT"/>
      <def:Origin Type="Derived"

      />
    </ItemDef>
    <ItemDef OID="IT.ADAE.AESTDY"
      Name="AESTDY"
      DataType="integer"
      Length="3"
      SASFieldName="AESTDY"
      def:DisplayFormat="8."
    >
      <Description>
      <TranslatedText xml:lang="en">Study Day of Start of Adverse Event</TranslatedText>
      </Description>
      <def:Origin Type="Predecessor"

      >
        <Description>
          <TranslatedText xml:lang="en">AE.AESTDY</TranslatedText>
        </Description>
      </def:Origin>

    </ItemDef>
    <ItemDef OID="IT.ADAE.AEENDY"
      Name="AEENDY"
      DataType="integer"
      Length="3"
      SASFieldName="AEENDY"
      def:DisplayFormat="8."
    >
      <Description>
      <TranslatedText xml:lang="en">Study Day of End of Adverse Event</TranslatedText>
      </Description>
      <def:Origin Type="Predecessor"

      >
        <Description>
          <TranslatedText xml:lang="en">AE.AEENDY</TranslatedText>
        </Description>
      </def:Origin>

    </ItemDef>
    <ItemDef OID="IT.ADAE.AESTREDZ"
      Name="AESTREDZ"
      DataType="integer"
      Length="4"
      SASFieldName="AESTREDZ"
      def:DisplayFormat="8."
    >
      <Description>
      <TranslatedText xml:lang="en">Study Day of Start to Reference End</TranslatedText>
      </Description>
      <def:Origin Type="Predecessor"

      >
        <Description>
          <TranslatedText xml:lang="en">AE.AESTREDZ</TranslatedText>
        </Description>
      </def:Origin>

    </ItemDef>
    <ItemDef OID="IT.ADAE.AEENREDZ"
      Name="AEENREDZ"
      DataType="integer"
      Length="4"
      SASFieldName="AEENREDZ"
      def:DisplayFormat="8."
    >
      <Description>
      <TranslatedText xml:lang="en">Study Day of End to Reference End</TranslatedText>
      </Description>
      <def:Origin Type="Predecessor"

      >
        <Description>
          <TranslatedText xml:lang="en">AE.AEENREDZ</TranslatedText>
        </Description>
      </def:Origin>

    </ItemDef>
    <ItemDef OID="IT.ADAE.AESTRF"
      Name="AESTRF"
      DataType="text"
      Length="12"
      SASFieldName="AESTRF"
      def:DisplayFormat="15."
    >
      <Description>
      <TranslatedText xml:lang="en">Start Relative to Reference Period</TranslatedText>
      </Description>
      <def:Origin Type="Predecessor"

      >
        <Description>
          <TranslatedText xml:lang="en">AE.AESTRF</TranslatedText>
        </Description>
      </def:Origin>

    </ItemDef>
    <ItemDef OID="IT.ADAE.AESTRFN"
      Name="AESTRFN"
      DataType="integer"
      Length="2"
      SASFieldName="AESTRFN"
      def:DisplayFormat="3."
    >
      <Description>
      <TranslatedText xml:lang="en">Start Relative to Reference Period (N)</TranslatedText>
      </Description>
      <CodeListRef CodeListOID="CL.STENRF"/>
      <def:Origin Type="Predecessor"

      >
        <Description>
          <TranslatedText xml:lang="en">AE.AESTRFN</TranslatedText>
        </Description>
      </def:Origin>

    </ItemDef>
    <ItemDef OID="IT.ADAE.AEENRF"
      Name="AEENRF"
      DataType="text"
      Length="12"
      SASFieldName="AEENRF"
      def:DisplayFormat="15."
    >
      <Description>
      <TranslatedText xml:lang="en">End Relative to Reference Period</TranslatedText>
      </Description>
      <def:Origin Type="Predecessor"

      >
        <Description>
          <TranslatedText xml:lang="en">AE.AEENRF</TranslatedText>
        </Description>
      </def:Origin>

    </ItemDef>
    <ItemDef OID="IT.ADAE.AEENRFN"
      Name="AEENRFN"
      DataType="integer"
      Length="2"
      SASFieldName="AEENRFN"
      def:DisplayFormat="3."
    >
      <Description>
      <TranslatedText xml:lang="en">End Relative to Reference Period (N)</TranslatedText>
      </Description>
      <CodeListRef CodeListOID="CL.STENRF"/>
      <def:Origin Type="Predecessor"

      >
        <Description>
          <TranslatedText xml:lang="en">AE.AEENRFN</TranslatedText>
        </Description>
      </def:Origin>

    </ItemDef>
    <ItemDef OID="IT.ADAE.AETRTEM"
      Name="AETRTEM"
      DataType="text"
      Length="1"
      SASFieldName="AETRTEM"
      def:DisplayFormat="2."
    >
      <Description>
      <TranslatedText xml:lang="en">Treatment Emergent Flag</TranslatedText>
      </Description>
      <def:Origin Type="Predecessor"

      >
        <Description>
          <TranslatedText xml:lang="en">AE.AETRTEM</TranslatedText>
        </Description>
      </def:Origin>

    </ItemDef>
    <ItemDef OID="IT.ADAE.AETRTEMN"
      Name="AETRTEMN"
      DataType="integer"
      Length="1"
      SASFieldName="AETRTEMN"
      def:DisplayFormat="3."
    >
      <Description>
      <TranslatedText xml:lang="en">Treatment Emergent Flag (N)</TranslatedText>
      </Description>
      <CodeListRef CodeListOID="CL.NY"/>
      <def:Origin Type="Predecessor"

      >
        <Description>
          <TranslatedText xml:lang="en">AE.AETRTEMN</TranslatedText>
        </Description>
      </def:Origin>

    </ItemDef>
    <ItemDef OID="IT.ADAE.ANL01FL"
      Name="ANL01FL"
      DataType="text"
      Length="1"
      SASFieldName="ANL01FL"
      def:DisplayFormat="2."
    >
      <Description>
      <TranslatedText xml:lang="en">Analysis Record Flag 01</TranslatedText>
      </Description>
      <def:Origin Type="Derived"

      />
    </ItemDef>
    <ItemDef OID="IT.ADAE.ANL01FN"
      Name="ANL01FN"
      DataType="integer"
      Length="1"
      SASFieldName="ANL01FN"
      def:DisplayFormat="2."
    >
      <Description>
      <TranslatedText xml:lang="en">Analyzed Record Flag 01 (N)</TranslatedText>
      </Description>
      <CodeListRef CodeListOID="CL.NY"/>
      <def:Origin Type="Derived"

      />
    </ItemDef>
    <ItemDef OID="IT.ADAE.TRTP"
      Name="TRTP"
      DataType="text"
      Length="51"
      SASFieldName="TRTP"
      def:DisplayFormat="200."
    >
      <Description>
      <TranslatedText xml:lang="en">Planned Treatment</TranslatedText>
      </Description>
      <def:Origin Type="Derived"

      />
    </ItemDef>
    <ItemDef OID="IT.ADAE.TRTPN"
      Name="TRTPN"
      DataType="integer"
      Length="1"
      SASFieldName="TRTPN"
      def:DisplayFormat="4."
    >
      <Description>
      <TranslatedText xml:lang="en">Planned Treatment (N)</TranslatedText>
      </Description>
      <CodeListRef CodeListOID="CL.Z_TRT"/>
      <def:Origin Type="Derived"

      />
    </ItemDef>
    <ItemDef OID="IT.ADAE.TRTA"
      Name="TRTA"
      DataType="text"
      Length="51"
      SASFieldName="TRTA"
      def:DisplayFormat="200."
    >
      <Description>
      <TranslatedText xml:lang="en">Actual Treatment</TranslatedText>
      </Description>
      <def:Origin Type="Derived"

      />
    </ItemDef>
    <ItemDef OID="IT.ADAE.TRTAN"
      Name="TRTAN"
      DataType="integer"
      Length="1"
      SASFieldName="TRTAN"
      def:DisplayFormat="4."
    >
      <Description>
      <TranslatedText xml:lang="en">Actual Treatment (N)</TranslatedText>
      </Description>
      <CodeListRef CodeListOID="CL.Z_TRT"/>
      <def:Origin Type="Derived"

      />
    </ItemDef>
    <ItemDef OID="IT.ADEX.ADSNAME"
      Name="ADSNAME"
      DataType="text"
      Length="4"
      SASFieldName="ADSNAME"
      def:DisplayFormat="8."
    >
      <Description>
      <TranslatedText xml:lang="en">Dataset Name</TranslatedText>
      </Description>
      <CodeListRef CodeListOID="CL.X_ADSNM"/>
      <def:Origin Type="Assigned"

      />
    </ItemDef>
    <ItemDef OID="IT.ADEX.STUDYID"
      Name="STUDYID"
      DataType="text"
      Length="5"
      SASFieldName="STUDYID"
      def:DisplayFormat="10."
    >
      <Description>
      <TranslatedText xml:lang="en">Study Identifier</TranslatedText>
      </Description>
      <def:Origin Type="Predecessor"

      >
        <Description>
          <TranslatedText xml:lang="en">EX.STUDYID</TranslatedText>
        </Description>
      </def:Origin>

    </ItemDef>
    <ItemDef OID="IT.ADEX.USUBJID"
      Name="USUBJID"
      DataType="text"
      Length="14"
      SASFieldName="USUBJID"
      def:DisplayFormat="20."
    >
      <Description>
      <TranslatedText xml:lang="en">Unique Subject Identifier</TranslatedText>
      </Description>
      <def:Origin Type="Predecessor"

      >
        <Description>
          <TranslatedText xml:lang="en">EX.USUBJID</TranslatedText>
        </Description>
      </def:Origin>

    </ItemDef>
    <ItemDef OID="IT.ADEX.SUBJIDN"
      Name="SUBJIDN"
      DataType="integer"
      Length="9"
      SASFieldName="SUBJIDN"
      def:DisplayFormat="9."
    >
      <Description>
      <TranslatedText xml:lang="en">Subject Identifier for the Study (N)</TranslatedText>
      </Description>
      <def:Origin Type="Predecessor"

      >
        <Description>
          <TranslatedText xml:lang="en">EX.SUBJIDN</TranslatedText>
        </Description>
      </def:Origin>

    </ItemDef>
    <ItemDef OID="IT.ADEX.EXSEQ"
      Name="EXSEQ"
      DataType="integer"
      Length="2"
      SASFieldName="EXSEQ"
      def:DisplayFormat="8."
    >
      <Description>
      <TranslatedText xml:lang="en">Sequence Number</TranslatedText>
      </Description>
      <def:Origin Type="Predecessor"

      >
        <Description>
          <TranslatedText xml:lang="en">EX.EXSEQ</TranslatedText>
        </Description>
      </def:Origin>

    </ItemDef>
    <ItemDef OID="IT.ADEX.SEQ"
      Name="SEQ"
      DataType="integer"
      Length="2"
      SASFieldName="SEQ"
      def:DisplayFormat="8."
    >
      <Description>
      <TranslatedText xml:lang="en">Sponsor Defined Analysis Sequence Number</TranslatedText>
      </Description>
      <def:Origin Type="Assigned"

      />
    </ItemDef>
    <ItemDef OID="IT.ADEX.ASEQ"
      Name="ASEQ"
      DataType="integer"
      Length="4"
      SASFieldName="ASEQ"
      def:DisplayFormat="8."
    >
      <Description>
      <TranslatedText xml:lang="en">Analysis Sequence Number</TranslatedText>
      </Description>
      <def:Origin Type="Assigned"

      />
    </ItemDef>
    <ItemDef OID="IT.ADEX.EXNY"
      Name="EXNY"
      DataType="text"
      Length="1"
      SASFieldName="EXNY"
      def:DisplayFormat="2."
    >
      <Description>
      <TranslatedText xml:lang="en">Subject Took Study Drug</TranslatedText>
      </Description>
      <def:Origin Type="Predecessor"

      >
        <Description>
          <TranslatedText xml:lang="en">EX.EXNY</TranslatedText>
        </Description>
      </def:Origin>

    </ItemDef>
    <ItemDef OID="IT.ADEX.EXNYN"
      Name="EXNYN"
      DataType="integer"
      Length="1"
      SASFieldName="EXNYN"
      def:DisplayFormat="3."
    >
      <Description>
      <TranslatedText xml:lang="en">Subject Took Study Drug (N)</TranslatedText>
      </Description>
      <CodeListRef CodeListOID="CL.NY"/>
      <def:Origin Type="Predecessor"

      >
        <Description>
          <TranslatedText xml:lang="en">EX.EXNYN</TranslatedText>
        </Description>
      </def:Origin>

    </ItemDef>
    <ItemDef OID="IT.ADEX.EXTRT"
      Name="EXTRT"
      DataType="text"
      Length="13"
      SASFieldName="EXTRT"
      def:DisplayFormat="60."
    >
      <Description>
      <TranslatedText xml:lang="en">Name of Actual Treatment</TranslatedText>
      </Description>
      <def:Origin Type="Predecessor"

      >
        <Description>
          <TranslatedText xml:lang="en">EX.EXTRT</TranslatedText>
        </Description>
      </def:Origin>

    </ItemDef>
    <ItemDef OID="IT.ADEX.EXTRTN"
      Name="EXTRTN"
      DataType="integer"
      Length="1"
      SASFieldName="EXTRTN"
      def:DisplayFormat="3."
    >
      <Description>
      <TranslatedText xml:lang="en">Name of Actual Treatment (N)</TranslatedText>
      </Description>
      <CodeListRef CodeListOID="CL.ZEXTRT"/>
      <def:Origin Type="Predecessor"

      >
        <Description>
          <TranslatedText xml:lang="en">EX.EXTRTN</TranslatedText>
        </Description>
      </def:Origin>

    </ItemDef>
    <ItemDef OID="IT.ADEX.EXCAT"
      Name="EXCAT"
      DataType="text"
      Length="36"
      SASFieldName="EXCAT"
      def:DisplayFormat="200."
    >
      <Description>
      <TranslatedText xml:lang="en">Category for Treatment</TranslatedText>
      </Description>
      <def:Origin Type="Predecessor"

      >
        <Description>
          <TranslatedText xml:lang="en">EX.EXCAT</TranslatedText>
        </Description>
      </def:Origin>

    </ItemDef>
    <ItemDef OID="IT.ADEX.EXCATN"
      Name="EXCATN"
      DataType="integer"
      Length="1"
      SASFieldName="EXCATN"
      def:DisplayFormat="3."
    >
      <Description>
      <TranslatedText xml:lang="en">Category for Treatment (N)</TranslatedText>
      </Description>
      <CodeListRef CodeListOID="CL.XEXCAT"/>
      <def:Origin Type="Predecessor"

      >
        <Description>
          <TranslatedText xml:lang="en">EX.EXCATN</TranslatedText>
        </Description>
      </def:Origin>

    </ItemDef>
    <ItemDef OID="IT.ADEX.EXSCAT"
      Name="EXSCAT"
      DataType="text"
      Length="32"
      SASFieldName="EXSCAT"
      def:DisplayFormat="200."
    >
      <Description>
      <TranslatedText xml:lang="en">Subcategory for Treatment</TranslatedText>
      </Description>
      <def:Origin Type="Predecessor"

      >
        <Description>
          <TranslatedText xml:lang="en">EX.EXSCAT</TranslatedText>
        </Description>
      </def:Origin>

    </ItemDef>
    <ItemDef OID="IT.ADEX.EXSCATN"
      Name="EXSCATN"
      DataType="integer"
      Length="1"
      SASFieldName="EXSCATN"
      def:DisplayFormat="3."
    >
      <Description>
      <TranslatedText xml:lang="en">Subcategory for Treatment (N)</TranslatedText>
      </Description>
      <CodeListRef CodeListOID="CL.ZEXSCAT"/>
      <def:Origin Type="Predecessor"

      >
        <Description>
          <TranslatedText xml:lang="en">EX.EXSCATN</TranslatedText>
        </Description>
      </def:Origin>

    </ItemDef>
    <ItemDef OID="IT.ADEX.EXDOSE"
      Name="EXDOSE"
      DataType="float"
      Length="4"
      SASFieldName="EXDOSE"
      SignificantDigits="1"
      def:DisplayFormat="13.3"
    >
      <Description>
      <TranslatedText xml:lang="en">Dose per Administration</TranslatedText>
      </Description>
      <def:Origin Type="Predecessor"

      >
        <Description>
          <TranslatedText xml:lang="en">EX.EXDOSE</TranslatedText>
        </Description>
      </def:Origin>

    </ItemDef>
    <ItemDef OID="IT.ADEX.EXDOSU"
      Name="EXDOSU"
      DataType="text"
      Length="2"
      SASFieldName="EXDOSU"
      def:DisplayFormat="40."
    >
      <Description>
      <TranslatedText xml:lang="en">Dose Units</TranslatedText>
      </Description>
      <CodeListRef CodeListOID="CL.UNIT"/>
      <def:Origin Type="Predecessor"

      >
        <Description>
          <TranslatedText xml:lang="en">EX.EXDOSU</TranslatedText>
        </Description>
      </def:Origin>

    </ItemDef>
    <ItemDef OID="IT.ADEX.EXDOSRGM"
      Name="EXDOSRGM"
      DataType="text"
      Length="24"
      SASFieldName="EXDOSRGM"
      def:DisplayFormat="40."
    >
      <Description>
      <TranslatedText xml:lang="en">Intended Dose Regimen</TranslatedText>
      </Description>
      <def:Origin Type="Predecessor"

      >
        <Description>
          <TranslatedText xml:lang="en">EX.EXDOSRGM</TranslatedText>
        </Description>
      </def:Origin>

    </ItemDef>
    <ItemDef OID="IT.ADEX.EXDSRGMN"
      Name="EXDSRGMN"
      DataType="integer"
      Length="2"
      SASFieldName="EXDSRGMN"
      def:DisplayFormat="3."
    >
      <Description>
      <TranslatedText xml:lang="en">Intended Dose Regimen (N)</TranslatedText>
      </Description>
      <CodeListRef CodeListOID="CL.ZDOSRGM"/>
      <def:Origin Type="Predecessor"

      >
        <Description>
          <TranslatedText xml:lang="en">EX.EXDSRGMN</TranslatedText>
        </Description>
      </def:Origin>

    </ItemDef>
    <ItemDef OID="IT.ADEX.EXDOSFRM"
      Name="EXDOSFRM"
      DataType="text"
      Length="22"
      SASFieldName="EXDOSFRM"
      def:DisplayFormat="40."
    >
      <Description>
      <TranslatedText xml:lang="en">Dose Form</TranslatedText>
      </Description>
      <def:Origin Type="Predecessor"

      >
        <Description>
          <TranslatedText xml:lang="en">EX.EXDOSFRM</TranslatedText>
        </Description>
      </def:Origin>

    </ItemDef>
    <ItemDef OID="IT.ADEX.EXDSFRMN"
      Name="EXDSFRMN"
      DataType="integer"
      Length="2"
      SASFieldName="EXDSFRMN"
      def:DisplayFormat="3."
    >
      <Description>
      <TranslatedText xml:lang="en">Dose Form (N)</TranslatedText>
      </Description>
      <CodeListRef CodeListOID="CL.FRM"/>
      <def:Origin Type="Predecessor"

      >
        <Description>
          <TranslatedText xml:lang="en">EX.EXDSFRMN</TranslatedText>
        </Description>
      </def:Origin>

    </ItemDef>
    <ItemDef OID="IT.ADEX.EXDOSFRQ"
      Name="EXDOSFRQ"
      DataType="text"
      Length="3"
      SASFieldName="EXDOSFRQ"
      def:DisplayFormat="200."
    >
      <Description>
      <TranslatedText xml:lang="en">Dosing Frequency per Interval</TranslatedText>
      </Description>
      <def:Origin Type="Predecessor"

      >
        <Description>
          <TranslatedText xml:lang="en">EX.EXDOSFRQ</TranslatedText>
        </Description>
      </def:Origin>

    </ItemDef>
    <ItemDef OID="IT.ADEX.EXDSFRQN"
      Name="EXDSFRQN"
      DataType="integer"
      Length="2"
      SASFieldName="EXDSFRQN"
      def:DisplayFormat="3."
    >
      <Description>
      <TranslatedText xml:lang="en">Dosing Frequency per Interval (N)</TranslatedText>
      </Description>
      <CodeListRef CodeListOID="CL.FREQ"/>
      <def:Origin Type="Predecessor"

      >
        <Description>
          <TranslatedText xml:lang="en">EX.EXDSFRQN</TranslatedText>
        </Description>
      </def:Origin>

    </ItemDef>
    <ItemDef OID="IT.ADEX.EXDSFOTH"
      Name="EXDSFOTH"
      DataType="text"
      Length="40"
      SASFieldName="EXDSFOTH"
      def:DisplayFormat="40."
    >
      <Description>
      <TranslatedText xml:lang="en">Dosing Frequency, Other</TranslatedText>
      </Description>
      <def:Origin Type="Predecessor"

      >
        <Description>
          <TranslatedText xml:lang="en">EX.EXDSFOTH</TranslatedText>
        </Description>
      </def:Origin>

    </ItemDef>
    <ItemDef OID="IT.ADEX.EXDOSTOT"
      Name="EXDOSTOT"
      DataType="float"
      Length="4"
      SASFieldName="EXDOSTOT"
      SignificantDigits="1"
      def:DisplayFormat="13.3"
    >
      <Description>
      <TranslatedText xml:lang="en">Total Daily Dose</TranslatedText>
      </Description>
      <def:Origin Type="Predecessor"

      >
        <Description>
          <TranslatedText xml:lang="en">EX.EXDOSTOT</TranslatedText>
        </Description>
      </def:Origin>

    </ItemDef>
    <ItemDef OID="IT.ADEX.EXROUTE"
      Name="EXROUTE"
      DataType="text"
      Length="24"
      SASFieldName="EXROUTE"
      def:DisplayFormat="40."
    >
      <Description>
      <TranslatedText xml:lang="en">Route of Administration</TranslatedText>
      </Description>
      <def:Origin Type="Predecessor"

      >
        <Description>
          <TranslatedText xml:lang="en">EX.EXROUTE</TranslatedText>
        </Description>
      </def:Origin>

    </ItemDef>
    <ItemDef OID="IT.ADEX.EXROUTEN"
      Name="EXROUTEN"
      DataType="integer"
      Length="2"
      SASFieldName="EXROUTEN"
      def:DisplayFormat="3."
    >
      <Description>
      <TranslatedText xml:lang="en">Route of Administration (N)</TranslatedText>
      </Description>
      <CodeListRef CodeListOID="CL.ROUTE"/>
      <def:Origin Type="Predecessor"

      >
        <Description>
          <TranslatedText xml:lang="en">EX.EXROUTEN</TranslatedText>
        </Description>
      </def:Origin>

    </ItemDef>
    <ItemDef OID="IT.ADEX.EXADJ"
      Name="EXADJ"
      DataType="text"
      Length="33"
      SASFieldName="EXADJ"
      def:DisplayFormat="200."
    >
      <Description>
      <TranslatedText xml:lang="en">Reason for Dose Adjustment</TranslatedText>
      </Description>
      <def:Origin Type="Predecessor"

      >
        <Description>
          <TranslatedText xml:lang="en">EX.EXADJ</TranslatedText>
        </Description>
      </def:Origin>

    </ItemDef>
    <ItemDef OID="IT.ADEX.EXADJN"
      Name="EXADJN"
      DataType="integer"
      Length="2"
      SASFieldName="EXADJN"
      def:DisplayFormat="3."
    >
      <Description>
      <TranslatedText xml:lang="en">Reason for Dose Adjustment (N)</TranslatedText>
      </Description>
      <CodeListRef CodeListOID="CL.XEXADJ"/>
      <def:Origin Type="Predecessor"

      >
        <Description>
          <TranslatedText xml:lang="en">EX.EXADJN</TranslatedText>
        </Description>
      </def:Origin>

    </ItemDef>
    <ItemDef OID="IT.ADEX.EXADJOTH"
      Name="EXADJOTH"
      DataType="text"
      Length="196"
      SASFieldName="EXADJOTH"
      def:DisplayFormat="200."
    >
      <Description>
      <TranslatedText xml:lang="en">Reason for Dose Adjustment, Other</TranslatedText>
      </Description>
      <def:Origin Type="Predecessor"

      >
        <Description>
          <TranslatedText xml:lang="en">EX.EXADJOTH</TranslatedText>
        </Description>
      </def:Origin>

    </ItemDef>
    <ItemDef OID="IT.ADEX.VISITNUM"
      Name="VISITNUM"
      DataType="float"
      Length="7"
      SASFieldName="VISITNUM"
      SignificantDigits="2"
      def:DisplayFormat="9.4"
    >
      <Description>
      <TranslatedText xml:lang="en">Visit Number</TranslatedText>
      </Description>
      <def:Origin Type="Predecessor"

      >
        <Description>
          <TranslatedText xml:lang="en">EX.VISITNUM</TranslatedText>
        </Description>
      </def:Origin>

    </ItemDef>
    <ItemDef OID="IT.ADEX.VISIT"
      Name="VISIT"
      DataType="text"
      Length="39"
      SASFieldName="VISIT"
      def:DisplayFormat="40."
    >
      <Description>
      <TranslatedText xml:lang="en">Visit Name</TranslatedText>
      </Description>
      <def:Origin Type="Predecessor"

      >
        <Description>
          <TranslatedText xml:lang="en">EX.VISIT</TranslatedText>
        </Description>
      </def:Origin>

    </ItemDef>
    <ItemDef OID="IT.ADEX.AVISIT"
      Name="AVISIT"
      DataType="text"
      Length="48"
      SASFieldName="AVISIT"
      def:DisplayFormat="100."
    >
      <Description>
      <TranslatedText xml:lang="en">Analysis Visit</TranslatedText>
      </Description>
      <def:Origin Type="Derived"

      />
    </ItemDef>
    <ItemDef OID="IT.ADEX.AVISITN"
      Name="AVISITN"
      DataType="float"
      Length="9"
      SASFieldName="AVISITN"
      SignificantDigits="4"
      def:DisplayFormat="8."
    >
      <Description>
      <TranslatedText xml:lang="en">Analysis Visit (N)</TranslatedText>
      </Description>
      <CodeListRef CodeListOID="CL.Z_AVISIT"/>
      <def:Origin Type="Derived"

      />
    </ItemDef>
    <ItemDef OID="IT.ADEX.TAETORD"
      Name="TAETORD"
      DataType="integer"
      Length="1"
      SASFieldName="TAETORD"
      def:DisplayFormat="3."
    >
      <Description>
      <TranslatedText xml:lang="en">Order of Element within Arm</TranslatedText>
      </Description>
      <def:Origin Type="Predecessor"

      >
        <Description>
          <TranslatedText xml:lang="en">EX.TAETORD</TranslatedText>
        </Description>
      </def:Origin>

    </ItemDef>
    <ItemDef OID="IT.ADEX.EPOCH"
      Name="EPOCH"
      DataType="text"
      Length="9"
      SASFieldName="EPOCH"
      def:DisplayFormat="40."
    >
      <Description>
      <TranslatedText xml:lang="en">Epoch</TranslatedText>
      </Description>
      <def:Origin Type="Predecessor"

      >
        <Description>
          <TranslatedText xml:lang="en">EX.EPOCH</TranslatedText>
        </Description>
      </def:Origin>

    </ItemDef>
    <ItemDef OID="IT.ADEX.EPOCHN"
      Name="EPOCHN"
      DataType="integer"
      Length="3"
      SASFieldName="EPOCHN"
      def:DisplayFormat="3."
    >
      <Description>
      <TranslatedText xml:lang="en">Epoch (N)</TranslatedText>
      </Description>
      <CodeListRef CodeListOID="CL.EPOCH"/>
      <def:Origin Type="Predecessor"

      >
        <Description>
          <TranslatedText xml:lang="en">EX.EPOCHN</TranslatedText>
        </Description>
      </def:Origin>

    </ItemDef>
    <ItemDef OID="IT.ADEX.TRTP"
      Name="TRTP"
      DataType="text"
      Length="51"
      SASFieldName="TRTP"
      def:DisplayFormat="200."
    >
      <Description>
      <TranslatedText xml:lang="en">Planned Treatment</TranslatedText>
      </Description>
      <def:Origin Type="Derived"

      />
    </ItemDef>
    <ItemDef OID="IT.ADEX.TRTPN"
      Name="TRTPN"
      DataType="integer"
      Length="1"
      SASFieldName="TRTPN"
      def:DisplayFormat="4."
    >
      <Description>
      <TranslatedText xml:lang="en">Planned Treatment (N)</TranslatedText>
      </Description>
      <CodeListRef CodeListOID="CL.Z_TRT"/>
      <def:Origin Type="Derived"

      />
    </ItemDef>
    <ItemDef OID="IT.ADEX.TRTA"
      Name="TRTA"
      DataType="text"
      Length="51"
      SASFieldName="TRTA"
      def:DisplayFormat="200."
    >
      <Description>
      <TranslatedText xml:lang="en">Actual Treatment</TranslatedText>
      </Description>
      <def:Origin Type="Derived"

      />
    </ItemDef>
    <ItemDef OID="IT.ADEX.TRTAN"
      Name="TRTAN"
      DataType="integer"
      Length="1"
      SASFieldName="TRTAN"
      def:DisplayFormat="4."
    >
      <Description>
      <TranslatedText xml:lang="en">Actual Treatment (N)</TranslatedText>
      </Description>
      <CodeListRef CodeListOID="CL.Z_TRT"/>
      <def:Origin Type="Derived"

      />
    </ItemDef>
    <ItemDef OID="IT.ADEX.ANL01FL"
      Name="ANL01FL"
      DataType="text"
      Length="1"
      SASFieldName="ANL01FL"
      def:DisplayFormat="2."
    >
      <Description>
      <TranslatedText xml:lang="en">Analysis Record Flag 01</TranslatedText>
      </Description>
      <def:Origin Type="Derived"

      />
    </ItemDef>
    <ItemDef OID="IT.ADEX.ANL01FN"
      Name="ANL01FN"
      DataType="integer"
      Length="1"
      SASFieldName="ANL01FN"
      def:DisplayFormat="2."
    >
      <Description>
      <TranslatedText xml:lang="en">Analyzed Record Flag 01 (N)</TranslatedText>
      </Description>
      <CodeListRef CodeListOID="CL.NY"/>
      <def:Origin Type="Derived"

      />
    </ItemDef>
    <ItemDef OID="IT.ADEX.PARAMCD"
      Name="PARAMCD"
      DataType="text"
      Length="7"
      SASFieldName="PARAMCD"
      def:DisplayFormat="8."
    >
      <Description>
      <TranslatedText xml:lang="en">Parameter Code</TranslatedText>
      </Description>
      <CodeListRef CodeListOID="CL.X_EXPAR"/>
      <def:Origin Type="Assigned"

      />
    </ItemDef>
    <ItemDef OID="IT.ADEX.PARAM"
      Name="PARAM"
      DataType="text"
      Length="85"
      SASFieldName="PARAM"
      def:DisplayFormat="200."
    >
      <Description>
      <TranslatedText xml:lang="en">Parameter</TranslatedText>
      </Description>
      <def:Origin Type="Derived"

      />
    </ItemDef>
    <ItemDef OID="IT.ADEX.PARAMN"
      Name="PARAMN"
      DataType="integer"
      Length="2"
      SASFieldName="PARAMN"
      def:DisplayFormat="8."
    >
      <Description>
      <TranslatedText xml:lang="en">Parameter (N)</TranslatedText>
      </Description>
      <CodeListRef CodeListOID="CL.X_EXPARN"/>
      <def:Origin Type="Assigned"

      />
    </ItemDef>
    <ItemDef OID="IT.ADEX.AVAL"
      Name="AVAL"
      DataType="float"
      Length="14"
      SASFieldName="AVAL"
      SignificantDigits="10"
      def:DisplayFormat="9.4"
    >
      <Description>
      <TranslatedText xml:lang="en">Analysis Value</TranslatedText>
      </Description>
      <def:Origin Type="Derived"

      />
      <def:ValueListRef ValueListOID="VL.ADEX.AVAL"/>
    </ItemDef>
    <ItemDef OID="IT.ADEX.AVALC"
      Name="AVALC"
      DataType="text"
      Length="12"
      SASFieldName="AVALC"
      def:DisplayFormat="200."
    >
      <Description>
      <TranslatedText xml:lang="en">Analysis Value (C)</TranslatedText>
      </Description>
      <def:Origin Type="Derived"

      />
    </ItemDef>
    <ItemDef OID="IT.ADEX.AVALCAT1"
      Name="AVALCAT1"
      DataType="text"
      Length="15"
      SASFieldName="AVALCAT1"
      def:DisplayFormat="200."
    >
      <Description>
      <TranslatedText xml:lang="en">Analysis Category 1</TranslatedText>
      </Description>
      <def:Origin Type="Derived"

      />
    </ItemDef>
    <ItemDef OID="IT.ADEX.AVALCT1N"
      Name="AVALCT1N"
      DataType="integer"
      Length="3"
      SASFieldName="AVALCT1N"
      def:DisplayFormat="8."
    >
      <Description>
      <TranslatedText xml:lang="en">Analysis Category 1 (N)</TranslatedText>
      </Description>
      <CodeListRef CodeListOID="CL.Z_EXAVC"/>
      <def:Origin Type="Derived"

      />
    </ItemDef>
    <ItemDef OID="IT.ADEX.PARAMTYP"
      Name="PARAMTYP"
      DataType="text"
      Length="7"
      SASFieldName="PARAMTYP"
      def:DisplayFormat="20."
    >
      <Description>
      <TranslatedText xml:lang="en">Parameter Type</TranslatedText>
      </Description>
      <CodeListRef CodeListOID="CL.PARMTYP"/>
      <def:Origin Type="Assigned"

      />
    </ItemDef>
    <ItemDef OID="IT.ADEX.DTYPE"
      Name="DTYPE"
      DataType="text"
      Length="20"
      SASFieldName="DTYPE"
      def:DisplayFormat="20."
    >
      <Description>
      <TranslatedText xml:lang="en">Derivation Type</TranslatedText>
      </Description>
      <CodeListRef CodeListOID="CL.DTYPE"/>
      <def:Origin Type="Assigned"

      />
    </ItemDef>
    <ItemDef OID="IT.ADEX.DTYPEC"
      Name="DTYPEC"
      DataType="text"
      Length="100"
      SASFieldName="DTYPEC"
      def:DisplayFormat="100."
    >
      <Description>
      <TranslatedText xml:lang="en">Derivation Type (C)</TranslatedText>
      </Description>
      <def:Origin Type="Derived"

      />
    </ItemDef>
    <ItemDef OID="IT.ADEX.EXDOSMOD"
      Name="EXDOSMOD"
      DataType="text"
      Length="21"
      SASFieldName="EXDOSMOD"
      def:DisplayFormat="40."
    >
      <Description>
      <TranslatedText xml:lang="en">Dose Modification</TranslatedText>
      </Description>
      <def:Origin Type="Predecessor"

      >
        <Description>
          <TranslatedText xml:lang="en">EX.EXDOSMOD</TranslatedText>
        </Description>
      </def:Origin>

    </ItemDef>
    <ItemDef OID="IT.ADEX.EXDSMODN"
      Name="EXDSMODN"
      DataType="integer"
      Length="1"
      SASFieldName="EXDSMODN"
      def:DisplayFormat="3."
    >
      <Description>
      <TranslatedText xml:lang="en">Dose Modification (N)</TranslatedText>
      </Description>
      <CodeListRef CodeListOID="CL.XDOSMOD"/>
      <def:Origin Type="Predecessor"

      >
        <Description>
          <TranslatedText xml:lang="en">EX.EXDSMODN</TranslatedText>
        </Description>
      </def:Origin>

    </ItemDef>
    <ItemDef OID="IT.ADEX.EXINHNY"
      Name="EXINHNY"
      DataType="text"
      Length="1"
      SASFieldName="EXINHNY"
      def:DisplayFormat="2."
    >
      <Description>
      <TranslatedText xml:lang="en">Inhalation During Visit Performed</TranslatedText>
      </Description>
      <def:Origin Type="Predecessor"

      >
        <Description>
          <TranslatedText xml:lang="en">EX.EXINHNY</TranslatedText>
        </Description>
      </def:Origin>

    </ItemDef>
    <ItemDef OID="IT.ADEX.EXINHNYN"
      Name="EXINHNYN"
      DataType="integer"
      Length="1"
      SASFieldName="EXINHNYN"
      def:DisplayFormat="3."
    >
      <Description>
      <TranslatedText xml:lang="en">Inhalation During Visit Performed (N)</TranslatedText>
      </Description>
      <CodeListRef CodeListOID="CL.NY"/>
      <def:Origin Type="Predecessor"

      >
        <Description>
          <TranslatedText xml:lang="en">EX.EXINHNYN</TranslatedText>
        </Description>
      </def:Origin>

    </ItemDef>
    <!-- ************************************************************ -->
    <!-- The details of value level items are here                    -->
    <!-- ************************************************************ -->
    <ItemDef OID="IT.ADEX.PARAMCD.ACDSDAY.DTYPE. .PARAMTYP.DERIVED"
      Name="ACDSDAY"
      SASFieldName="ACDSDAY"
      DataType="float"
      Length="14"
      SignificantDigits="10"
      def:CommentOID="COM.ADEX.AVAL.ACDSDAY.DTYPE. .PARAMTYP.DERIVED"
    >
      <def:Origin Type="Derived"

      />
    </ItemDef>
    <ItemDef OID="IT.ADEX.PARAMCD.COMPL.DTYPE. .PARAMTYP.DERIVED"
      Name="COMPL"
      SASFieldName="COMPL"
      DataType="float"
      Length="14"
      SignificantDigits="10"
      def:CommentOID="COM.ADEX.AVAL.COMPL.DTYPE. .PARAMTYP.DERIVED"
    >
      <def:Origin Type="Derived"

      />
    </ItemDef>
    <ItemDef OID="IT.ADEX.PARAMCD.OVDSDAY.DTYPE. .PARAMTYP.DERIVED"
      Name="OVDSDAY"
      SASFieldName="OVDSDAY"
      DataType="float"
      Length="14"
      SignificantDigits="10"
      def:CommentOID="COM.ADEX.AVAL.OVDSDAY.DTYPE. .PARAMTYP.DERIVED"
    >
      <def:Origin Type="Derived"

      />
    </ItemDef>
    <!-- ************************************************************ -->
    <!-- Codelists are presented below                                -->
    <!-- ************************************************************ -->
    <CodeList OID="CL.ACN"
      Name="Action Taken with Study Treatment"
      DataType="integer">
      <CodeListItem CodedValue="1">
        <Decode>
          <TranslatedText>DRUG WITHDRAWN</TranslatedText>
        </Decode>
      <Alias Name="C49502" Context="nci:ExtCodeID"/>
      </CodeListItem>
      <CodeListItem CodedValue="2">
        <Decode>
          <TranslatedText>DRUG INTERRUPTED</TranslatedText>
        </Decode>
      <Alias Name="C49501" Context="nci:ExtCodeID"/>
      </CodeListItem>
      <CodeListItem CodedValue="4">
        <Decode>
          <TranslatedText>DOSE NOT CHANGED</TranslatedText>
        </Decode>
      <Alias Name="C49504" Context="nci:ExtCodeID"/>
      </CodeListItem>
      <CodeListItem CodedValue="991">
        <Decode>
          <TranslatedText>NOT APPLICABLE</TranslatedText>
        </Decode>
      <Alias Name="C48660" Context="nci:ExtCodeID"/>
      </CodeListItem>
      <CodeListItem CodedValue="992">
        <Decode>
          <TranslatedText>UNKNOWN</TranslatedText>
        </Decode>
      <Alias Name="C17998" Context="nci:ExtCodeID"/>
      </CodeListItem>
    </CodeList>
    <CodeList OID="CL.AESEV"
      Name="Severity/Intensity Scale for Adverse Events"
      DataType="integer">
      <CodeListItem CodedValue="1">
        <Decode>
          <TranslatedText>MILD</TranslatedText>
        </Decode>
      <Alias Name="C41338" Context="nci:ExtCodeID"/>
      </CodeListItem>
      <CodeListItem CodedValue="2">
        <Decode>
          <TranslatedText>MODERATE</TranslatedText>
        </Decode>
      <Alias Name="C41339" Context="nci:ExtCodeID"/>
      </CodeListItem>
      <CodeListItem CodedValue="3">
        <Decode>
          <TranslatedText>SEVERE</TranslatedText>
        </Decode>
      <Alias Name="C41340" Context="nci:ExtCodeID"/>
      </CodeListItem>
    </CodeList>
    <CodeList OID="CL.AGEU"
      Name="Age Unit"
      DataType="text">
      <CodeListItem CodedValue="YEARS">
        <Decode>
          <TranslatedText>YEARS</TranslatedText>
        </Decode>
      <Alias Name="C29848" Context="nci:ExtCodeID"/>
      </CodeListItem>
    </CodeList>
    <CodeList OID="CL.COUNTRY"
      Name="Country"
      DataType="text">
      <CodeListItem CodedValue="DEU">
        <Decode>
          <TranslatedText>DEU</TranslatedText>
        </Decode>
      <Alias Name="C16636" Context="nci:ExtCodeID"/>
      </CodeListItem>
      <CodeListItem CodedValue="FRA">
        <Decode>
          <TranslatedText>FRA</TranslatedText>
        </Decode>
      <Alias Name="C16592" Context="nci:ExtCodeID"/>
      </CodeListItem>
      <CodeListItem CodedValue="GBR">
        <Decode>
          <TranslatedText>GBR</TranslatedText>
        </Decode>
      <Alias Name="C17233" Context="nci:ExtCodeID"/>
      </CodeListItem>
      <CodeListItem CodedValue="JPN">
        <Decode>
          <TranslatedText>JPN</TranslatedText>
        </Decode>
      <Alias Name="C16764" Context="nci:ExtCodeID"/>
      </CodeListItem>
      <CodeListItem CodedValue="USA">
        <Decode>
          <TranslatedText>USA</TranslatedText>
        </Decode>
      <Alias Name="C17234" Context="nci:ExtCodeID"/>
      </CodeListItem>
    </CodeList>
    <CodeList OID="CL.DATEFL"
      Name="Date Imputation Flag"
      DataType="text">
      <CodeListItem CodedValue="D">
        <Decode>
          <TranslatedText>D</TranslatedText>
        </Decode>
      <Alias Name="C81212" Context="nci:ExtCodeID"/>
      </CodeListItem>
      <CodeListItem CodedValue="M">
        <Decode>
          <TranslatedText>M</TranslatedText>
        </Decode>
      <Alias Name="C81211" Context="nci:ExtCodeID"/>
      </CodeListItem>
    </CodeList>
    <CodeList OID="CL.DTYPE"
      Name="Derivation Type"
      DataType="text">
      <CodeListItem CodedValue="ALOCF" def:ExtendedValue="Yes">
        <Decode>
          <TranslatedText>aLOCF</TranslatedText>
        </Decode>
      </CodeListItem>
      <CodeListItem CodedValue="AOC" def:ExtendedValue="Yes">
        <Decode>
          <TranslatedText>aOC</TranslatedText>
        </Decode>
      </CodeListItem>
      <CodeListItem CodedValue="AVERAGE">
        <Decode>
          <TranslatedText>AVERAGE</TranslatedText>
        </Decode>
      <Alias Name="C81209" Context="nci:ExtCodeID"/>
      </CodeListItem>
      <CodeListItem CodedValue="BLOCF">
        <Decode>
          <TranslatedText>BLOCF</TranslatedText>
        </Decode>
      <Alias Name="C81201" Context="nci:ExtCodeID"/>
      </CodeListItem>
      <CodeListItem CodedValue="DIFF" def:ExtendedValue="Yes">
        <Decode>
          <TranslatedText>DIFF</TranslatedText>
        </Decode>
      </CodeListItem>
      <CodeListItem CodedValue="ENDPOINT">
        <Decode>
          <TranslatedText>ENDPOINT</TranslatedText>
        </Decode>
      <Alias Name="C82866" Context="nci:ExtCodeID"/>
      </CodeListItem>
      <CodeListItem CodedValue="FIRST" def:ExtendedValue="Yes">
        <Decode>
          <TranslatedText>FIRST</TranslatedText>
        </Decode>
      </CodeListItem>
      <CodeListItem CodedValue="INTERP">
        <Decode>
          <TranslatedText>INTERP</TranslatedText>
        </Decode>
      <Alias Name="C81208" Context="nci:ExtCodeID"/>
      </CodeListItem>
      <CodeListItem CodedValue="LAST" def:ExtendedValue="Yes">
        <Decode>
          <TranslatedText>LAST</TranslatedText>
        </Decode>
      </CodeListItem>
      <CodeListItem CodedValue="LOCF">
        <Decode>
          <TranslatedText>LOCF</TranslatedText>
        </Decode>
      <Alias Name="C81198" Context="nci:ExtCodeID"/>
      </CodeListItem>
      <CodeListItem CodedValue="LOV" def:ExtendedValue="Yes">
        <Decode>
          <TranslatedText>LOV</TranslatedText>
        </Decode>
      </CodeListItem>
      <CodeListItem CodedValue="LVPD" def:ExtendedValue="Yes">
        <Decode>
          <TranslatedText>LVPD</TranslatedText>
        </Decode>
      </CodeListItem>
      <CodeListItem CodedValue="MAXIMUM">
        <Decode>
          <TranslatedText>MAXIMUM</TranslatedText>
        </Decode>
      <Alias Name="C82868" Context="nci:ExtCodeID"/>
      </CodeListItem>
      <CodeListItem CodedValue="MINIMUM">
        <Decode>
          <TranslatedText>MINIMUM</TranslatedText>
        </Decode>
      <Alias Name="C82867" Context="nci:ExtCodeID"/>
      </CodeListItem>
      <CodeListItem CodedValue="ML">
        <Decode>
          <TranslatedText>ML</TranslatedText>
        </Decode>
      <Alias Name="C53331" Context="nci:ExtCodeID"/>
      </CodeListItem>
      <CodeListItem CodedValue="MOTH">
        <Decode>
          <TranslatedText>MOTH</TranslatedText>
        </Decode>
      <Alias Name="C81204" Context="nci:ExtCodeID"/>
      </CodeListItem>
      <CodeListItem CodedValue="MOV">
        <Decode>
          <TranslatedText>MOV</TranslatedText>
        </Decode>
      <Alias Name="C81207" Context="nci:ExtCodeID"/>
      </CodeListItem>
      <CodeListItem CodedValue="NEXT" def:ExtendedValue="Yes">
        <Decode>
          <TranslatedText>NEXT</TranslatedText>
        </Decode>
      </CodeListItem>
      <CodeListItem CodedValue="OC" def:ExtendedValue="Yes">
        <Decode>
          <TranslatedText>OC</TranslatedText>
        </Decode>
      </CodeListItem>
      <CodeListItem CodedValue="POCF">
        <Decode>
          <TranslatedText>POCF</TranslatedText>
        </Decode>
      <Alias Name="C81205" Context="nci:ExtCodeID"/>
      </CodeListItem>
      <CodeListItem CodedValue="POSTTX" def:ExtendedValue="Yes">
        <Decode>
          <TranslatedText>POSTTX</TranslatedText>
        </Decode>
      </CodeListItem>
      <CodeListItem CodedValue="PRETX" def:ExtendedValue="Yes">
        <Decode>
          <TranslatedText>PRETX</TranslatedText>
        </Decode>
      </CodeListItem>
      <CodeListItem CodedValue="SOCF">
        <Decode>
          <TranslatedText>SOCF</TranslatedText>
        </Decode>
      <Alias Name="C81200" Context="nci:ExtCodeID"/>
      </CodeListItem>
      <CodeListItem CodedValue="WC">
        <Decode>
          <TranslatedText>WC</TranslatedText>
        </Decode>
      <Alias Name="C81203" Context="nci:ExtCodeID"/>
      </CodeListItem>
      <CodeListItem CodedValue="WOCF">
        <Decode>
          <TranslatedText>WOCF</TranslatedText>
        </Decode>
      <Alias Name="C81199" Context="nci:ExtCodeID"/>
      </CodeListItem>
      <CodeListItem CodedValue="WOV">
        <Decode>
          <TranslatedText>WOV</TranslatedText>
        </Decode>
      <Alias Name="C81206" Context="nci:ExtCodeID"/>
      </CodeListItem>
    </CodeList>
    <CodeList OID="CL.EPOCH"
      Name="Epoch"
      DataType="integer">
      <CodeListItem CodedValue="100">
        <Decode>
          <TranslatedText>SCREENING</TranslatedText>
        </Decode>
      <Alias Name="C48262" Context="nci:ExtCodeID"/>
      </CodeListItem>
      <CodeListItem CodedValue="300">
        <Decode>
          <TranslatedText>TREATMENT</TranslatedText>
        </Decode>
      <Alias Name="C101526" Context="nci:ExtCodeID"/>
      </CodeListItem>
      <CodeListItem CodedValue="900">
        <Decode>
          <TranslatedText>FOLLOW-UP</TranslatedText>
        </Decode>
      <Alias Name="C99158" Context="nci:ExtCodeID"/>
      </CodeListItem>
    </CodeList>
    <CodeList OID="CL.ETHNIC"
      Name="Ethnic Group"
      DataType="integer">
      <CodeListItem CodedValue="1">
        <Decode>
          <TranslatedText>NOT HISPANIC OR LATINO</TranslatedText>
        </Decode>
      <Alias Name="C41222" Context="nci:ExtCodeID"/>
      </CodeListItem>
      <CodeListItem CodedValue="2">
        <Decode>
          <TranslatedText>HISPANIC OR LATINO</TranslatedText>
        </Decode>
      <Alias Name="C17459" Context="nci:ExtCodeID"/>
      </CodeListItem>
      <CodeListItem CodedValue="996">
        <Decode>
          <TranslatedText>NOT REPORTED</TranslatedText>
        </Decode>
      <Alias Name="C43234" Context="nci:ExtCodeID"/>
      </CodeListItem>
    </CodeList>
    <CodeList OID="CL.FREQ"
      Name="Frequency"
      DataType="integer">
      <CodeListItem CodedValue="11">
        <Decode>
          <TranslatedText>BID</TranslatedText>
        </Decode>
      <Alias Name="C64496" Context="nci:ExtCodeID"/>
      </CodeListItem>
      <CodeListItem CodedValue="13">
        <Decode>
          <TranslatedText>QD</TranslatedText>
        </Decode>
      <Alias Name="C25473" Context="nci:ExtCodeID"/>
      </CodeListItem>
    </CodeList>
    <CodeList OID="CL.FRM"
      Name="Pharmaceutical Dosage Form"
      DataType="integer">
      <CodeListItem CodedValue="15" def:ExtendedValue="Yes">
        <Decode>
          <TranslatedText>CAPSULE</TranslatedText>
        </Decode>
      </CodeListItem>
    </CodeList>
    <CodeList OID="CL.MEDDRAF"
      Name="Medical Dictionary for Regulatory Activities"
      DataType="text">
      <ExternalCodeList Dictionary="MEDDRA" Version="18.1"/>
    </CodeList>
    <CodeList OID="CL.MEDDRAFN"
      Name="Medical Dictionary for Regulatory Activities"
      DataType="text">
      <ExternalCodeList Dictionary="MEDDRA" Version="18.1"/>
    </CodeList>
    <CodeList OID="CL.NY"
      Name="No Yes Response"
      DataType="integer">
      <CodeListItem CodedValue="0">
        <Decode>
          <TranslatedText>N</TranslatedText>
        </Decode>
      <Alias Name="C49487" Context="nci:ExtCodeID"/>
      </CodeListItem>
      <CodeListItem CodedValue="1">
        <Decode>
          <TranslatedText>Y</TranslatedText>
        </Decode>
      <Alias Name="C49488" Context="nci:ExtCodeID"/>
      </CodeListItem>
    </CodeList>
    <CodeList OID="CL.OUT"
      Name="Outcome of Event"
      DataType="integer">
      <CodeListItem CodedValue="1">
        <Decode>
          <TranslatedText>RECOVERED/RESOLVED</TranslatedText>
        </Decode>
      <Alias Name="C49498" Context="nci:ExtCodeID"/>
      </CodeListItem>
      <CodeListItem CodedValue="2">
        <Decode>
          <TranslatedText>RECOVERING/RESOLVING</TranslatedText>
        </Decode>
      <Alias Name="C49496" Context="nci:ExtCodeID"/>
      </CodeListItem>
      <CodeListItem CodedValue="3">
        <Decode>
          <TranslatedText>RECOVERED/RESOLVED WITH SEQUELAE</TranslatedText>
        </Decode>
      <Alias Name="C49495" Context="nci:ExtCodeID"/>
      </CodeListItem>
      <CodeListItem CodedValue="4">
        <Decode>
          <TranslatedText>NOT RECOVERED/NOT RESOLVED</TranslatedText>
        </Decode>
      <Alias Name="C49494" Context="nci:ExtCodeID"/>
      </CodeListItem>
      <CodeListItem CodedValue="5">
        <Decode>
          <TranslatedText>FATAL</TranslatedText>
        </Decode>
      <Alias Name="C48275" Context="nci:ExtCodeID"/>
      </CodeListItem>
      <CodeListItem CodedValue="992">
        <Decode>
          <TranslatedText>UNKNOWN</TranslatedText>
        </Decode>
      <Alias Name="C17998" Context="nci:ExtCodeID"/>
      </CodeListItem>
    </CodeList>
    <CodeList OID="CL.PARMTYP"
      Name="Parameter Type"
      DataType="text">
      <CodeListItem CodedValue="DERIVED">
        <Decode>
          <TranslatedText>DERIVED</TranslatedText>
        </Decode>
      <Alias Name="C81197" Context="nci:ExtCodeID"/>
      </CodeListItem>
    </CodeList>
    <CodeList OID="CL.RACE"
      Name="Race"
      DataType="integer">
      <CodeListItem CodedValue="1">
        <Decode>
          <TranslatedText>WHITE</TranslatedText>
        </Decode>
      <Alias Name="C41261" Context="nci:ExtCodeID"/>
      </CodeListItem>
      <CodeListItem CodedValue="2">
        <Decode>
          <TranslatedText>BLACK OR AFRICAN AMERICAN</TranslatedText>
        </Decode>
      <Alias Name="C16352" Context="nci:ExtCodeID"/>
      </CodeListItem>
      <CodeListItem CodedValue="3">
        <Decode>
          <TranslatedText>ASIAN</TranslatedText>
        </Decode>
      <Alias Name="C41260" Context="nci:ExtCodeID"/>
      </CodeListItem>
      <CodeListItem CodedValue="4">
        <Decode>
          <TranslatedText>AMERICAN INDIAN OR ALASKA NATIVE</TranslatedText>
        </Decode>
      <Alias Name="C41259" Context="nci:ExtCodeID"/>
      </CodeListItem>
      <CodeListItem CodedValue="5">
        <Decode>
          <TranslatedText>NATIVE HAWAIIAN OR OTHER PACIFIC ISLANDER</TranslatedText>
        </Decode>
      <Alias Name="C41219" Context="nci:ExtCodeID"/>
      </CodeListItem>
      <CodeListItem CodedValue="996" def:ExtendedValue="Yes">
        <Decode>
          <TranslatedText>NOT REPORTED</TranslatedText>
        </Decode>
      </CodeListItem>
      <CodeListItem CodedValue="999" def:ExtendedValue="Yes">
        <Decode>
          <TranslatedText>MULTIPLE</TranslatedText>
        </Decode>
      </CodeListItem>
    </CodeList>
    <CodeList OID="CL.ROUTE"
      Name="Route of Administration"
      DataType="integer">
      <CodeListItem CodedValue="93">
        <Decode>
          <TranslatedText>RESPIRATORY</TranslatedText>
        </Decode>
      <Alias Name="C38216" Context="nci:ExtCodeID"/>
      </CodeListItem>
    </CodeList>
    <CodeList OID="CL.SEX"
      Name="Sex"
      DataType="integer">
      <CodeListItem CodedValue="1">
        <Decode>
          <TranslatedText>M</TranslatedText>
        </Decode>
      <Alias Name="C20197" Context="nci:ExtCodeID"/>
      </CodeListItem>
      <CodeListItem CodedValue="2">
        <Decode>
          <TranslatedText>F</TranslatedText>
        </Decode>
      <Alias Name="C16576" Context="nci:ExtCodeID"/>
      </CodeListItem>
    </CodeList>
    <CodeList OID="CL.STENRF"
      Name="Relation to Reference Period"
      DataType="integer">
      <CodeListItem CodedValue="1">
        <Decode>
          <TranslatedText>BEFORE</TranslatedText>
        </Decode>
      <Alias Name="C25629" Context="nci:ExtCodeID"/>
      </CodeListItem>
      <CodeListItem CodedValue="2">
        <Decode>
          <TranslatedText>DURING</TranslatedText>
        </Decode>
      <Alias Name="C25490" Context="nci:ExtCodeID"/>
      </CodeListItem>
      <CodeListItem CodedValue="23">
        <Decode>
          <TranslatedText>DURING/AFTER</TranslatedText>
        </Decode>
      <Alias Name="C49640" Context="nci:ExtCodeID"/>
      </CodeListItem>
      <CodeListItem CodedValue="3">
        <Decode>
          <TranslatedText>AFTER</TranslatedText>
        </Decode>
      <Alias Name="C38008" Context="nci:ExtCodeID"/>
      </CodeListItem>
    </CodeList>
    <CodeList OID="CL.TIMEFL"
      Name="Time Imputation Flag"
      DataType="text">
      <CodeListItem CodedValue="H">
        <Decode>
          <TranslatedText>H</TranslatedText>
        </Decode>
      <Alias Name="C81213" Context="nci:ExtCodeID"/>
      </CodeListItem>
      <CodeListItem CodedValue="M">
        <Decode>
          <TranslatedText>M</TranslatedText>
        </Decode>
      <Alias Name="C81214" Context="nci:ExtCodeID"/>
      </CodeListItem>
      <CodeListItem CodedValue="S">
        <Decode>
          <TranslatedText>S</TranslatedText>
        </Decode>
      <Alias Name="C81215" Context="nci:ExtCodeID"/>
      </CodeListItem>
    </CodeList>
    <CodeList OID="CL.UNIT"
      Name="Unit"
      DataType="text">
      <CodeListItem CodedValue="DAYS">
        <Decode>
          <TranslatedText>DAYS</TranslatedText>
        </Decode>
      <Alias Name="C25301" Context="nci:ExtCodeID"/>
      </CodeListItem>
      <CodeListItem CodedValue="mg">
        <Decode>
          <TranslatedText>mg</TranslatedText>
        </Decode>
      <Alias Name="C28253" Context="nci:ExtCodeID"/>
      </CodeListItem>
    </CodeList>
    <CodeList OID="CL.XACNOTH"
      Name="Other Action Taken"
      DataType="integer">
      <CodeListItem CodedValue="1">
        <Decode>
          <TranslatedText>NONE</TranslatedText>
        </Decode>
      </CodeListItem>
      <CodeListItem CodedValue="998">
        <Decode>
          <TranslatedText>OTHER</TranslatedText>
        </Decode>
      </CodeListItem>
    </CodeList>
    <CodeList OID="CL.XDOSMOD"
      Name="Dose Modification"
      DataType="integer">
      <CodeListItem CodedValue="1">
        <Decode>
          <TranslatedText>NONE</TranslatedText>
        </Decode>
      </CodeListItem>
      <CodeListItem CodedValue="3">
        <Decode>
          <TranslatedText>INTERRUPTION OR DELAY</TranslatedText>
        </Decode>
      </CodeListItem>
    </CodeList>
    <CodeList OID="CL.XEXADJ"
      Name="Reason for Dose Adjustment"
      DataType="integer">
      <CodeListItem CodedValue="3">
        <Decode>
          <TranslatedText>ADVERSE EVENT</TranslatedText>
        </Decode>
      </CodeListItem>
      <CodeListItem CodedValue="4">
        <Decode>
          <TranslatedText>SUBJECT ERROR</TranslatedText>
        </Decode>
      </CodeListItem>
      <CodeListItem CodedValue="10">
        <Decode>
          <TranslatedText>Logistical difficulty</TranslatedText>
        </Decode>
      </CodeListItem>
      <CodeListItem CodedValue="27">
        <Decode>
          <TranslatedText>patient&apos;s wish</TranslatedText>
        </Decode>
      </CodeListItem>
      <CodeListItem CodedValue="41">
        <Decode>
          <TranslatedText>SURGICAL INTERVENTION</TranslatedText>
        </Decode>
      </CodeListItem>
      <CodeListItem CodedValue="46">
        <Decode>
          <TranslatedText>Other reason (non-safety related)</TranslatedText>
        </Decode>
      </CodeListItem>
    </CodeList>
    <CodeList OID="CL.XEXCAT"
      Name="Category for Treatment"
      DataType="integer">
      <CodeListItem CodedValue="1">
        <Decode>
          <TranslatedText>STUDY DRUG EXPOSURE</TranslatedText>
        </Decode>
      </CodeListItem>
      <CodeListItem CodedValue="2">
        <Decode>
          <TranslatedText>STUDY DRUG EXPOSURE, INDIVIDUAL DOSE</TranslatedText>
        </Decode>
      </CodeListItem>
    </CodeList>
    <CodeList OID="CL.XRACE"
      Name="Race, Multiple"
      DataType="integer">
      <CodeListItem CodedValue="1">
        <Decode>
          <TranslatedText>WHITE</TranslatedText>
        </Decode>
      </CodeListItem>
      <CodeListItem CodedValue="2">
        <Decode>
          <TranslatedText>BLACK</TranslatedText>
        </Decode>
      </CodeListItem>
      <CodeListItem CodedValue="3">
        <Decode>
          <TranslatedText>ASIAN</TranslatedText>
        </Decode>
      </CodeListItem>
      <CodeListItem CodedValue="4">
        <Decode>
          <TranslatedText>AMERICAN INDIAN OR ALASKA NATIVE</TranslatedText>
        </Decode>
      </CodeListItem>
      <CodeListItem CodedValue="5">
        <Decode>
          <TranslatedText>NATIVE HAWAIIAN OR OTHER PACIFIC ISLANDER</TranslatedText>
        </Decode>
      </CodeListItem>
      <CodeListItem CodedValue="12">
        <Decode>
          <TranslatedText>WHITE, BLACK</TranslatedText>
        </Decode>
      </CodeListItem>
      <CodeListItem CodedValue="14">
        <Decode>
          <TranslatedText>WHITE, AMERICAN INDIAN OR ALASKA NATIVE</TranslatedText>
        </Decode>
      </CodeListItem>
      <CodeListItem CodedValue="996">
        <Decode>
          <TranslatedText>NOT REPORTED</TranslatedText>
        </Decode>
      </CodeListItem>
    </CodeList>
    <CodeList OID="CL.X_ADSNM"
      Name="Analysis Dataset Name"
      DataType="text">
      <CodeListItem CodedValue="ADAE">
        <Decode>
          <TranslatedText>Adverse Events Analysis Dataset</TranslatedText>
        </Decode>
      </CodeListItem>
      <CodeListItem CodedValue="ADEX">
        <Decode>
          <TranslatedText>Exposure Analysis Dataset</TranslatedText>
        </Decode>
      </CodeListItem>
      <CodeListItem CodedValue="ADSL">
        <Decode>
          <TranslatedText>Subject Level Analysis Dataset</TranslatedText>
        </Decode>
      </CodeListItem>
    </CodeList>
    <CodeList OID="CL.X_EXPAR"
      Name="Exposition Parameter"
      DataType="text">
      <CodeListItem CodedValue="ACDSDAY">
        <Decode>
          <TranslatedText>Actual time under treatment (excluding time off drug/interruptions) (number of days)</TranslatedText>
        </Decode>
      </CodeListItem>
      <CodeListItem CodedValue="COMPL">
        <Decode>
          <TranslatedText>Compliance</TranslatedText>
        </Decode>
      </CodeListItem>
      <CodeListItem CodedValue="OVDSDAY">
        <Decode>
          <TranslatedText>Overall time under treatment (including time off drug/interruptions) (number of days)</TranslatedText>
        </Decode>
      </CodeListItem>
    </CodeList>
    <CodeList OID="CL.X_EXPARN"
      Name="Exposition Parameter (N)"
      DataType="integer">
      <CodeListItem CodedValue="1">
        <Decode>
          <TranslatedText>Treatment</TranslatedText>
        </Decode>
      </CodeListItem>
      <CodeListItem CodedValue="5">
        <Decode>
          <TranslatedText>Extent of exposure</TranslatedText>
        </Decode>
      </CodeListItem>
      <CodeListItem CodedValue="25">
        <Decode>
          <TranslatedText>Compliance</TranslatedText>
        </Decode>
      </CodeListItem>
      <CodeListItem CodedValue="34">
        <Decode>
          <TranslatedText>Overall time under treatment (including time off drug/interruptions) (number of days)</TranslatedText>
        </Decode>
      </CodeListItem>
      <CodeListItem CodedValue="36">
        <Decode>
          <TranslatedText>Actual time under treatment (excluding time off drug/interruptions) (number of days)</TranslatedText>
        </Decode>
      </CodeListItem>
    </CodeList>
    <CodeList OID="CL.ZARMCD"
      Name="Arm Code"
      DataType="text">
      <CodeListItem CodedValue="TRDO1">
        <Decode>
          <TranslatedText>Treatment1 / Dose1</TranslatedText>
        </Decode>
      </CodeListItem>
      <CodeListItem CodedValue="TRDO2">
        <Decode>
          <TranslatedText>Treatment1 / Dose2</TranslatedText>
        </Decode>
      </CodeListItem>
      <CodeListItem CodedValue="PLDO1">
        <Decode>
          <TranslatedText>Placebo / Dose1</TranslatedText>
        </Decode>
      </CodeListItem>
      <CodeListItem CodedValue="PLDO2">
        <Decode>
          <TranslatedText>Placebo / Dose2</TranslatedText>
        </Decode>
      </CodeListItem>
      <CodeListItem CodedValue="SCRNFAIL">
        <Decode>
          <TranslatedText>Screen Failure</TranslatedText>
        </Decode>
      </CodeListItem>
    </CodeList>
    <CodeList OID="CL.ZDOSRGM"
      Name="Dose Group"
      DataType="integer">
      <CodeListItem CodedValue="1">
        <Decode>
          <TranslatedText>X days on/off treatment</TranslatedText>
        </Decode>
      </CodeListItem>
      <CodeListItem CodedValue="2">
        <Decode>
          <TranslatedText>Y days on/off treatment</TranslatedText>
        </Decode>
      </CodeListItem>
    </CodeList>
    <CodeList OID="CL.ZEXSCAT"
      Name="Exposition Category"
      DataType="integer">
      <CodeListItem CodedValue="1">
        <Decode>
          <TranslatedText>something before visit</TranslatedText>
        </Decode>
      </CodeListItem>
      <CodeListItem CodedValue="2">
        <Decode>
          <TranslatedText>something during visit</TranslatedText>
        </Decode>
      </CodeListItem>
    </CodeList>
    <CodeList OID="CL.ZEXTRT"
      Name="Exposition Treatment"
      DataType="integer">
      <CodeListItem CodedValue="1">
        <Decode>
          <TranslatedText>Treatment</TranslatedText>
        </Decode>
      </CodeListItem>
      <CodeListItem CodedValue="2">
        <Decode>
          <TranslatedText>Placebo</TranslatedText>
        </Decode>
      </CodeListItem>
    </CodeList>
    <CodeList OID="CL.Z_AGEGRP"
      Name="Analysis Age Group"
      DataType="float">
      <CodeListItem CodedValue="3.5">
        <Decode>
          <TranslatedText>&lt; 65</TranslatedText>
        </Decode>
      </CodeListItem>
      <CodeListItem CodedValue="4">
        <Decode>
          <TranslatedText>&gt;= 65</TranslatedText>
        </Decode>
      </CodeListItem>
      <CodeListItem CodedValue="6">
        <Decode>
          <TranslatedText>&lt; 75</TranslatedText>
        </Decode>
      </CodeListItem>
      <CodeListItem CodedValue="7">
        <Decode>
          <TranslatedText>&gt;= 75</TranslatedText>
        </Decode>
      </CodeListItem>
    </CodeList>
    <CodeList OID="CL.Z_AVISIT"
      Name="Analysis Visit"
      DataType="float">
      <CodeListItem CodedValue="1">
        <Decode>
          <TranslatedText>Cycle 1</TranslatedText>
        </Decode>
      </CodeListItem>
      <CodeListItem CodedValue="2">
        <Decode>
          <TranslatedText>Cycle 2</TranslatedText>
        </Decode>
      </CodeListItem>
      <CodeListItem CodedValue="3">
        <Decode>
          <TranslatedText>Cycle 3</TranslatedText>
        </Decode>
      </CodeListItem>
      <CodeListItem CodedValue="4">
        <Decode>
          <TranslatedText>Cycle 4</TranslatedText>
        </Decode>
      </CodeListItem>
      <CodeListItem CodedValue="5">
        <Decode>
          <TranslatedText>Cycle 5</TranslatedText>
        </Decode>
      </CodeListItem>
      <CodeListItem CodedValue="6">
        <Decode>
          <TranslatedText>Cycle 6</TranslatedText>
        </Decode>
      </CodeListItem>
      <CodeListItem CodedValue="7">
        <Decode>
          <TranslatedText>Cycle 7</TranslatedText>
        </Decode>
      </CodeListItem>
      <CodeListItem CodedValue="8">
        <Decode>
          <TranslatedText>Cycle 8</TranslatedText>
        </Decode>
      </CodeListItem>
      <CodeListItem CodedValue="0.5">
        <Decode>
          <TranslatedText>Baseline</TranslatedText>
        </Decode>
      </CodeListItem>
    </CodeList>
    <CodeList OID="CL.Z_CNTYGR"
      Name="Analysis Country Group"
      DataType="integer">
      <CodeListItem CodedValue="1">
        <Decode>
          <TranslatedText>Northern Europe</TranslatedText>
        </Decode>
      </CodeListItem>
      <CodeListItem CodedValue="2">
        <Decode>
          <TranslatedText>Southern Europe</TranslatedText>
        </Decode>
      </CodeListItem>
      <CodeListItem CodedValue="3">
        <Decode>
          <TranslatedText>Northern US</TranslatedText>
        </Decode>
      </CodeListItem>
      <CodeListItem CodedValue="4">
        <Decode>
          <TranslatedText>Southern US</TranslatedText>
        </Decode>
      </CodeListItem>
      <CodeListItem CodedValue="5">
        <Decode>
          <TranslatedText>Latin America</TranslatedText>
        </Decode>
      </CodeListItem>
      <CodeListItem CodedValue="6">
        <Decode>
          <TranslatedText>Japan</TranslatedText>
        </Decode>
      </CodeListItem>
      <CodeListItem CodedValue="7">
        <Decode>
          <TranslatedText>Australia/New Zealand</TranslatedText>
        </Decode>
      </CodeListItem>
    </CodeList>
    <CodeList OID="CL.Z_EGFRGR"
      Name="EG Group"
      DataType="integer">
      <CodeListItem CodedValue="1">
        <Decode>
          <TranslatedText>&lt; 60 mL/min</TranslatedText>
        </Decode>
      </CodeListItem>
      <CodeListItem CodedValue="2">
        <Decode>
          <TranslatedText>&gt;= 60 mL/min</TranslatedText>
        </Decode>
      </CodeListItem>
    </CodeList>
    <CodeList OID="CL.Z_EXAVC"
      Name="Exposure Average Time"
      DataType="integer">
      <CodeListItem CodedValue="110">
        <Decode>
          <TranslatedText>&lt; 85 days</TranslatedText>
        </Decode>
      </CodeListItem>
      <CodeListItem CodedValue="120">
        <Decode>
          <TranslatedText>85  to 168 days</TranslatedText>
        </Decode>
      </CodeListItem>
      <CodeListItem CodedValue="130">
        <Decode>
          <TranslatedText>169 to 252 days</TranslatedText>
        </Decode>
      </CodeListItem>
      <CodeListItem CodedValue="140">
        <Decode>
          <TranslatedText>&gt; 252 days</TranslatedText>
        </Decode>
      </CodeListItem>
    </CodeList>
    <CodeList OID="CL.Z_TRT"
      Name="Treatment"
      DataType="integer">
      <CodeListItem CodedValue="1">
        <Decode>
          <TranslatedText>Treatment A</TranslatedText>
        </Decode>
      </CodeListItem>
      <CodeListItem CodedValue="2">
        <Decode>
          <TranslatedText>Treatment B</TranslatedText>
        </Decode>
      </CodeListItem>
      <CodeListItem CodedValue="3">
        <Decode>
          <TranslatedText>Treatment C</TranslatedText>
        </Decode>
      </CodeListItem>
      <CodeListItem CodedValue="4">
        <Decode>
          <TranslatedText>Placebo</TranslatedText>
        </Decode>
      </CodeListItem>
    </CodeList>
    <!-- ******************************************* -->
    <!-- COMPUTATIONAL METHOD INFORMATION *** -->
    <!-- ******************************************* -->
    <MethodDef OID="MT.ADAE.ADSNAME"
               Name="ADAE: Algorithm to derive ADSNAME"
               Type="Computation">
      <Description>
      <TranslatedText xml:lang="en">Name of the analysis data set.</TranslatedText>
      </Description>
    </MethodDef>
    <MethodDef OID="MT.ADAE.SEQ"
               Name="ADAE: Algorithm to derive SEQ"
               Type="Computation">
      <Description>
      <TranslatedText xml:lang="en">Calculated sequence number starting with 1 and increasing by 1 within a subject in sort order of ?</TranslatedText>
      </Description>
    </MethodDef>
    <MethodDef OID="MT.ADAE.ASEQ"
               Name="ADAE: Algorithm to derive ASEQ"
               Type="Computation">
      <Description>
      <TranslatedText xml:lang="en">Calculated sequence number starting with 1 and increasing by 1 in sort order of ?</TranslatedText>
      </Description>
    </MethodDef>
    <MethodDef OID="MT.ADAE.AESREAS"
               Name="ADAE: Algorithm to derive AESREAS"
               Type="Computation">
      <Description>
      <TranslatedText xml:lang="en">Concatenation of labels from AESCONG, AESDISAB, AESDTH, AESHOSP, AESLIFE and AESMIE (with ,), if variable contains Y.</TranslatedText>
      </Description>
    </MethodDef>
    <MethodDef OID="MT.ADAE.AESTDT"
               Name="ADAE: Algorithm to derive AESTDT"
               Type="Computation">
      <Description>
      <TranslatedText xml:lang="en">Derived using SAS function MDY(ADAE.AEST_M, ADAE.AEST_D, ADAE.AEST_Y) if all date parts (month, day, year) are given. Otherwise missing (blank).</TranslatedText>
      </Description>
    </MethodDef>
    <MethodDef OID="MT.ADAE.AESTDTL"
               Name="ADAE: Algorithm to derive AESTDTL"
               Type="Computation">
      <Description>
      <TranslatedText xml:lang="en">Derived combining all existing date parts (ADAE.AEST_M, ADAE.AEST_D, ADAE.AEST_Y) in the form of DDMMYYYY.  Non-existing (unknown) date parts are represented with respective numbers of dashes.</TranslatedText>
      </Description>
    </MethodDef>
    <MethodDef OID="MT.ADAE.ASTDT"
               Name="ADAE: Algorithm to derive ASTDT"
               Type="Computation">
      <Description>
      <TranslatedText xml:lang="en">Derived using SAS function MDY(AE.AEST_M, AE.AEST_D, AE.AEST_Y). If date parts are missing, imputation rules as defined in SAP are to be applied.</TranslatedText>
      </Description>
      <def:DocumentRef leafID="LF.SAP">
        <def:PDFPageRef PageRefs="3_1" Type="NamedDestination"/>
      </def:DocumentRef>
    </MethodDef>
    <MethodDef OID="MT.ADAE.ASTDTF"
               Name="ADAE: Algorithm to derive ASTDTF"
               Type="Computation">
      <Description>
      <TranslatedText xml:lang="en">If ASTDT is imputed, the following rules apply: If year is imputed set to Y, otherwise if month is imputed set to M, otherwise if day is imputed set to D. If nothing was imputed keep empty.</TranslatedText>
      </Description>
    </MethodDef>
    <MethodDef OID="MT.ADAE.AEST_TC"
               Name="ADAE: Algorithm to derive AEST_TC"
               Type="Computation">
      <Description>
      <TranslatedText xml:lang="en">Time part derived from the corresponding combined Date/Time variable</TranslatedText>
      </Description>
    </MethodDef>
    <MethodDef OID="MT.ADAE.ASTTM"
               Name="ADAE: Algorithm to derive ASTTM"
               Type="Computation">
      <Description>
      <TranslatedText xml:lang="en">Derived from ADAE.AEST_TC and imputation rules defined in SAP.</TranslatedText>
      </Description>
      <def:DocumentRef leafID="LF.SAP">
        <def:PDFPageRef PageRefs="3_1" Type="NamedDestination"/>
      </def:DocumentRef>
    </MethodDef>
    <MethodDef OID="MT.ADAE.ASTTMF"
               Name="ADAE: Algorithm to derive ASTTMF"
               Type="Computation">
      <Description>
      <TranslatedText xml:lang="en">If ASTTM is imputed, the following rules apply: If hour is imputed set to H, otherwise if minute is imputed set to M, otherwise if second is imputed set to S. If nothing was imputed keep empty.</TranslatedText>
      </Description>
    </MethodDef>
    <MethodDef OID="MT.ADAE.ASTDTM"
               Name="ADAE: Algorithm to derive ASTDTM"
               Type="Computation">
      <Description>
      <TranslatedText xml:lang="en">If ASTDT is imputed, the following rules apply: If year is imputed set to Y, otherwise if month is imputed set to M, otherwise if day is imputed set to D. If nothing was imputed keep empty.</TranslatedText>
      </Description>
    </MethodDef>
    <MethodDef OID="MT.ADAE.AEENDT"
               Name="ADAE: Algorithm to derive AEENDT"
               Type="Computation">
      <Description>
      <TranslatedText xml:lang="en">Derived using SAS function MDY(AE.AEEN_M, AE.AEEN_D, AE.AEEN_Y) if all date parts (month, day, year) are given. Otherwise missing (blank).</TranslatedText>
      </Description>
    </MethodDef>
    <MethodDef OID="MT.ADAE.AEENDTL"
               Name="ADAE: Algorithm to derive AEENDTL"
               Type="Computation">
      <Description>
      <TranslatedText xml:lang="en">Derived combining all existing date parts (AE.AEEN_M, AE.AEEN_D, AE.AEEN_Y) in the form of DDMMYYYY.  Non-existing (unknown) date parts are represented with respective numbers of dashes.</TranslatedText>
      </Description>
    </MethodDef>
    <MethodDef OID="MT.ADAE.AENDT"
               Name="ADAE: Algorithm to derive AENDT"
               Type="Computation">
      <Description>
      <TranslatedText xml:lang="en">Derived using SAS function MDY(ADAE.AEEN_M, ADAE.AEEN_D, ADAE.AEEN_Y) if date parts are missing, imputation rules as defined in SAP are to be applied.</TranslatedText>
      </Description>
      <def:DocumentRef leafID="LF.SAP">
        <def:PDFPageRef PageRefs="3_1" Type="NamedDestination"/>
      </def:DocumentRef>
    </MethodDef>
    <MethodDef OID="MT.ADAE.AENDTF"
               Name="ADAE: Algorithm to derive AENDTF"
               Type="Computation">
      <Description>
      <TranslatedText xml:lang="en">If AENDT is imputed, the following rules apply: If year is imputed set to Y, otherwise if month is imputed set to M, otherwise if day is imputed set to D. If nothing was imputed keep empty.</TranslatedText>
      </Description>
    </MethodDef>
    <MethodDef OID="MT.ADAE.AEEN_TC"
               Name="ADAE: Algorithm to derive AEEN_TC"
               Type="Computation">
      <Description>
      <TranslatedText xml:lang="en">Time part derived from the corresponding combined Date/Time variable</TranslatedText>
      </Description>
    </MethodDef>
    <MethodDef OID="MT.ADAE.AENTM"
               Name="ADAE: Algorithm to derive AENTM"
               Type="Computation">
      <Description>
      <TranslatedText xml:lang="en">Derived from ADAE.AEEN_TC and imputation rules defined in SAP.</TranslatedText>
      </Description>
      <def:DocumentRef leafID="LF.SAP">
        <def:PDFPageRef PageRefs="3_1" Type="NamedDestination"/>
      </def:DocumentRef>
    </MethodDef>
    <MethodDef OID="MT.ADAE.AENTMF"
               Name="ADAE: Algorithm to derive AENTMF"
               Type="Computation">
      <Description>
      <TranslatedText xml:lang="en">If AENTM is imputed, the following rules apply: If hour is imputed set to H, otherwise if minute is imputed set to M, otherwise if second is imputed set to S. If nothing was imputed keep empty.</TranslatedText>
      </Description>
    </MethodDef>
    <MethodDef OID="MT.ADAE.AENDTM"
               Name="ADAE: Algorithm to derive AENDTM"
               Type="Computation">
      <Description>
      <TranslatedText xml:lang="en">Derived by using AE.AEEN_D, AE.AEEN_M, AE.AEEN_Y and AE.AEEN_TM considering the imputation rules defined in SAP</TranslatedText>
      </Description>
      <def:DocumentRef leafID="LF.SAP">
        <def:PDFPageRef PageRefs="3_1" Type="NamedDestination"/>
      </def:DocumentRef>
    </MethodDef>
    <MethodDef OID="MT.ADAE.ADURN"
               Name="ADAE: Algorithm to derive ADURN"
               Type="Computation">
      <Description>
      <TranslatedText xml:lang="en">Number of days from ASTDT to AENDT, rule is AENDT - ASTDT + 1.</TranslatedText>
      </Description>
    </MethodDef>
    <MethodDef OID="MT.ADAE.ADURU"
               Name="ADAE: Algorithm to derive ADURU"
               Type="Computation">
      <Description>
      <TranslatedText xml:lang="en">Unit of AE duration. Default is &quot;DAYS&quot;.</TranslatedText>
      </Description>
    </MethodDef>
    <MethodDef OID="MT.ADAE.ANL01FL"
               Name="ADAE: Algorithm to derive ANL01FL"
               Type="Computation">
      <Description>
      <TranslatedText xml:lang="en">Character representation of ANL01FN</TranslatedText>
      </Description>
    </MethodDef>
    <MethodDef OID="MT.ADAE.ANL01FN"
               Name="ADAE: Algorithm to derive ANL01FN"
               Type="Computation">
      <Description>
      <TranslatedText xml:lang="en">Populated with Y for all observations used in table presentations.</TranslatedText>
      </Description>
    </MethodDef>
    <MethodDef OID="MT.ADAE.TRTP"
               Name="ADAE: Algorithm to derive TRTP"
               Type="Computation">
      <Description>
      <TranslatedText xml:lang="en">Character representation of TRTPN</TranslatedText>
      </Description>
    </MethodDef>
    <MethodDef OID="MT.ADAE.TRTPN"
               Name="ADAE: Algorithm to derive TRTPN"
               Type="Computation">
      <Description>
      <TranslatedText xml:lang="en">Derived from ADSL.TRT01PN</TranslatedText>
      </Description>
    </MethodDef>
    <MethodDef OID="MT.ADAE.TRTA"
               Name="ADAE: Algorithm to derive TRTA"
               Type="Computation">
      <Description>
      <TranslatedText xml:lang="en">Character representation of TRTAN</TranslatedText>
      </Description>
    </MethodDef>
    <MethodDef OID="MT.ADAE.TRTAN"
               Name="ADAE: Algorithm to derive TRTAN"
               Type="Computation">
      <Description>
      <TranslatedText xml:lang="en">Derived from ADSL.TRTzzAN where period is equal to zz.</TranslatedText>
      </Description>
    </MethodDef>
    <MethodDef OID="MT.ADEX.ADSNAME"
               Name="ADEX: Algorithm to derive ADSNAME"
               Type="Computation">
      <Description>
      <TranslatedText xml:lang="en">Name of the analysis data set.</TranslatedText>
      </Description>
    </MethodDef>
    <MethodDef OID="MT.ADEX.SEQ"
               Name="ADEX: Algorithm to derive SEQ"
               Type="Computation">
      <Description>
      <TranslatedText xml:lang="en">Calculated sequence number starting with 1 and increasing by 1 within a subject in sort order of ?</TranslatedText>
      </Description>
    </MethodDef>
    <MethodDef OID="MT.ADEX.ASEQ"
               Name="ADEX: Algorithm to derive ASEQ"
               Type="Computation">
      <Description>
      <TranslatedText xml:lang="en">Calculated sequence number starting with 1 and increasing by 1 in sort order of ?</TranslatedText>
      </Description>
    </MethodDef>
    <MethodDef OID="MT.ADEX.AVISIT"
               Name="ADEX: Algorithm to derive AVISIT"
               Type="Computation">
      <Description>
      <TranslatedText xml:lang="en">Character representation of AVISITN</TranslatedText>
      </Description>
    </MethodDef>
    <MethodDef OID="MT.ADEX.AVISITN"
               Name="ADEX: Algorithm to derive AVISITN"
               Type="Computation">
      <Description>
      <TranslatedText xml:lang="en">AVISITN contains the visit number as observed, ?</TranslatedText>
      </Description>
    </MethodDef>
    <MethodDef OID="MT.ADEX.TRTP"
               Name="ADEX: Algorithm to derive TRTP"
               Type="Computation">
      <Description>
      <TranslatedText xml:lang="en">Character representation of TRTPN</TranslatedText>
      </Description>
    </MethodDef>
    <MethodDef OID="MT.ADEX.TRTPN"
               Name="ADEX: Algorithm to derive TRTPN"
               Type="Computation">
      <Description>
      <TranslatedText xml:lang="en">Derived from ADSL.TRT01PN</TranslatedText>
      </Description>
    </MethodDef>
    <MethodDef OID="MT.ADEX.TRTA"
               Name="ADEX: Algorithm to derive TRTA"
               Type="Computation">
      <Description>
      <TranslatedText xml:lang="en">Character representation of TRTAN</TranslatedText>
      </Description>
    </MethodDef>
    <MethodDef OID="MT.ADEX.TRTAN"
               Name="ADEX: Algorithm to derive TRTAN"
               Type="Computation">
      <Description>
      <TranslatedText xml:lang="en">Derived from ADSL.TRTzzAN where period is equal to zz.</TranslatedText>
      </Description>
    </MethodDef>
    <MethodDef OID="MT.ADEX.ANL01FL"
               Name="ADEX: Algorithm to derive ANL01FL"
               Type="Computation">
      <Description>
      <TranslatedText xml:lang="en">Character representation of ANL01FN</TranslatedText>
      </Description>
    </MethodDef>
    <MethodDef OID="MT.ADEX.ANL01FN"
               Name="ADEX: Algorithm to derive ANL01FN"
               Type="Computation">
      <Description>
      <TranslatedText xml:lang="en">Populated with Y for all observations used in table presentations.</TranslatedText>
      </Description>
    </MethodDef>
    <MethodDef OID="MT.ADEX.PARAMCD"
               Name="ADEX: Algorithm to derive PARAMCD"
               Type="Computation">
      <Description>
      <TranslatedText xml:lang="en">For records take over from EX, PARAMCD is populated with &quot;TRT&quot;. For derivations in ADS PARAMCD is populated with appropriate codes as defined in SAP.</TranslatedText>
      </Description>
      <def:DocumentRef leafID="LF.SAP">
        <def:PDFPageRef PageRefs="14" Type="PhysicalRef"/>
      </def:DocumentRef>
    </MethodDef>
    <MethodDef OID="MT.ADEX.PARAM"
               Name="ADEX: Algorithm to derive PARAM"
               Type="Computation">
      <Description>
      <TranslatedText xml:lang="en">Character representation of PARAMCD</TranslatedText>
      </Description>
    </MethodDef>
    <MethodDef OID="MT.ADEX.PARAMN"
               Name="ADEX: Algorithm to derive PARAMN"
               Type="Computation">
      <Description>
      <TranslatedText xml:lang="en">For records take over from EX, PARAMN is populated with 1. For derivations in ADS PARAMN is populated with appropriate codes as defined in SAP.</TranslatedText>
      </Description>
      <def:DocumentRef leafID="LF.SAP">
        <def:PDFPageRef PageRefs="14 15" Type="PhysicalRef"/>
      </def:DocumentRef>
    </MethodDef>
    <MethodDef OID="MT.ADEX.AVAL"
               Name="ADEX: Algorithm to derive AVAL"
               Type="Computation">
      <Description>
      <TranslatedText xml:lang="en">Contains calculation results for PARAM not equal to &quot;Treatment&quot; as defined in SAP.</TranslatedText>
      </Description>
    </MethodDef>
    <MethodDef OID="MT.ADEX.AVALC"
               Name="ADEX: Algorithm to derive AVALC"
               Type="Computation">
      <Description>
      <TranslatedText xml:lang="en">derived; character string mapping from AVAL; contains calculation results for PARAM not equal to &quot;Treatment&quot;</TranslatedText>
      </Description>
    </MethodDef>
    <MethodDef OID="MT.ADEX.AVALCAT1"
               Name="ADEX: Algorithm to derive AVALCAT1"
               Type="Computation">
      <Description>
      <TranslatedText xml:lang="en">Character representation of AVALCT1N</TranslatedText>
      </Description>
    </MethodDef>
    <MethodDef OID="MT.ADEX.AVALCT1N"
               Name="ADEX: Algorithm to derive AVALCT1N"
               Type="Computation">
      <Description>
      <TranslatedText xml:lang="en">Derived as a categorical representation of AVAL and/or AVALC.</TranslatedText>
      </Description>
    </MethodDef>
    <MethodDef OID="MT.ADEX.PARAMTYP"
               Name="ADEX: Algorithm to derive PARAMTYP"
               Type="Computation">
      <Description>
      <TranslatedText xml:lang="en">If a new parameter is calculated, then populated as &quot;DERIVED&quot;; otherwise blank.</TranslatedText>
      </Description>
    </MethodDef>
    <MethodDef OID="MT.ADEX.DTYPE"
               Name="ADEX: Algorithm to derive DTYPE"
               Type="Computation">
      <Description>
      <TranslatedText xml:lang="en">Derived based on analysis value derivation method.</TranslatedText>
      </Description>
    </MethodDef>
    <MethodDef OID="MT.ADEX.DTYPEC"
               Name="ADEX: Algorithm to derive DTYPEC"
               Type="Computation">
      <Description>
      <TranslatedText xml:lang="en">Character representation of DTYPE</TranslatedText>
      </Description>
    </MethodDef>
    <MethodDef OID="MT.ADSL.ADSNAME"
               Name="ADSL: Algorithm to derive ADSNAME"
               Type="Computation">
      <Description>
      <TranslatedText xml:lang="en">Name of the analysis data set. Must be available in X_ADSNM-codelist</TranslatedText>
      </Description>
    </MethodDef>
    <MethodDef OID="MT.ADSL.UASR"
               Name="ADSL: Algorithm to derive UASR"
               Type="Computation">
      <Description>
      <TranslatedText xml:lang="en">Derived from USUBJID, AGE, SEX, RACE: A=Asian; B=Black; W=White; AI=American Indian or Alaska Native; NH=Native Hawaiian or other Pacific Islander; M=Multiple;NR=Not reported; Example: 1232343/28/F/A is a patient 1232343, 28 year old Asian female</TranslatedText>
      </Description>
    </MethodDef>
    <MethodDef OID="MT.ADSL.RASR"
               Name="ADSL: Algorithm to derive RASR"
               Type="Computation">
      <Description>
      <TranslatedText xml:lang="en">Derived from RANDNO, AGE, SEX, RACE: A=Asian; B=Black; W=White; AI=American Indian or Alaska Native; NH=Native Hawaiian or other Pacific Islander; M=Multiple;NR=Not reported; Example: 1232343/28/F/A is a patient 1232343, 28 year old Asian female</TranslatedText>
      </Description>
    </MethodDef>
    <MethodDef OID="MT.ADSL.ENRLFL"
               Name="ADSL: Algorithm to derive ENRLFL"
               Type="Computation">
      <Description>
      <TranslatedText xml:lang="en">Character representation of ENRLFN</TranslatedText>
      </Description>
    </MethodDef>
    <MethodDef OID="MT.ADSL.ENRLFN"
               Name="ADSL: Algorithm to derive ENRLFN"
               Type="Computation">
      <Description>
      <TranslatedText xml:lang="en">Set to 1 if subject has observation in DS with DSDECOD EQ &quot;INFORMED CONSENT OBTAINED&quot;, otherwise 0.</TranslatedText>
      </Description>
    </MethodDef>
    <MethodDef OID="MT.ADSL.RANDFL"
               Name="ADSL: Algorithm to derive RANDFL"
               Type="Computation">
      <Description>
      <TranslatedText xml:lang="en">Character representation of RANDFN</TranslatedText>
      </Description>
    </MethodDef>
    <MethodDef OID="MT.ADSL.RANDFN"
               Name="ADSL: Algorithm to derive RANDFN"
               Type="Computation">
      <Description>
      <TranslatedText xml:lang="en">Populated with 1 if DS.DSDECOD=&quot;RANDOMIZED&quot; and NMISS(DS.RANDNO) eq 0; otherwise 0</TranslatedText>
      </Description>
    </MethodDef>
    <MethodDef OID="MT.ADSL.COMPLFL"
               Name="ADSL: Algorithm to derive COMPLFL"
               Type="Computation">
      <Description>
      <TranslatedText xml:lang="en">Character representation of COMPLFN</TranslatedText>
      </Description>
    </MethodDef>
    <MethodDef OID="MT.ADSL.COMPLFN"
               Name="ADSL: Algorithm to derive COMPLFN"
               Type="Computation">
      <Description>
      <TranslatedText xml:lang="en">OAD.DS where epochn EQ ?</TranslatedText>
      </Description>
    </MethodDef>
    <MethodDef OID="MT.ADSL.SCRNFLFL"
               Name="ADSL: Algorithm to derive SCRNFLFL"
               Type="Computation">
      <Description>
      <TranslatedText xml:lang="en">Character representation of SCRNFLFN</TranslatedText>
      </Description>
    </MethodDef>
    <MethodDef OID="MT.ADSL.SCRNFLFN"
               Name="ADSL: Algorithm to derive SCRNFLFN"
               Type="Computation">
      <Description>
      <TranslatedText xml:lang="en">if DM.ARMCD =&apos;SCRNFAIL&apos; then populated with 1, otherwise 0</TranslatedText>
      </Description>
    </MethodDef>
    <MethodDef OID="MT.ADSL.RFICDT"
               Name="ADSL: Algorithm to derive RFICDT"
               Type="Computation">
      <Description>
      <TranslatedText xml:lang="en">Derived using SAS function MDY(DM.RFIC_M, DM.RFIC_D, DM.RFIC_Y). If all date parts (month, day, year) are given. Otherwise missing (blank).</TranslatedText>
      </Description>
    </MethodDef>
    <MethodDef OID="MT.ADSL.RFIC_TC"
               Name="ADSL: Algorithm to derive RFIC_TC"
               Type="Computation">
      <Description>
      <TranslatedText xml:lang="en">Time part derived from the corresponding combined Date/Time variable</TranslatedText>
      </Description>
    </MethodDef>
    <MethodDef OID="MT.ADSL.TR01SDT"
               Name="ADSL: Algorithm to derive TR01SDT"
               Type="Computation">
      <Description>
      <TranslatedText xml:lang="en"> </TranslatedText>
      </Description>
      <def:DocumentRef leafID="LF.AdamReviewersGuide">
        <def:PDFPageRef PageRefs="17" Type="PhysicalRef"/>
      </def:DocumentRef>
    </MethodDef>
    <MethodDef OID="MT.ADSL.TR01STM"
               Name="ADSL: Algorithm to derive TR01STM"
               Type="Computation">
      <Description>
      <TranslatedText xml:lang="en"> </TranslatedText>
      </Description>
      <def:DocumentRef leafID="LF.AdamReviewersGuide">
        <def:PDFPageRef PageRefs="17" Type="PhysicalRef"/>
      </def:DocumentRef>
    </MethodDef>
    <MethodDef OID="MT.ADSL.TR01EDT"
               Name="ADSL: Algorithm to derive TR01EDT"
               Type="Computation">
      <Description>
      <TranslatedText xml:lang="en"> </TranslatedText>
      </Description>
      <def:DocumentRef leafID="LF.AdamReviewersGuide">
        <def:PDFPageRef PageRefs="17" Type="PhysicalRef"/>
      </def:DocumentRef>
    </MethodDef>
    <MethodDef OID="MT.ADSL.TR01ETM"
               Name="ADSL: Algorithm to derive TR01ETM"
               Type="Computation">
      <Description>
      <TranslatedText xml:lang="en"> </TranslatedText>
      </Description>
      <def:DocumentRef leafID="LF.AdamReviewersGuide">
        <def:PDFPageRef PageRefs="17" Type="PhysicalRef"/>
      </def:DocumentRef>
    </MethodDef>
    <MethodDef OID="MT.ADSL.LVDT"
               Name="ADSL: Algorithm to derive LVDT"
               Type="Computation">
      <Description>
      <TranslatedText xml:lang="en"> </TranslatedText>
      </Description>
      <def:DocumentRef leafID="LF.AdamReviewersGuide">
        <def:PDFPageRef PageRefs="17" Type="PhysicalRef"/>
      </def:DocumentRef>
    </MethodDef>
    <MethodDef OID="MT.ADSL.RANDDT"
               Name="ADSL: Algorithm to derive RANDDT"
               Type="Computation">
      <Description>
      <TranslatedText xml:lang="en"> </TranslatedText>
      </Description>
      <def:DocumentRef leafID="LF.AdamReviewersGuide">
        <def:PDFPageRef PageRefs="17" Type="PhysicalRef"/>
      </def:DocumentRef>
    </MethodDef>
    <MethodDef OID="MT.ADSL.BRTHDT"
               Name="ADSL: Algorithm to derive BRTHDT"
               Type="Computation">
      <Description>
      <TranslatedText xml:lang="en"> </TranslatedText>
      </Description>
      <def:DocumentRef leafID="LF.AdamReviewersGuide">
        <def:PDFPageRef PageRefs="17" Type="PhysicalRef"/>
      </def:DocumentRef>
    </MethodDef>
    <MethodDef OID="MT.ADSL.BRTHDTL"
               Name="ADSL: Algorithm to derive BRTHDTL"
               Type="Computation">
      <Description>
      <TranslatedText xml:lang="en"> </TranslatedText>
      </Description>
      <def:DocumentRef leafID="LF.AdamReviewersGuide">
        <def:PDFPageRef PageRefs="17" Type="PhysicalRef"/>
      </def:DocumentRef>
    </MethodDef>
    <MethodDef OID="MT.ADSL.AGEGR02N"
               Name="ADSL: Algorithm to derive AGEGR02N"
               Type="Computation">
      <Description>
      <TranslatedText xml:lang="en">Derived by using the age.</TranslatedText>
      </Description>
    </MethodDef>
    <MethodDef OID="MT.ADSL.AGEGR02"
               Name="ADSL: Algorithm to derive AGEGR02"
               Type="Computation">
      <Description>
      <TranslatedText xml:lang="en">Character representation of AGEGR02N</TranslatedText>
      </Description>
    </MethodDef>
    <MethodDef OID="MT.ADSL.AGEGR01N"
               Name="ADSL: Algorithm to derive AGEGR01N"
               Type="Computation">
      <Description>
      <TranslatedText xml:lang="en">Derived by using the age.</TranslatedText>
      </Description>
    </MethodDef>
    <MethodDef OID="MT.ADSL.AGEGR01"
               Name="ADSL: Algorithm to derive AGEGR01"
               Type="Computation">
      <Description>
      <TranslatedText xml:lang="en">Character representation of AGEGR01N</TranslatedText>
      </Description>
    </MethodDef>
    <MethodDef OID="MT.ADSL.ASR"
               Name="ADSL: Algorithm to derive ASR"
               Type="Computation">
      <Description>
      <TranslatedText xml:lang="en">Derived from AGE, SEX, RACE: A=Asian; B=Black; W=White; AI=American Indian or Alaska Native; NH=Native Hawaiian or other Pacific Islander; M=Multiple; NR=Not reported; Example: 28/F/A is a 28 year old Asian female</TranslatedText>
      </Description>
    </MethodDef>
    <MethodDef OID="MT.ADSL.TRT01P"
               Name="ADSL: Algorithm to derive TRT01P"
               Type="Computation">
      <Description>
      <TranslatedText xml:lang="en">Character representation of TRT01PN</TranslatedText>
      </Description>
    </MethodDef>
    <MethodDef OID="MT.ADSL.TRT01PN"
               Name="ADSL: Algorithm to derive TRT01PN"
               Type="Computation">
      <Description>
      <TranslatedText xml:lang="en">Value of ARMCD for respective period mapped via project specific informat Z_TRT.</TranslatedText>
      </Description>
    </MethodDef>
    <MethodDef OID="MT.ADSL.TRT01A"
               Name="ADSL: Algorithm to derive TRT01A"
               Type="Computation">
      <Description>
      <TranslatedText xml:lang="en">Character representation of TRT01AN</TranslatedText>
      </Description>
    </MethodDef>
    <MethodDef OID="MT.ADSL.TRT01AN"
               Name="ADSL: Algorithm to derive TRT01AN"
               Type="Computation">
      <Description>
      <TranslatedText xml:lang="en"> </TranslatedText>
      </Description>
      <def:DocumentRef leafID="LF.AdamReviewersGuide">
        <def:PDFPageRef PageRefs="17" Type="PhysicalRef"/>
      </def:DocumentRef>
    </MethodDef>
    <MethodDef OID="MT.ADSL.CNTYGR1"
               Name="ADSL: Algorithm to derive CNTYGR1"
               Type="Computation">
      <Description>
      <TranslatedText xml:lang="en">Character representation of CNTYGR1N</TranslatedText>
      </Description>
    </MethodDef>
    <MethodDef OID="MT.ADSL.CNTYGR1N"
               Name="ADSL: Algorithm to derive CNTYGR1N"
               Type="Computation">
      <Description>
      <TranslatedText xml:lang="en">Derived based on COUNTRY as defined in SAP or protocol.</TranslatedText>
      </Description>
      <def:DocumentRef leafID="LF.SAP">
        <def:PDFPageRef PageRefs="22" Type="PhysicalRef"/>
      </def:DocumentRef>
    </MethodDef>
    <MethodDef OID="MT.ADSL.BASEWEIG"
               Name="ADSL: Algorithm to derive BASEWEIG"
               Type="Computation">
      <Description>
      <TranslatedText xml:lang="en">Derived from ADVS.AVAL where ABLFL=&apos;Y&apos; and PARAMCD=&apos;WEIGH&apos;</TranslatedText>
      </Description>
    </MethodDef>
    <MethodDef OID="MT.ADSL.BASEHEIG"
               Name="ADSL: Algorithm to derive BASEHEIG"
               Type="Computation">
      <Description>
      <TranslatedText xml:lang="en">Derived from ADVS.AVAL where ABLFL=&apos;Y&apos; and PARAMCD=&apos;HEIGH&apos;</TranslatedText>
      </Description>
    </MethodDef>
    <MethodDef OID="MT.ADSL.BASEBMI"
               Name="ADSL: Algorithm to derive BASEBMI"
               Type="Computation">
      <Description>
      <TranslatedText xml:lang="en">Derived from ADVS.AVAL where ABLFL=&apos;Y&apos; and PARAMCD=&apos;BMI&apos;</TranslatedText>
      </Description>
    </MethodDef>
    <MethodDef OID="MT.ADSL.EGFRGR1N"
               Name="ADSL: Algorithm to derive EGFRGR1N"
               Type="Computation">
      <Description>
      <TranslatedText xml:lang="en"> </TranslatedText>
      </Description>
      <def:DocumentRef leafID="LF.AdamReviewersGuide">
        <def:PDFPageRef PageRefs="17" Type="PhysicalRef"/>
      </def:DocumentRef>
    </MethodDef>
    <MethodDef OID="MT.ADSL.EGFRGR1"
               Name="ADSL: Algorithm to derive EGFRGR1"
               Type="Computation">
      <Description>
      <TranslatedText xml:lang="en">Character representation of EGFRGR1N</TranslatedText>
      </Description>
    </MethodDef>
    <def:leaf ID="LF.AdamReviewersGuide" xlink:href="12345_ADRG.pdf">
      <def:title>Analysis Data Reviewers Guide</def:title>
    </def:leaf>
    <def:leaf ID="LF.SAP" xlink:href="12345_SAP.pdf">
      <def:title>Statistical Analysis Plan</def:title>
    </def:leaf>
    </MetaDataVersion>
  </Study>
</ODM>
