CDISC SEND Rule ID,Class,Domain,Variable,Plain Text Explanation of Condition/Rule,Condition,Rule,Cited Document,Cited Document Section,Cited Item,Cited Guidance,Release Notes
45,ALL,ALL,--SCAT,--SCAT should not be the same as --DECOD or --BODSYS,--SCAT ^= null,--SCAT ^= --DECOD or --BODSYS,SENDIG v3.1,4.2.6,Text,Values for --CAT and --SCAT should not be redundant with the domain or dictionary classification provided by --DECOD and --BODSYS.,
279,"INT, FND",ALL,--ELTM,  --TPTREF must be populated when --ELTM is populated because --ELTM is relative to --TPTREF,--ELTM ^= null,--TPTREF ^= null,SENDIG v3.0,4.4.7,Text,"Time points can be represented using the time point variables, --TPT, --TPTNUM, --ELTM, and the time point anchors, --TPTREF (text description) and --RFTDTC (the date/time).; See also --ELTM CDISC Notes in Domain Tables (e.g., ""Planned elapsed time (in ISO 8601) format relative to the planned fixed reference (EXTPTREF)."")",
262.1,REL,POOLDEF,ALL," One record per subject per pool, Tabulation.",,One record per subject per pool,SENDIG v3.1,8.5.1,Domain Table Header,"pooldef.xpt, Pool Definition - Relationship Datasets. One record per subject per pool, Tabulation.",Versioned to reflect cited guidance change. 
182.1,FND,"LB, MA, MI, PC",--SPCUFL," --SPCUFL should be ""N"" or null.",--SPCUFL ^=null,"--SPCUFL = ""N"" ",SENDIG v3.1,6.3.6 | 6.3.7 | 6.3.8 | 6.3.1.1,--SPCUFL CDSIC Notes,Describes the usability of the specimen for the test. Example: N = the specimen is not usable; otherwise null.,"Cited guidance updated, additional domains added."
NEW SEND RULE 294,FND,ALL,--TPTREF, --TPTREF must be populated when --STINT and --ENINT are populated.,--STINT ^= null AND --ENINT ^= null,--TPTREF ^= null,SENDIG v3.1,4.4.7.2.3,Text,"Time points with collections over a duration also typically include the --STINT and --ENINT variables, which specify the start and end of the period over which the assessment was evaluated, based on the --TPTREF anchor.",New cited guidance.
71.1,ALL,ALL,"--DY, --STDY, --ENDY","(--DY, --STDY, and --ENDY) describe the relative day of the observation starting with the reference date as Day 1.  ",--DY ^= null OR --STDY ^= null OR --ENDY ^= null,"--DY, --STDY, and --ENDY describe the relative day of the observation starting with the reference date of Day 1",SENDIG v3.1,4.4.4,Text,"The Study Day variables (--DY, --STDY, and --ENDY) describe the relative day of the observation, starting with the reference date as Day 1.",Cited guidance reference updated; no implementation impact.
11,ALL,ALL,GEN,A permissible variable should be used in a domain as appropriate when collected or derived.,Variable Core Status = Permissible and data is collected,Variable present in dataset and ^= null,SENDIG v3.0,4.1.3,Text,"A Permissible variable should be used in a domain as appropriate when collected or derived. Except where restricted by specific domain assumptions, any SDTM Timing and Identifier variables and any Qualifier variables from the same general observation class are permissible for use in a domain based on that general observation class. The sponsor can decide whether a Permissible variable should be included as a column when all values for that variable are null.",
11,ALL,ALL,GEN,A permissible variable should be used in a domain as appropriate when collected or derived.,Variable Core Status = Permissible and data is collected,Variable present in dataset and ^= null,SENDIG v3.1,4.1.3,Text,"A Permissible variable should be used in a domain as appropriate when collected or derived. Except where restricted by specific domain assumptions, any SDTM Timing and Identifier variables and any Qualifier variables from the same general observation class are permissible for use in a domain based on that general observation class. The sponsor can decide whether a Permissible variable should be included as a column when all values for that variable are null.",
263,REL,POOLDEF,POOLID,A pool must consist of at least one subject.,,A pool must consist of at least one subject.,SENDIG v3.0,8.7.1.1,Assumption 1.b,A pool must consist of at least one subject.,
263,REL,POOLDEF,POOLID,A pool must consist of at least one subject.,,A pool must consist of at least one subject.,SENDIG v3.1,8.5.1.1,Assumption 1.b,A pool must consist of at least one subject.,Cited guidance reference updated; no implementation impact.
261,REL,POOLDEF,POOLID,A POOLID can only refer to one set of subjects.,,A POOLID can only refer to one set of subjects.,SENDIG v3.0,8.7,Text,"It is important to note that POOLID values are unique for a given set of subjects. While the same value of POOLID may not be re-used to refer to different sets of subjects, different POOLIDs may be used to refer to the same set of subjects.",
261,REL,POOLDEF,POOLID,A POOLID can only refer to one set of subjects.,,A POOLID can only refer to one set of subjects.,SENDIG v3.1,8.5,Text,"It is important to note that POOLID values are unique for a given set of subjects. While the same value of POOLID may not be re-used to refer to different sets of subjects, different POOLIDs may be used to refer to the same set of subjects.",Cited guidance reference updated; no implementation impact.
122,SPC,SE,NA,A record for each occurrence of an element experienced by a subject.,,One record in SE per occurrence of an element experienced per subject,SENDIG v3.0,5.3.1,Domain Table Header,"se.xpt, Subject Elements- Special-Purpose Domains, One record per element experienced per subject",
122,SPC,SE,NA,A record for each occurrence of an element experienced by a subject.,,One record in SE per occurrence of an element experienced per subject,SENDIG v3.1,5.3.1,Domain Table Header,"se.xpt, Subject Elements- Special-Purpose Domains, One record per element experienced per subject",
56.1,ALL,ALL,ALL,"A single value may represent a combination of multiple contributing items, delimited by slashes (“/”). In these cases, the combination is the collected value, the value analyzed, etc., not the individual contributing items composing the value.",A single value represents a combination of multiple contributing items and CDISC published Controlled Terminology applies to the value,"Multiple contributing items are separated by ""/""",SENDIG v3.1,4.3.6.1,Text,"A single value may represent a combination of multiple contributing items, delimited by slashes (“/”). In these cases, the combination is the collected value, the value analyzed, etc., not the individual contributing items composing the value.",Versioned to reflect cited guidance change. 
56,FND,"LB,MA,MI, OM, PC, TF",--SPEC,"A specimen may include multiple tissues which are analyzed together during an examination.  In these cases --SPEC is the CDISC published Controlled Terminology submission value format for each contributing tissue separated by a slash ""/"" (e.g., TESTIS/EPIDIDYMIS).",Multiple tissues are combined into a --SPEC,"--SPEC = CDISC published Controlled Terminology submission values for each tissue are separated by ""/""",SENDIG v3.0,4.3.6.1,Text,"A specimen may consist of multiple tissues which are analyzed together during an examination. When providing the --SPEC term for these cases, each contributing tissue should be included in its controlled terminology submission value format and concatenated to other tissues by a slash (""/"").",
265,"INT, EVT, FND",ALL,ALL,Additional SDTM 1.2 Identifier variables may be used in any domains based on the general observation class.  ,Variable does not exist in SENDIGv3.0  general observation class  domain table AND Variable exists in SDTMv1.2 Table of Identifiers,Variable can be used in domain,SENDIG v3.0,2.1 | 2.3,Text,"The same set of Identifier variables applies to all domains based on the general observation classes.; When preparing datasets based on the SENDIG domain models, sponsors must not add any variables other than specified Identifier variables (SDTM Table 2.2.4), Timing variables (SDTM Table 2.2.5), or Qualifier variables from the same general observation class (described in SDTM Tables 2.2.1-2.2.3).",
267,"INT, EVT, FND",ALL,ALL,Additional SDTM 1.2 Qualifier variables may be used in any domains based on the general observation class except when restricted by domain specific assumptions. ,Variable does not exist in SENDIGv3.0  general observation class  domain table AND Variable exists in the SDTM v1.2 general observation class table which is applicable to domain AND variable is not restricted by domain assumptions,Variable can be used in domain,SENDIG v3.0,2.1 | 2.3,Text,"Any additional Qualifier variables from the same general observation class may be added to a domain model except where restricted by specific domain assumptions. Use must be consistent with the description of the variable in the SDTM.  When preparing datasets based on the SENDIG domain models, sponsors must not add any variables other than specified Identifier variables (SDTM Table 2.2.4), Timing variables (SDTM Table 2.2.5), or Qualifier variables from the same general observation class (described in SDTM Tables 2.2.1-2.2.3).",
266,"INT, EVT, FND",ALL,ALL,Additional SDTM 1.2 Timing variables may be used in any domains based on the general observation class except when restricted by domain specific assumptions. ,Variable does not exist in SENDIGv3.0  general observation class  domain table AND Variable exists in SDTMv1.2 Table of Timing Variables AND variable is not restricted by domain assumptions,Variable can be used in domain,SENDIG v3.0,2.1 | 2.3,Text,"Any Timing variables are permissible for use in any submission dataset based on a general observation class except where restricted by specific domain assumptions. When preparing datasets based on the SENDIG domain models, sponsors must not add any variables other than specified Identifier variables (SDTM Table 2.2.4), Timing variables (SDTM Table 2.2.5), or Qualifier variables from the same general observation class (described in SDTM Tables 2.2.1-2.2.3).",
265.1,"INT, EVT, FND",ALL,ALL,Additional SDTM 1.5 Identifier variables may be used in any domains based on the general observation class.  ,Variable does not exist in SENDIG general observation class domain table AND Variable exists in SDTM 1.5 Table of Identifiers ,Variable can be used in domain,SENDIG v3.1,2.1 | 2.3,Text,"The same set of Identifier variables apply to all general observation classes. | When preparing datasets based on the SENDIG domain models, sponsors must not add any variables other than specified Identifier variables (SDTM (http://www.cdisc.org/sdtm) Table 2.2.4), Timing variables (SDTM Table 2.2.5), or Qualifier variables from the same general observation class (described in SDTM Tables 2.2.1-2.2.3).",Versioned to reflect cited guidance change. 
267.1,"INT, EVT, FND",ALL,ALL,Additional SDTM 1.5 Qualifier variables may be used in any domains based on the general observation class except when restricted by domain specific assumptions or listed in the SENDIG as prohibited for use in SEND. ,Variable does not exist in SENDIG general observation class domain table AND Variable exists in the SDTM v1.5  general observation class table which is applicable to domain AND variable is not restricted by domain assumptions AND variable is not listed as prohibited for use in SEND.,Variable can be used in domain,SENDIG v3.1,2.1 | 2.3,Text," Any additional Qualifier variables from the same general observation class may be added to a domain model, except for those variables not intended for use with SEND. | When preparing datasets based on the SENDIG domain models, sponsors must not add any variables other than specified Identifier variables (SDTM (http://www.cdisc.org/sdtm) Table 2.2.4), Timing variables (SDTM Table 2.2.5), or Qualifier variables from the same general observation class (described in SDTM Tables 2.2.1-2.2.3).",Versioned to reflect cited guidance change. 
266.1,"INT, EVT, FND",ALL,ALL,Additional SDTM 1.5 Timing variables may be used in any domains based on the general observation class except when restricted either by domain specific assumptions or listed in the SENDIG as prohibited for use in SEND.,Variable does not exist in SENDIG general observation class domain table AND Variable exists in SDTM 1.5 Table of Timing Variables AND variable is not restricted by domain assumptions AND variable is not listed as prohibited for use in SEND.,Variable can be used in domain,SENDIG v3.1,2.1 | 2.3,Text,"Any Timing variables are permissible for use in any submission dataset based on a general observation class, except for those variables not intended for use with SEND. | When preparing datasets based on the SENDIG domain models, sponsors must not add any variables other than specified Identifier variables (SDTM (http://www.cdisc.org/sdtm) Table 2.2.4), Timing variables (SDTM Table 2.2.5), or Qualifier variables from the same general observation class (described in SDTM Tables 2.2.1-2.2.3).",Versioned to reflect cited guidance change. 
NEW SEND RULE 297,SPC,"DM, CO, SE",ALL,"Additional variables not specified in the SENDIG description of the domain (including both the domain table and assumptions) may not be added to DM, CO, or SE.",,Additional variables not specified in the SENDIG description of the domain (including both the domain table and assumptions) may not be added.,SENDIG v3.1,2.2,Text,"The SDTM includes three types of special-purpose datasets, each of which has a fixed structure: ..Demographics (DM), Comments (CO), and Subject Elements (SE) include study data that do not conform to one of the three general observation classes. These are described in Section 5....",New rule identified from cited guidance.
NEW SEND RULE 299,REL,"RELREC, SUPP--, POOLDEF",ALL,"Additional variables not specified in the SENDIG description of the domain (including both the domain table and assumptions) may not be added to RELREC, SUPP--, and POOLDEF.",,"Additional variables not specified in the SENDIG description of the domain (including both the domain table and assumptions) may not be added to RELREC, SUPP--, and POOLDEF.",SENDIG v3.1,2.2,Text,"The SDTM includes three types of special-purpose datasets, each of which has a fixed structure: ...RELREC, SUPP--, and POOLDEF are relationship datasets. These are described in Section 8.",New rule identified from cited guidance.
NEW SEND RULE 298,TDM,"TE, TA, TX, TS",ALL,"Additional variables not specified in the SENDIG description of the domain (including both the domain table and assumptions) may not be added to TE, TA, TX, and TS.",,Additional variables not specified in the SENDIG description of the domain (including both the domain table and assumptions) may not be added.,SENDIG v3.1,2.2,Text,"The SDTM includes three types of special-purpose datasets, each of which has a fixed structure: ...Trial Design Model datasets, consisting of Trial Elements (TE), Trial Arms (TA), Trial Sets (TX), and Trial Summary (TS), contain information about the study design but do not contain subject data. These are described in Section 7...",New rule identified from cited guidance.
112.1,SPC,DM,"AGE,AGEU","AGE and AGEU can be calculated from the BRTHDTC and RFSTDTC.  If a calculation is used, the algorithm should be included in the Define-XML document.","AGE^= null AND AGE def:Origin/@Type = ""Derived""",Algorithm is included in the Define-XML document,SENDIG v3.0,5.1.1.1,Assumption 4.e,Sponsors may choose to derive AGE and AGEU using an algorithm involving BRTHDTC and RFSTDTC.  Sponsors should indicate how AGE was populated in the define file comments.,Condition updated.
112.1,SPC,DM,"AGE,AGEU","AGE and AGEU can be calculated from the BRTHDTC and RFSTDTC.  If a calculation is used, the algorithm should be included in the Define-XML document.","AGE^= null AND AGE def:Origin/@Type = ""Derived""",Algorithm is included in the Define-XML document,SENDIG v3.1,5.1.1.1,Assumption 4.e,Sponsors may choose to derive AGE and AGEU using an algorithm involving BRTHDTC and RFSTDTC.  Sponsors should indicate how AGE was populated in the define file comments.,Condition updated.
103,"SPC, TDM","DM,TS",AGETXT,AGETXT is used to present the age range in situations where the exact birthdate is not known.  If AGETXT is included both BRTHDTC and AGE should not be populated.,AGETXT ^=null,AGE = null AND BRTHDTC = null,SENDIG v3.0,5.1.1,AGETXT CDISC Notes,Populate only when BRTHDTC or AGE are not specified.,
103,"SPC, TDM","DM,TS",AGETXT,AGETXT is used to present the age range in situations where the exact birthdate is not known.  If AGETXT is included both BRTHDTC and AGE should not be populated.,AGETXT ^=null,AGE = null AND BIRTHDTC = null,SENDIG v3.1,5.1.1,AGETXT CDISC Notes,Populate only when BRTHDTC or AGE is not specified.,Cited guidance reference updated; no implementation impact.
102,"SPC, TDM","DM,TS",AGETXT,AGETXT is used to present the age range in situations where the exact birthdate is not known.  It should be presented in number-number format.,AGETXT^= null,AGETXT = number-number,SENDIG v3.0,5.1.1,AGETXT CDISC Notes,AGETXT is number-number,
102,"SPC, TDM","DM,TS",AGETXT,AGETXT is used to present the age range in situations where the exact birthdate is not known.  It should be presented in number-number format.,AGETXT^= null,AGETXT = number-number,SENDIG v3.1,5.1.1,AGETXT CDISC Notes,AGETXT is number-number,
104,"SPC, TDM","DM,TS",AGEU,"AGEU is the unit associated with AGE or AGETXT.  If either of those variables is populated, AGEU should be populated.",AGE ^= null OR AGETXT^= null,AGEU ^= null,SENDIG v3.0,5.1.1,AGEU CDISC Notes,AGEU:  Units associated with either AGE or AGETXT.,
104,"SPC, TDM","DM,TS",AGEU,"AGEU is the until associated with AGE or AGETXT.  If either of those variables is populated, AGEU should be populated.",AGE ^= null OR AGETXT^= null,AGEU ^= null,SENDIG v3.1,5.1.1,AGEU CDISC Notes,Units associated with AGE and AGETXT.,Cited guidance reference updated; no implementation impact.
272,ALL,ALL,ALL,All .xpt files are in SAS V5  Transport format.,,All .xpt files are in SAS V5  Transport format.,SENDIG v3.0,3.3,Text,Ensuring that the datasets are in SAS v5 Transport format.,Rule not applicable to SENDIG v3.1 and SENDIG v3.1.1.  
257,REL,SUPP--,QVAL,All records in the SUPP-- datasets must have a value for QVAL.,,QVAL ^= null,SENDIG v3.0,8.5,Text,All records in the SUPP-- datasets must have a value for QVAL.,
257,REL,SUPP--,QVAL,All records in the SUPP-- datasets must have a value for QVAL.,,QVAL ^= null,SENDIG v3.1,8.3,Text,All records in the SUPP-- datasets must have a value for QVAL.,Cited guidance reference updated; no implementation impact.
NEW SEND RULE 287,REL,RELREC,RELID,All records that are part of a single relationship share the same unique RELID.,Records are related,RELID must be identical,SENDIG v3.1,8.2.1,Assumption 2,"The value of RELID is chosen by the sponsor, but must be identical for all related records.",New cited guidance.
27.1,"SPC, TDM","DM, TA, TX",ARMCD,ARMCD value limited to 20 characters ,,ARMCD value length <= 20,SENDIG v3.0,4.2.1,Text,"ARMCD is limited to 20 characters, but does not have special character restrictions. The maximum length of ARMCD is longer than for other “short” variables to accommodate the kind of values that are likely to be needed for crossover studies.",Erroneous reference to TS has been removed.
27.1,"SPC, TDM","DM, TA, TX",ARMCD,ARMCD value limited to 20 characters ,,ARMCD value length <= 20,SENDIG v3.1,4.2.1,Text,"ARMCD is limited to 20 characters, but does not have special character restrictions. The maximum length of ARMCD is longer than for other “short” variables to accommodate the kind of values that are likely to be needed for crossover studies.",Erroneous reference to TS has been removed.
80,"INT, FND",ALL,"VISITDY, --DTC, --DY","At least one timing variable (ie: VISITDY, --DTC, --DY) should be provided if timepoints (--TPT) are used.",--TPT ^= null,VISITDY or --DTC or --DY ^= null,SENDIG v3.0,4.4.7,Text,"When using time points, at least one corresponding timing variable should be provided (e.g., VISITDY, --DTC, --DY).",Rule not applicable to SENDIG v3.1 and SENDIG v3.1.1.  
126,SPC,SE,SEENDTC,"Because there are no time gaps between Elements, the SEENDTC value for one element will always be the same as the SESTDTC value for the next Element.",Element is not the last Element for the subject,SEENDTC = SESTDTC for the next Element,SENDIG v3.0,5.3.1.1,Assumption 1,"There are, by definition, no time gaps between Elements; therefore, the value SEENDTC for one Element will always be the same as the value of SESTDTC for the next Element.  Each Element continues until the time at which the next Element begins.",Replaced by SEND Rule 283 in SENDIG v3.1 and SENDIG v3.1.1.
127,SPC,SE,SEENDTC,"Because there are no time gaps between Elements, the SEENDTC value for the last Element is the date of subject disposition.",Element is the last Element for the subject,SEENDTC = DS.DSSTDTC of the disposition,SENDIG v3.0,5.3.1.1,Assumption 1,"The Subject Elements domain allows the submission of data on the individual experience: the actual timing and sequence of Elements a subject experienced.  Please read Section 7.2 (Trial Elements) and Section 7.3 (Trial Arms), as these datasets define a study's planned Elements and describe the planned sequences of Elements for the Arms of the study. There are, by definition, no time gaps between Elements; therefore, the value of SEENDTC for one Element will always be the same as the value of SESTDTC for the next Element. Each Element continues until the time at which the next Element begins.",Replaced by SEND Rule 284 in SENDIG v3.1 and SENDIG v3.1.1.
151.1,FND,BG,BGDTC,BGDTC must be populated when BGTESTCD is representing Average Body Weight Gain.  ,"BGTESTCD = ""BWGAINA""",BGDTC ^= null,SENDIG v3.0,6.3.2,BGENDTC CDSIC Notes,Date/time of the end of the weight interval in ISO 8601 format.  This must be populated when BGTESTCD is BWGAINA.,Condition rule format updated. Rule not applicable to SENDIG v3.1 and SENDIG v3.1.1.  
152.1,FND,BG,BGENDTC,BGENDTC must be populated when BGTESTCD is representing Average Body Weight Gain.  ,"BGTESTCD = ""BWGAINA""",BGENDTC ^= null,SENDIG v3.0,6.3.2,BGENDTC CDSIC Notes,Date/time of the end of the weight interval in ISO 8601 format.  This must be populated when BGTESTCD is BWGAINA.,Condition format updated. Rule not applicable to SENDIG v3.1 and SENDIG v3.1.1.  
147,FND,ALL,--BLFL,"--BLFL value must either be ""Y"" or null",--BLFL ^= null,"--BLFL = ""Y""",SENDIG v3.0,6.3.1,BWBLFL CDISC Notes,A baseline indicator may be used to calculate differences or changes from baseline. Value should be Y or null. The baseline flag is sponsor-defined.,
147,FND,ALL,--BLFL,"--BLFL value must either be ""Y"" or null",--BLFL ^= null,"--BLFL = ""Y""",SENDIG v3.1,6.3.1,BWBLFL CDISC Notes,A baseline indicator may be used to calculate differences or changes from baseline. Value should be Y or null. The baseline flag is sponsor-defined.,
NEW SEND RULE 295,FND,ALL," --STINT, --ENINT ",Both --STINT and --ENINT must be populated if one is populated or both --STINT and --ENINT must be null.,--STINT ^= null  OR --ENINT ^= null,--STINT ^= null  AND --ENINT ^= null,SENDIG v3.1,4.4.7.2.3,Text,"The --STINT and --ENINT definitively state the bounds of the evaluation and would represent the assessment interval consistently across sponsors, regardless of labeling style.",New cited guidance.
111,SPC,DM,BRTHDTC,BRTHDTC should be collected.   If BRTHDTC was not collected this variable should be left blank.  BRTHDTC should never be derived from another variable.,BRTHDTC ^= null,BRTHDTC ORIGIN = collected in the Define-XML document,SENDIG v3.0,5.1.1.1,Assumption 4.c,Data in BRTHDTC should never be derived from another variable.,
111,SPC,DM,BRTHDTC,BRTHDTC should be collected.   If BRTHDTC was not collected this variable should be left blank.  BRTHDTC should never be derived from another variable.,BRTHDTC ^= null,BRTHDTC ORIGIN = collected in the Define-XML document,SENDIG v3.1,5.1.1.1,Assumption 4.c,Data in BRTHDTC should never be derived from another variable.,
47,ALL,ALL,--CAT,--CAT should not be the same as  --DECOD or --BODSYS,--CAT ^= null,--CAT ^= --DECOD or --BODSYS,SENDIG v3.0,4.2.6,Text,Values for --CAT and --SCAT should not be redundant with the domain or dictionary classification provided by --DECOD and --BODSYS.,
47,ALL,ALL,--CAT,--CAT should not be the same as  --DECOD or --BODSYS,--CAT ^= null,--CAT ^= --DECOD or --BODSYS,SENDIG v3.1,4.2.6,Text,Values for --CAT and --SCAT should not be redundant with the domain or dictionary classification provided by --DECOD and --BODSYS.,
46,ALL,ALL,--CAT,--CAT should not be the same as the domain name,--CAT ^= null,--CAT ^= Domain Name,SENDIG v3.0,4.2.6,Text,Values for --CAT and --SCAT should not be redundant with the domain or dictionary classification provided by --DECOD and --BODSYS.,
46,ALL,ALL,--CAT,--CAT should not be the same as the domain name,--CAT ^= null,--CAT ^= Domain Name,SENDIG v3.1,4.2.6,Text,Values for --CAT and --SCAT should not be redundant with the domain or dictionary classification provided by --DECOD and --BODSYS.,
161,FND,CL,CLRESCAT,CLRESCAT is used for post collection categorization of results and should not be a duplication of CLTEST or CLSCAT which are considered categories at the time of collection.,,CLRESCAT ^= CLTEST AND CLRESCAT ^= CLSCAT,SENDIG v3.0,6.3.3.1,Assumption 3.c,CLRESCAT is used for post collection categorization of results and should not be a duplication of CLTEST or CLSCAT which are considered categories at the time of collection.,
161,FND,CL,CLRESCAT,CLRESCAT is used for post collection categorization of results and should not be a duplication of CLTEST or CLSCAT which are considered categories at the time of collection.,,CLRESCAT ^= CLTEST AND CLRESCAT ^= CLSCAT,SENDIG v3.1,6.3.3.1,Assumption 3.c,CLRESCAT is used for post collection categorization of results and should not be a duplication of CLTEST or CLSCAT which are considered categories at the time of collection.,
259,REL,CO,"RDOMAIN, IDVAR, IDVARVAL",Comments related only to a specific domain (and not to any specific record[s]) for a subject would populate RDOMAIN with the domain code for the domain with which they are associated; IDVAR and IDVARVAL would be null.,Comments related only to a specific domain,RDOMAIN ^= null AND IDVAR = null AND IDVARVAL = null,SENDIG v3.0,8.6,Text,Comments related only to a specific domain (and not to any specific record[s]) for a subject would populate RDOMAIN with the domain code for the domain with which they are associated; IDVAR and IDVARVAL would be null.,
259,REL,CO,"RDOMAIN, IDVAR, IDVARVAL",Comments related only to a specific domain (and not to any specific record[s]) for a subject would populate RDOMAIN with the domain code for the domain with which they are associated; IDVAR and IDVARVAL would be null.,Comments related only to a specific domain,RDOMAIN ^= null AND IDVAR = null AND IDVARVAL = null,SENDIG v3.1,8.4,Text,Comments related only to a specific domain (and not to any specific record[s]) for a subject would populate RDOMAIN with the domain code for the domain with which they are associated; IDVAR and IDVARVAL would be null.,Cited guidance reference updated; no implementation impact.
258,REL,CO,"RDOMAIN, IDVAR, USUBJID, POOLID, IDVARVAL","Comments related only to a subject in general would have RDOMAIN, IDVAR, IDVARVAL null, as the only key needed to identify the relationship/association to that subject is USUBJID (or POOLID in the case of comments on a pool of subjects).",Comments related only to a subject,"RDOMAIN, IDVAR, and IDVARVAL = null AND (USUBJID ^= null OR POOLID ^= null)",SENDIG v3.0,8.6,Text,"Comments related only to a subject in general would have RDOMAIN, IDVAR, IDVARVAL null, as the only key needed to identify the relationship/association to that subject is USUBJID (or POOLID in the case of comments on a pool of subjects).",
258.1,REL,CO,"RDOMAIN, IDVAR, USUBJID, POOLID, IDVARVAL","Comments related only to a subject in general would have RDOMAIN, IDVAR, IDVARVAL null, as the only key needed to identify the relationship/association to that subject is USUBJID (or POOLID in the case of comments on a pool of subjects).",Comments related only to a subject or pool,"RDOMAIN, IDVAR, and IDVARVAL = null AND (USUBJID ^= null OR POOLID ^= null)",SENDIG v3.1,8.4,Text,"Comments related only to a subject in general would have RDOMAIN, IDVAR, IDVARVAL null, as the only key needed to identify the relationship/association to that subject is USUBJID (or POOLID in the case of comments on a pool of subjects).",Updated cited guidance resulted in change to rule condition.
260,REL,CO,"RDOMAIN, IDVAR, IDVARVAL","Comments related to specific domain record(s) for a subject would populate the RDOMAIN, IDVAR, and IDVARVAL variables with values that identify the specific parent record(s).",Comments related to a specific record in a domain,"RDOMAIN, IDVAR, and IDVARVAL ^= null",SENDIG v3.0,8.6,Text,"Comments related to specific domain record(s) for a subject would populate the RDOMAIN, IDVAR, and IDVARVAL variables with values that identify the specific parent record(s).",
260,REL,CO,"RDOMAIN, IDVAR, IDVARVAL","Comments related to specific domain record(s) for a subject would populate the RDOMAIN, IDVAR, and IDVARVAL variables with values that identify the specific parent record(s).",Comments related to a specific record in a domain,"RDOMAIN, IDVAR, and IDVARVAL ^= null",SENDIG v3.1,8.4,Text,"Comments related to specific domain record(s) for a subject would populate the RDOMAIN, IDVAR, and IDVARVAL variables with values that identify the specific parent record(s).",Cited guidance reference updated; no implementation impact.
NEW SEND RULE 336,FND,CV,ALL,"cv.xpt, Cardiovascular Findings. One record per test per observation time or evaluation interval per subject, Tabulation.",,"cv.xpt, Cardiovascular Findings. One record per test per observation time or evaluation interval per subject, Tabulation.",SENDIG v3.1,6.3.17,Domain Table Header,"cv.xpt, Cardiovascular Findings. One record per test per observation time or evaluation interval per subject, Tabulation.",New cited guidance.
86.1,FND,ALL,--ORRES,"Data should not be presented in the --ORRES variable if --STAT = ""NOT DONE"".","--STAT = ""NOT DONE""",--ORRES = null,SENDIG v3.0,4.5.1.1,Text,"--ORRES is an Expected variable and should always be populated except when --STAT = ""NOT DONE"".",Condition format updated.
86.1,FND,ALL,--ORRES,"Data should not be presented in the --ORRES variable if --STAT = ""NOT DONE"".","--STAT = ""NOT DONE""",--ORRES = null,SENDIG v3.1,4.5.1.1,Text,"--ORRES is an Expected variable and should always be populated except when --STAT = ""NOT DONE"".",Condition format updated.
248.1,TDM,TS,TSVAL,Dates or durations represented in TSVAL must be in the appropriate ISO 8601 format.,"TSPARMCD In (DOSDUR, EXPENDTC, EXPSTDTC, STSTDTC, TRMSAC, DOSENDTC, DOSSTDTC, INTSAC, SLENGTH, RECSAC, STENDTC)",TSVAL in ISO 8601 format,SENDIG v3.0,7.6.3,"Trial Summary Codes Table Controlled Terms, Codelist, or Format Column","See Controlled Terms, Codelist, or Format for TSPARM that include dates or durations.",Updated condition format.
248.1,TDM,TS,TSVAL,Dates or durations represented in TSVAL must be in the appropriate ISO 8601 format.,"TSPARMCD In (DOSDUR, EXPENDTC, EXPSTDTC, STSTDTC, TRMSAC, DOSENDTC, DOSSTDTC, INTSAC, SLENGTH, RECSAC, STENDTC)",TSVAL in ISO 8601 format,SENDIG v3.1,7.6.3,"Trial Summary Codes Table Controlled Terms, Codelist, or Format Column","See Controlled Terms, Codelist, or Format for TSPARM that include dates or durations.",Updated condition format.
164,FND,DD,DDTESTCD,DDTESTCD should always be DEATHD.,,"DDTESTCD = ""DEATHD""",SENDIG v3.0,6.3.4,DDTESTCD CDISC Notes,The value in DDTESTCD...In this domain the value should always be DEATHD.,Rule not applicable to SENDIG v3.1 and SENDIG v3.1.1. 
NEW SEND RULE 300,NA,NA,NA,Define-XML document should not include a description of an empty dataset.,Records are not present in dataset ,Empty dataset is not described in the Define-XML document,SENDIG v3.1,3.2.1,Text,"In the event that no records are present in a dataset, the empty dataset should not be submitted and should not be described in the data definition file.",New rule identified from cited guidance.
209,FND,EG,EGDRVFL,"Derived flag should only be used where there is, within a dataset, a test code that contains both collected and derived data. In this circumstance the Define-XML document will contain information that describes the reasons and approach.",Test code contains both collected and derived data,"EGDRVFL = ""Y"" for the derived records only and Define-XML document contains an explanation",SENDIG v3.0,6.3.16,EGDRVFL CDISC Notes,"EGDRVFL: Used to indicate a derived record. The value should be Y or null. Derived flag should only be used where there is, within a dataset, a test code that contains both collected and derived data. In this circumstance the data definition file will contain information that describes the reasons and approach.",Rule not applicable to SENDIG v3.1 and SENDIG v3.1.1.  
NEW SEND RULE 309,SPC,DM,SPECIES,DM records with different values for SPECIES cannot have the same SETCD value.,,DM records with different values for DM.SPECIES must have different values for DM.SETCD.,SENDIG v3.1,5.1.1.1,Assumption 6,Trial Sets (TX) can have multiple species and/or strains if they are different by set.,New rule identified from cited guidance.
172,FND,ALL,--DRVFL,"--DRVFL value must be either ""Y"" or null.",--DRVFL ^= null,"--DRVFL = ""Y"" ",SENDIG v3.0,6.3.6,LBDRVFL CDISC Notes,Used to indicate a derived record. The value should be Y or null.,
172,FND,ALL,--DRVFL,"--DRVFL value must be either ""Y"" or null.",--DRVFL ^= null,"--DRVFL = ""Y"" ",SENDIG v3.1,6.3.6,LBDRVFL CDISC Notes,Used to indicate a derived record. The value should be Y or null.,
140,EVT,DS,ALL,DS has one record per USUBJID in DM,,DS has one record per USUBJID in DM,SENDIG v3.0,6.2.1,Domain Table | Assumption 1.a,"ds.xpt, Disposition - Events. One record per subject, Tabulation.; The disposition dataset provides a record for the disposition of subjects throughout the study. One record will be created for each subject used in the study, whether it ultimately died or was removed from the study.",
140,EVT,DS,ALL,DS has one record per USUBJID in DM,,DS has one record per USUBJID in DM,SENDIG v3.1,6.2.1,Domain Table | Assumption 1.a,"ds.xpt, Disposition - Events. One record per subject, Tabulation. The disposition dataset provides a record of the final disposition of subjects as they reach their final disposition, and this can be recorded at any stage throughout the study. At study completion, one record must exist for each subject used in the study.",Cited guidance reference updated; no implementation impact.
141,EVT,DS,DSTERM,"DSTERM values should be mapped to DSDECOD (i.e., translated into Controlled Terminology)",,DSTERM is mapped to DSDECOD,SENDIG v3.0,6.2.1; 6.2.1.1,DSTERM CDISC Notes,"DSTERM is the original term recorded for animal disposition. DSTERM is not under controlled terminology, but should be mapped to DSDECOD.",
141,EVT,DS,DSTERM,"DSTERM values should be mapped to DSDECOD (i.e., translated into Controlled Terminology)",,DSTERM is mapped to DSDECOD,SENDIG v3.1,6.2.1,DSTERM CDISC Notes,"DSTERM is the original term recorded for subject disposition. DSTERM is not under controlled terminology, but should be mapped to DSDECOD.",Cited guidance reference updated; no implementation impact.
183,FND,"MA, MI",--DTHREL,"DTHREL must be populated with ""Y"", ""N"", ""U"" or null.",DTHREL ^= null,"DTHREL = ""Y"" OR DTHREL = ""N"" OR DTHREL = ""U""",SENDIG v3.0,6.3.7 | 6.3.8,--DTHREL CDISC Notes,"Describes the relationship of a particular finding to the death of a subject (Y=caused death, N=did not cause death, U=unknown). May be left null if not available.",
183,FND,"MA, MI",--DTHREL,"DTHREL must be populated with ""Y"", ""N"", ""U"" or null.",DTHREL ^= null,"DTHREL = ""Y"" OR DTHREL = ""N"" OR DTHREL = ""U""",SENDIG v3.1,6.3.7 | 6.3.8,MADTHREL CDISC Notes | MIDTHREL CDISC Notes,"Describes the relationship of a particular finding to the death of a subject (Y=caused death, N=did not cause death, U=unknown). May be left null if not available.",
224,SPC,DM,"ARM, ARMCD",Each ARM/ARMCD pair in DM must match those in TA.,ARM ^= null AND ARMCD ^= null,DM.ARM = TA.ARM AND DM.ARMCD = TA.ARMCD for a given TA record,SENDIG v3.1,7.3.1.1,Assumption 2,"ARM and ARMCD values in DM and TA must coincide (ARM and ARMCD are defined as the planned Trial Arms in TA, and the planned Arms are then applied to subjects in DM).",Cited guidance reference updated; no implementation impact.
224,SPC,DM,"ARM, ARMCD","Each ARM/ARMCD pair in DM, if present, must match those in TA.",ARM ^= null AND ARMCD ^= null,DM.ARM = TA.ARM AND DM.ARMCD = TA.ARMCD for a given TA record,SENDIG v3.0,7.3.1.1,Assumption 2,"ARM and ARMCD values in DM and TA must coincide (ARM and ARMCD are defined as the planned trial arms in TA, and the planned arms are then applied to subjects in DM).",
139,ALL,POOLDEF,POOLID,Each POOLID that exists in the SEND dataset must be defined in POOLDEF and must include a record for each subject in the POOLID,POOLID exists in any domain,POOLID exists in POOLDEF; and a record exists for each subject in POOLID,SENDIG v3.0,6.1.1,POOLID CDISC Notes,"CDISC notes for POOLID: If POOLID is entered, POOLDEF records must exist for each subject and the USUBJID must be null.",
139,ALL,POOLDEF,POOLID,Each POOLID that exists in the SEND dataset must be defined in POOLDEF and must include a record for each subject in the POOLID,POOLID exists in any domain,POOLID exists in POOLDEF; and a record exists for each subject in POOLID,SENDIG v3.1,6.1.1,POOLID CDISC Notes,"If POOLID is entered, POOLDEF records must exist for each subject and the USUBJID must be null.",
237,TDM,TX,"SETCD, SET",Each SETCD/SET is a unique pair.,,Each SETCD/SET is a unique pair.,SENDIG v3.0,7.4.1,SETCD CDISC Notes | SET CDISC Notes,"SETCD: Short name of a specific Trial Set. SET: Long description of a specific Trial Set, as defined by the sponsor.",
237,TDM,TX,"SETCD, SET",Each SETCD/SET is a unique pair.,,Each SETCD/SET is a unique pair.,SENDIG v3.1,7.4.1,SETCD CDISC Notes | SET CDISC Notes,"SETCD: Short name of the Trial Set. SET: Long description of a specific Trial Set, as defined by the sponsor.",
37,ALL,ALL,USUBJID,Each subject must have an unique USUBJID,USUBJID exists,USUBJID is unique to one subject,SENDIG v3.0,4.2.3,Text,No more than one animal may have the same USUBJID within a submission.,
37,ALL,ALL,USUBJID,Each subject must have an unique USUBJID,USUBJID exists,USUBJID is unique to one subject,SENDIG v3.1,4.2.3,Text,No more than one animal may have the same USUBJID within a submission.,
233,TDM,TX,SETCD,Each Trial Set must be identified by a SETCD which is unique within the trial.,,Each Trial Set must be identified by a SETCD which is unique within the trial.,SENDIG v3.0,7.4.1.1,Assumption 2,Each Trial Set must be identified by a SETCD which is unique within the trial.,
233,TDM,TX,SETCD,Each Trial Set must be identified by a SETCD which is unique within the trial.,,Each Trial Set must be identified by a SETCD which is unique within the trial.,SENDIG v3.1,7.4.1.1,Assumption 2, Each Trial Set must be identified by a SETCD that is unique within the trial. ,Cited guidance reference updated; no implementation impact.
109,ALL,DM,USUBJID,Each USUBJID that exists in the SEND dataset must exist in DM,USUBJID exists in any domain,USUBJID exists in DM,SENDIG v3.0,5.1.1.1,Assumption 1,"To identify a subject uniquely across a submission, a unique identifier (USUBJID) should be assigned and included in all subject-related datasets in the submission.",
109,ALL,DM,USUBJID,Each USUBJID that exists in the SEND dataset must exist in DM,USUBJID exists in any domain,USUBJID exists in DM,SENDIG v3.1,5.1.1.1,Assumption 1,"To identify a subject uniquely across a submission, a unique identifier (USUBJID) should be assigned and included in all subject-related datasets in the submission.",
NEW SEND RULE 334,FND,EG,EGEVAL,EGEVAL should be null for results that are collected or derived.,Result is collected or derived,EGEVAL = null,SENDIG v3.1,6.3.16,EGEVAL CDISC Notes,Role of the person who provided the evaluation. Should be null for records that contain collected or derived data.,New rule identified from cited guidance.
250,TDM,TS,TSPARMCD,"Either a record with TSPARMCD of AGE or TSPARMCD of AGETXT should be present, but not both. ",,Either a record with TSPARMCD = AGE or TSPARMCD = AGETXT is present; both are not present,SENDIG v3.0,7.6.3,AGE CDISC Notes,Either the AGE or the AGETXT variable should be populated.,
250,TDM,TS,TSPARMCD,"Either a record with TSPARMCD of AGE or TSPARMCD of AGETXT should be present, but not both. ",,Either a record with TSPARMCD = AGE or TSPARMCD = AGETXT is present; both are not present,SENDIG v3.1,7.6.3,AGE CDISC Notes,Either the AGE or the AGETXT variable should be populated.,
NEW SEND RULE 291,INT,EX,"--STDTC, --STDY",Either --STDTC or --STDY must be populated.,, --STDTC ^=null OR --STDY ^=null,SENDIG v3.1,4.4 | 6.1.1.1,Text | Assumption 1.b,"In general, all domains based on the three general observation classes should have at least one Timing variable. In the Events or Interventions general observation class, this could be the start date of the event or intervention…This domain should contain one record per constant dosing interval per subject per administration site (as identified in FOCID). A constant dosing interval is sponsor defined and represents a specific period of time during which a subject was treated with a specific lot at a constant dose level.",New cited guidance.
214,TDM,TE,"TEENRL, TEDUR",Either TEENRL or TEDUR (or both) must be populated for each Element.,,TEENRL ^= null AND/OR TEDUR ^= null,SENDIG v3.0,7.2.1 | 7.2.1.1,TEENRL CDISC Notes | Assumption 12,Either TEENRL or TEDUR must be present for each Element; At least one of TEENRL and TEDUR must be populated. Both may be populated.,
214,TDM,TE,"TEENRL, TEDUR",Either TEENRL or TEDUR (or both) must be populated for each Element.,,TEENRL ^= null AND/OR TEDUR ^= null,SENDIG v3.1,7.2.1,TEENRL CDISC Notes,Either TEENRL or TEDUR must be present for each Element; both may be present.,Cited guidance reference updated; no implementation impact.
NEW SEND RULE 288,TDM,TS,"TSVAL, TSVALNF","Either TSVAL or TSVALNF is populated, but not both.",,"Either TSVAL or TSVALNF is populated, but not both.",SENDIG v3.1,7.6.1.1,TSVALNF CDISC Notes,"Null flavor for the value of the TSPARMs, which should be included according to the trial summary code table below if and only if TSVAL is null.",New cited guidance.
84,ALL,ALL,--ELTM,--ELTM is relative to --TPTREF,--ELTM ^= null ,--ELTM is the planned elapsed time from --TPTREF,SENDIG v3.0,Figure 4.4.7 | 6.1.1,Text,"SDTM 1.2 Section 2.2.5 reference: Planned elapsed time (in ISO 8601) format relative to a planned fixed reference (--TPTREF) such as ""Previous Dose"" or ""Previous Meal"".",
84,ALL,ALL,--ELTM,--ELTM is relative to --TPTREF,--ELTM ^= null ,--ELTM is the planned elapsed time from --TPTREF,SENDIG v3.1,4.4.7.2.2,Text,"--ELTM: the planned elapsed time from the fixed reference point event (e.g., a dose) to the planned observation, in ISO 8601 format, which is usually also reflected in the --TPT label.",Cited guidance reference updated; no implementation impact.
278,ALL,ALL,ALL,"Empty dataset files (i.e., files that do not contain any records) must not be included in a SEND dataset submission.",Dataset file contains no records,Dataset must not be included in the SEND submission,SENDIG v3.0,3.2.1,Text,"In the event that no records are present in a dataset, the empty dataset should not be submitted and should not be described in the data definition file.",
278,ALL,ALL,ALL,"Empty dataset files (i.e., files that do not contain any records) must not be included in a SEND dataset submission.",Dataset file contains no records,Dataset must not be included in the SEND submission,SENDIG v3.1,3.2.1,Text,"In the event that no records are present in a dataset, the empty dataset should not be submitted and should not be described in the data definition file.",
58,"TDM, FND, EVT",ALL,--ENDTC,--ENDTC must be greater than or equal to --DTC,--ENDTC ^=null,--ENDTC >= --DTC,SENDIG v3.0,4.4.3,Text,"If both --DTC and --ENDTC are collected, durations can be calculated by the difference in these two values...",
58,"TDM, FND, EVT",ALL,--ENDTC,--ENDTC must be greater than or equal to --DTC,--ENDTC ^=null,--ENDTC >= --DTC,SENDIG v3.1,4.4.3,Text,"If both --DTC and --ENDTC are collected, durations can be calculated by the difference in these two values...",
244.1,TDM,TX,TXPARMCD,"ENVTEMPU is the unit associated with the environmental temperature; only ""C"" or ""F"" is acceptable.","TXPARMCD = ""ENVTEMPU"" AND TXVAL ^= null","TXVAL = ""C"" OR TXVAL = ""F""",SENDIG v3.0,7.4.2,ENVTEMPU CDISC Notes,"ENVTEMPU: The units associated with the environmental temperature; only ""C"" or ""F"" is acceptable.",Condition format updated.
244.1,TDM,TX,TXPARMCD,"ENVTEMPU is the unit associated with the environmental temperature; only ""C"" or ""F"" is acceptable.","TXPARMCD = ""ENVTEMPU"" AND TXVAL ^= null","TXVAL = ""C"" OR TXVAL = ""F""",SENDIG v3.1,7.4.2,ENVTEMPU CDISC Notes,"The units associated with the environmental temperature; only ""C"" or ""F"" is acceptable.",Condition format updated.
213,TDM,TE,"ETCD, ELEMENT",ETCD and ELEMENT have a one-to-one relationship,,ETCD and ELEMENT have a one-to-one relationship,SENDIG v3.0,7.2.1.1,Assumption 2,Elements with different start and end rules are different Elements and must be represented as unique values in ELEMENT and ETCD,
213,TDM,TE,"ETCD, ELEMENT",ETCD and ELEMENT have a one-to-one relationship,,ETCD and ELEMENT have a one-to-one relationship,SENDIG v3.1,7.2.1.1,Assumption 2,Elements with different start and end rules are different Elements and must be represented as unique values in ELEMENT and ETCD,
24,SPC,"TA, TE, SE",ETCD,ETCD value limited to 8 characters.,,ETCD value length <= 8,SENDIG v3.0,4.2.1,Text,"ETCD (the companion to ELEMENT), SETCD (the short name of a specific Trial Set), and TSPARMCD
(the companion to TSPARM) are limited to 8 characters, but do not have special character restrictions.",
24,SPC,"TA, TE, SE",ETCD,ETCD value limited to 8 characters.,,ETCD value length <= 8,SENDIG v3.1,4.2.1,Text,"ETCD (the companion to ELEMENT), SETCD (the short name of a specific Trial Set), and TSPARMCD
(the companion to TSPARM) are limited to 8 characters, but do not have special character restrictions.",
210,FND,"MA, EG","MAEVAL, EGEVAL","--EVAL is used only for results that are subjective (e.g., assigned by a person or a group)",Result is not subjective,--EVAL = null,SENDIG v3.0,6.3.7 | 6.3.16,MAEVAL CDISC Notes | EGEVAL CDISC Notes,"EGEVAL: Role of the person who provided the evaluation. Used only for results that are subjective (e.g., assigned by a person or a group). Should be null for records that contain collected or derived data.",
176,FND,MA,ALL,Every subject examined at necropsy should have at least one record in the MA domain.,Subject examined at necropsy,USUBJID present in MA,SENDIG v3.0,6.3.7.1,Assumption 1.b,Every animal examined at necropsy should have at least one record in the MA domain,
176,FND,MA,ALL,Every subject examined at necropsy should have at least one record in the MA domain.,Subject examined at necropsy,USUBJID present in MA,SENDIG v3.1,6.3.7.1,Assumption 1.b,"Every subject examined at necropsy should have at least one record in the MA domain (e.g., the record could be NORMAL (in MAORRES) for MASPEC value of “ALL TISSUES,” implying all protocol-required tissues).",Cited guidance reference updated; no implementation impact.
235,TDM,TX,ARMCD,Every Trial Set should have only one ARMCD.,,"Each Trial Set must have a single TXPARMCD = ""ARMCD""",SENDIG v3.0,7.4.1.1,Assumption 6,"The ARMCD parameter should be used to associate each Trial Set with a Trial Arm as defined in the Trial Arms table. Each Trial Set should only have one ARMCD parameter, but more than one Trial Set may have the same value of the ARMCD parameter.",
235,TDM,TX,ARMCD,Every Trial Set should have only one ARMCD.,,"Each Trial Set must have a single TXPARMCD = ""ARMCD""",SENDIG v3.1,7.4.1.1,Assumption 6,"The ARMCD parameter should be used to associate each Trial Set with a Trial Arm as defined in the Trial Arms table. Each Trial Set should only have one ARMCD parameter, but more than one Trial Set may have the same value of the ARMCD parameter.",
59.1,"INT, EVT, FND",ALL,"--EVLINT, --ELTM, --DUR","--EVLINT, --ELTM, --DUR must be in ISO 8601 duration format, including the additional format that allows the representation of  ""negative"" intervals of time.
",,"--EVLINT, --ELTM, --DUR must be in ISO 8601 duration format, including the additional format that allows the representation of  ""negative"" intervals of time.",SENDIG v3.0,4.4.3,Text,"Other variables that represent durations or elapsed times include --EVLINT and --ELTM. These should be represented in accordance with the ISO 8601 standard. Both duration and duration units can be represented in a single --DUR variable, in accordance with the ISO 8601 standard as follows...For the purposes of data submission, an additional format is allowed to represent “negative” intervals of time (intervals of time preceding a reference point).",Updated cited guidance and modified rule.
59.1,"INT, EVT, FND",ALL,"--EVLINT, --ELTM, --DUR","--EVLINT, --ELTM, --DUR must be in ISO 8601 duration format, including the additional format that allows the representation of  ""negative"" intervals of time.
",,"--EVLINT, --ELTM, --DUR must be in ISO 8601 duration format, including the additional format that allows the representation of  ""negative"" intervals of time.",SENDIG v3.1,4.4.3,Text,"Duration is frequently used during a review; however, the duration timing variable (--DUR) should generally be used in a domain if it was collected in lieu of a start date/time (--DTC) and end date/time (--ENDTC). If both --DTC and --ENDTC are collected, durations can be calculated by the difference in these two values and need not be in the submission dataset. Durations and associated units can be provided in a single variable, in accordance with the ISO 8601 standard as follows...For the purposes of data submission, an additional format is allowed to represent “negative” intervals of time (intervals of time preceding a reference point).",Updated cited guidance and modified rule.
148,FND,ALL,--EXCLFL,"--EXCLFL value must either be ""Y"" or null",--EXCLFL ^= null,"--EXCLFL = ""Y""",SENDIG v3.0,6.3.1,BWEXCLFL CDISC Notes,"Y if the result should be excluded from all calculations, otherwise null.",
148,FND,ALL,--EXCLFL,"--EXCLFL value must either be ""Y"" or null",--EXCLFL ^= null,"--EXCLFL = ""Y""",SENDIG v3.1,6.3.1,BWEXCLFL CDISC Notes,"Y if the result should be excluded from all calculations, otherwise null.",
13,ALL,ALL,GEN,Expected variables must always be included in the dataset but can be null.,Variable Core Status = Expected,Variable present in dataset,SENDIG v3.0,4.1.3,Text,"An Expected variable is any variable necessary to make a record useful in the context of a specific domain. Columns for Expected variables must be present in each submitted dataset even if all values are null. Expected variables may contain some null values, but in most cases will not contain null values for every record.",
13,ALL,ALL,GEN,Expected variables must always be included in the dataset but can be null.,Variable Core Status = Expected,Variable present in dataset,SENDIG v3.1,4.1.3,Text,"An Expected variable is any variable necessary to make a record useful in the context of a specific domain. Columns for Expected variables must be present in each submitted dataset even if all values are null. Expected variables may contain some null values, but in most cases will not contain null values for every record.",
136,INT,EX,EXTRT,EXTRT is the treatment name only.,,EXTRT = treatment name only,SENDIG v3.0,6.1.1.1,Assumption 2,"EXTRT should only include the treatment name and should not include dosage, formulation, or other qualifying information.",
136,INT,EX,EXTRT,EXTRT is the treatment name only.,,EXTRT = treatment name only,SENDIG v3.1,6.1.1.1,Assumption 2.a,"EXTRT should include only the treatment name and should not include dosage, formulation, or other qualifying information.",Cited guidance reference updated; no implementation impact.
153,FND,BG,BGSTRESU,"For a given BGTEST, BGSTRESU should remain consistent throughout the course of the study regardless of the value in BGORRESU.",For a given BGTEST,BGSTRESU is consistent throughout the course of the study regardless of the value in BGORRESU,SENDIG v3.0,6.3.2.1,Assumption 3,"The BGORRESU for a subject may change over the course of the study, for example, g to kg, but the BGSTRESU should remain consistent throughout the course of the study.",
153,FND,BG,BGSTRESU,"For a given BGTEST, BGSTRESU should remain consistent throughout the course of the study regardless of the value in BGORRESU.",For a given BGTEST,BGSTRESU is consistent throughout the course of the study regardless of the value in BGORRESU,SENDIG v3.1,6.3.2.1,Assumption 3,"The BGORRESU may change over the course of the study, e.g., g to kg, but the BGSTRESU should remain consistent throughout the course of the study.",Cited guidance reference updated; no implementation impact.
NEW SEND RULE 320,FND,"MA, MI, TF",--DTC,"For a specimen collected or observed post mortem the --DTC in MA, MI, nd TF is populated with the date/time of the subject disposition from DS.",--DTC ^= null AND record refers to an observation or specimen collected post mortem,--DTC = DS.DSSTDTC,SENDIG v3.1,6.3.7 | 6.3.8 | 6.3.14,MADTC CDISC Notes | MIDTC CDISC Notes | TFDTC CDISC Notes,"For a specimen collected or observed post mortem, this is the date/time of subject disposition in ISO 8601 format.",New rule identified from cited guidance.
50,ALL,ALL,GEN,"For a variable identified in the SENDIG as being subject to CDISC published Controlled Terminology, the Codelist listed in the Define-XML document should properly reference the Controlled Terminology Codelist used.",CDISC published Controlled Terminology Codelist applies to a variable,The Define-XML document should properly reference the Controlled Terminology Codelist used.,SENDIG v3.0,4.3.3,Text,The controlled terminology or a link to the controlled terminology should be included in the data definition file wherever applicable. See the define.xml specification for details on including or referencing controlled terminology lists.,
50,ALL,ALL,GEN,"For a variable identified in the SENDIG as being subject to CDISC published Controlled Terminology, the Codelist listed in the Define-XML document should properly reference the Controlled Terminology Codelist used.",CDISC published Controlled Terminology Codelist applies to a variable,The Define-XML document should properly reference the Controlled Terminology Codelist used.,SENDIG v3.1,4.3.3,Text,The controlled terminology or a link to the controlled terminology should be included in the data definition file wherever applicable. See the define.xml specification for details on including or referencing controlled terminology lists.,
36,"INT, FND, EVT",ALL,"USUBJID, POOLID","For all records containing subject level or pool level data, USUBJID or POOLID is required.",,USUBJID ^=null OR POOLID ^=null,SENDIG v3.0,4.2.3,Text,"The unique subject identifier (USUBJID) or pool identifier (POOLID) is Required in all datasets containing
subject-level or pool-level data, respectively.",
36,"INT, FND, EVT",ALL,"USUBJID, POOLID","For all records containing subject level or pool level data, USUBJID or POOLID is required.",,USUBJID ^=null OR POOLID ^=null,SENDIG v3.1,4.2.3,Text,"The unique subject identifier (USUBJID) or pool identifier (POOLID) is Required in all datasets containing
subject-level or pool-level data, respectively.",
234,TDM,TX,TXPARMCD,For each Trial Set the Sponsor-Defined Group Code (SPGRPCD) should be provided.,,"Each Trial Set must have a TXPARMCD = ""SPGRPCD""",SENDIG v3.0,7.4.1.1,Assumption 3,Each Trial Set should have a SPGRPCD value assigned in TXPARMCD.,
234,TDM,TX,TXPARMCD,For each Trial Set the Sponsor-Defined Group Code (SPGRPCD) should be provided.,,"Each Trial Set must have a TXPARMCD = ""SPGRPCD""",SENDIG v3.1,7.2.1.1,Assumption 3,Each Trial Set should have a SPGRPCD in TXPARMCD with corresponding parameter value under TXVAL.,
NEW SEND RULE 292,FND,ALL,ALL,"For each unique planned time point (--TPT), there must be a one-to-one relationship between the values of --TPT and --TPTNUM. Uniqueness for these time points is determined by a combination of the domain, fixed reference point (--TPTREF), and, if present, category and/or subcategory (--CAT/--SCAT). Other variables, such as --TESTCD and --METHOD, may also be needed in some cases to define uniqueness. When this occurs, clarification should be provided as a comment to --TPTNUM in the define file.","Unique planned time point occurs relative to a fixed reference time point as determined by a combination of domain, --TPTREF, --CAT, --SCAT, --TESTCD,  --METHOD, or other variables as provided by the Sponsor in the define file as a comment to --TPTNUM",There must be a one-to-one relationship between the values of --TPT and --TPTNUM,SENDIG v3.1,4.4.7.2.2,Text,"For each unique planned time point (--TPT), there must be a one-to-one relationship between the values of --TPT and --TPTNUM. Uniqueness for these time points is determined by a combination of the domain, fixed reference point (--TPTREF), and, if present, category and/or subcategory (--CAT/--SCAT). Other variables, such as --TESTCD and --METHOD, may also be needed in some cases to define uniqueness. When this occurs, clarification should be provided as a comment to --TPTNUM in the define file.",New cited guidance.
NEW SEND RULE 290,FND,ALL,ALL,"For each unique planned time point (--TPT), there must be a one-to-one relationship between the values of --TPT and --TPTNUM. Uniqueness for these time points is determined by a combination of the domain, study day, and, if present, category and/or subcategory (--CAT/--SCAT). Other variables, such as --TESTCD and --METHOD, may also be needed in some cases to define uniqueness. When this occurs, clarification should be provided as a comment to --TPTNUM in the define file.","Unique planned time point occurs within a Study Day as determined by a combination of domain, study day, --CAT, --SCAT, --TESTCD,  --METHOD, or other variables as provided by the Sponsor in the define file",There must be a one-to-one relationship between the values of --TPT and --TPTNUM,SENDIG v3.1,4.4.7.2.1,Text,"For each unique planned time point (--TPT), there must be a one-to-one relationship between the values of --TPT and --TPTNUM. Uniqueness for these time points is determined by a combination of the domain, study day, and, if present, category and/or subcategory (--CAT/--SCAT). Other variables, such as --TESTCD and --METHOD, may also be needed in some cases to define uniqueness. When this occurs, clarification should be provided as a comment to --TPTNUM in the define file.",New cited guidance.
55,ALL,ALL,GEN,"For Permissible variables, the NY Codelist may be extended to include ""U"" and ""NA"" if these values are collected.  Note that these terms are now included in the CDISC published Controlled Terminology Codelist.  Also note that this rule can be superseded by rules in the CDISC notes restricting the use of the NY Codelist to a subset of the NY Codelist.",Variable = permissible and codelist is NY,"Variable = Y,N,U,or NA",SENDIG v3.0,4.3.5,Text,"Permissible values for variables with controlled terms of ""Y"" or ""N"" may be extended to include ""U"" or ""NA"" if it is the sponsor's practice to explicitly collect or derive values indicating ""Unknown"" or ""Not  applicable"" for that variable.",
55,ALL,ALL,GEN,"For Permissible variables, the NY Codelist may be extended to include ""U"" and ""NA"" if these values are collected.  Note that these terms are now included in the CDISC published Controlled Terminology Codelist.  Also note that this rule can be superseded by rules in the CDISC notes restricting the use of the NY Codelist to a subset of the NY Codelist.",Variable = permissible and codelist is NY,"Variable = Y,N,U,or NA",SENDIG v3.1,4.3.5,Text,"Permissible values for variables with controlled terms of ""Y"" or ""N"" may be extended to include ""U"" or ""NA"" if it is the sponsor's practice to explicitly collect or derive values indicating ""Unknown"" or ""Not  applicable"" for that variable.",
117,SPC,CO,IDVAR,"IDVAR identifies the variable in the parent dataset domain that is associated with the comment.  If the comment is a general comment not associated with a specific variable, IDVAR should be left blank.",Comment is a general comment not associated with a specific variable,IDVAR = null,SENDIG v3.0,5.2.1,IDVAR CDISC Notes,Identifying variable in the parent domain that identifies the record(s) to which the comment applies.,
117,SPC,CO,IDVAR,"IDVAR identifies the variable in the parent dataset domain that is associated with the comment.  If the comment is a general comment not associated with a specific variable, IDVAR should be left blank.",Comment is a general comment not associated with a specific variable,IDVAR = null,SENDIG v3.1,5.2.1,IDVAR CDISC Notes,"Variable in the parent dataset that identifies the record(s) to which the comment applies, which is contained in IDVAR.",Cited guidance reference updated; no implementation impact.
118,SPC,CO,IDVARVAL,IDVARVAL contains the value of the identifying record.  IDVARVAL should not be populated if IDVAR is blank.,IDVAR = null,IDVARVAL = null,SENDIG v3.0,5.2.1,IDVARVAL CDISC Notes,Used only when individual comments are related to domain records.  Cannot be populated if IDVAR is null.,
118,SPC,CO,IDVARVAL,IDVARVAL contains the value of the identifying record.  IDVARVAL should not be populated if IDVAR is blank.,IDVAR = null,IDVARVAL = null,SENDIG v3.1,5.2.1,IDVARVAL CDISC Notes,Used only when individual comments are related to domain records.  Cannot be populated if IDVAR is null.,
123.1,SPC,SE,ETCD,"If a particular period of time cannot be represented as one of the planned Elements, then UNPLAN is used as the value for ETCD and ELEMENT is left blank.",Element occurs that is not one of the planned elements,ETCD = UNPLAN ,SENDIG v3.1,5.3.1.1,Assumption 4 | Assumption 5,"If the sponsor decides that the subject’s experience for a particular period of time cannot be represented with one of the planned Elements, then that period of time should be represented as an unplanned Element.For unplanned Elements, ETCD should be populated with “UNPLAN”, ELEMENT should be left blank, and SEUPDES should be populated with a description of the unplanned Element.",Cited guidance change and plain text clarified.
253.1,REL,RELREC,"RELTYPE, USUBJID, POOLID, IDVARVAL","If a record is part of a domain-to-domain relationship, the variables USUBJID, POOLID, and IDVARVAL are null and the variable RELTYPE is populated with ""ONE"" or ""MANY"".",Record is part of a domain-to-domain relationship,"USUBJID, POOLID, and IDVARVAL are null AND (RELTYPE = ""ONE"" OR RELTYPE = ""MANY"")",SENDIG v3.1,8.2.1,Assumption 4,"Domain-to-domain relationships (USUBJID, POOLID, and IDVARVAL are null; RELTYPE is populated)",Versioned to reflect cited guidance change. 
NEW SEND RULE 286,REL,RELREC,"RELTYPE, USUBJID, POOLID, IDVARVAL","If a record is part of a record-to-record relationship, either USUBJID or POOLID is populated,  IDVARVAL is populated, and the variable RELTYPE is null.",Record is part of a record-to-record relationship,(USUBJID OR POOLID is ^= null) AND IDVARVAL ^= null AND RELTYPE = null,SENDIG v3.1,8.2.1,Assumption 3,"Record-to-record relationships (USUBJID or POOLID, and IDVARVAL are populated; RELTYPE is null)",New cited guidance.
179,FND,"MA, MI",--SEV,"If a severity was received or collected, --SEV must be populated.",Severity exists for value,--SEV ^=null,SENDIG v3.0,6.3.7.1 | 6.3.8.1,Assumption 5.b.ii. | Assumption 3.d.ii,"If a severity was received or collected, MASEV must be populated.; If a severity was received or collected, MISEV must be populated",
179,FND,"MA, MI",--SEV,"If a severity was received or collected, --SEV must be populated.",Severity exists for value,--SEV ^=null,SENDIG v3.1,6.3.7.1 | 6.3.8.1,Assumption 5.b.v. | Assumption 4.b.,"If a severity was received or collected, MASEV must be populated.; When MIORRES is populated, there must be an entry in MISTRESC. Other relevant components of the MIORRES finding must be parsed into one or more of these variables: MISEV, MIDISTR, MICHRON, and the Supplemental Qualifier MIRESMOD, which are used in combination to standardize the value in MIORRES.",
NEW SEND RULE 315,INT,EX,EXTRT,"If a single control group is used for multiple treatment groups, treatment values in EXTRT should be separated with a pipe (|).",A single control group is used for multiple treatment groups,Treatment values in EXTRT should be separated with a pipe (|),SENDIG v3.1,6.1.1.1,Assumption 2.b,A single control for multiple compounds should contain values separated with a pipe (|).,New rule identified from cited guidance.
NEW SEND RULE 316,INT,EX,EXLOT,"If a subject is treated sequentially with different lots, then a new record must be created for each lot number administered.",A subject is treated sequentially with different lots,A record exists for each lot number administered,SENDIG v3.1,6.1.1.1,Assumtion 3,"If a subject is treated sequentially with different lots, then a new record must be created for each lot number given.",New rule identified from cited guidance.
38,ALL,ALL,USUBJID,If a subject is used in multiple studies the same USUBJID is used in all studies,The same subject is present in the  DM dataset for multiple studies,The same USUBJID is used in all studies,SENDIG v3.0,4.2.3,Text,"Additionally, the same animal that participates in multiple studies (when this is known) must be assigned the same USUBJID value in all studies.",
38,ALL,ALL,USUBJID,If a subject is used in multiple studies the same USUBJID is used in all studies,The same subject is present in the  DM dataset for multiple studies,The same USUBJID is used in all studies,SENDIG v3.1,4.2.3,Text,"Additionally, the same animal that participates in multiple studies (when this is known) must be assigned the same USUBJID value in all studies.",
186,FND,MI,"MIORRES, MISTAT","If a tissue that was scheduled for examination but not examined was not examined, the record will have a blank value in MIORRES and MISTAT will be ""NOT DONE"".",Scheduled tissue was not examined,"MIORRES = null AND MISTAT = ""NOT DONE""",SENDIG v3.0,6.3.8.1,Assumption 3.b.i,"If an organ (scheduled for histopathology or introduced later because of adverse findings) for some reason was not examined, the record will have a blank value in MIORRES and MISTAT will be ""NOT DONE"". Failure to adhere to this assumption will preclude the generation of the tumor dataset described in the FDA Study Data Specification applicable for carcinogenicity studies.",
186,FND,MI,"MIORRES, MISTAT","If a tissue that was scheduled for examination but not examined was not examined, the record will have a blank value in MIORRES and MISTAT will be ""NOT DONE"".",Scheduled tissue was not examined,"MIORRES = null AND MISTAT = ""NOT DONE""",SENDIG v3.1,6.3.8.1,Assumption 4.h.i,"If an organ (scheduled for histopathology or introduced later because of adverse findings) for some reason was not examined, the record will have a blank value in MIORRES and MISTAT will be ""NOT DONE"". ",Cited guidance reference updated; no implementation impact.
95.1,ALL,ALL; not TS or CO,ALL,"If a variable should be populated with a text string longer than 200 characters, the text must be split.  When splitting the text string, the text should be split between words to improve readability.  In domains other than TS and CO the text should be split by storing the portion of the text string longer than 200 characters and presented in the SUPP-- dataset.  Within the SUPP-- dataset the text string will be split into additional 200 character text strings as needed.  The QNAM in the SUPP-- dataset will use the variable name with an appended sequential one-digit number, beginning with 1.  Please note other variable length limits may supersede this rule.",Variable value length > 200 characters and domain is not TS or CO,"SUPP-- contains each additional string, up to 200 characters in length, and QNAM = variable name with appended sequential one-digit number beginning from 1.",SENDIG v3.1,4.5.2.2,Text,"The first 200 characters of text should be submitted in the standard domain variable, and each additional 200 characters of text should be represented as a record in the SUPP-- dataset (see Section 8). In this dataset, the value for QNAM should contain a sequential variable name, which is formed by appending a one-digit integer, beginning with 1, to the original standard domain variable name. When splitting a text string into several records, the text should be split between words to improve readability.",Versioned to reflect cited guidance change. 
123,SPC,SE,ETCD,"If an element differs significantly from the planned element to the extent that it should be considered a new element, UNPLAN is used as the value for ETCD and ELEMENT is left blank.",Element occurs that is not one of the planned elements,ETCD = UNPLAN,SENDIG v3.0,5.3.1,ETCD CDISC Notes,"If an encountered Element differs from the planned Element to the point that it is considered a new Element, then use UNPLAN as the value for ETCD to represent the Element.",
228,TDM,TA,TATRANS,"If an Element does not end with a decision that could lead to a shortened path within the Arm, then TATRANS will be null.",Element does not end with a decision,TATRANS = null,SENDIG v3.0,7.3.1.1,Assumption 9,"TATRANS describes the decision points that may lead to a shortened path within an Arm, for example if some Elements within the Arm are skipped. If an Element does not end with a decision that could lead to a shortened path within the Arm, then TATRANS will be null. If there is a decision being represented within the value of TATRANS, the TATRANS rule should be populated as an 'if-then' statement (e.g., ""If condition X is true, then go to Element with TAETORD = Z"").",
228,TDM,TA,TATRANS,"If an Element does not end with a decision that could lead to a shortened path within the Arm, then TATRANS will be null.",Element does not end with a decision,TATRANS = null,SENDIG v3.1,7.3.1.1,Assumption 11,"TATRANS describes the decision points that may lead to a shortened path within an Arm, e.g. if some Elements within the Arm are skipped. If an Element does not end with a decision that could lead to a shortened path within the Arm, then TATRANS will be null. If there is a decision being represented within the value of TATRANS, the TATRANS rule should be populated as an ‘if-then’ statement (e.g., “If condition X is true, then go to Element with TAETORD = Z”).",Cited guidance reference updated; no implementation impact.
107,SPC,DM,ARMCD,"If any arm is defined in TA, ARMCD must be populated in DM",TA exists,DM.ARMCD ^= null,SENDIG v3.0,5.1.1,ARMCD CDISC Notes,ARMCD; Should be populated when Arms have been defined in the TA domain.,
107,SPC,DM,ARMCD,"If any arm is defined in TA, ARMCD must be populated in DM",TA exists,DM.ARMCD ^= null,SENDIG v3.1,5.1.1,ARMCD CDISC Notes,ARMCD; Should be populated when Arms have been defined in the TA domain.,
NEW SEND RULE 304,ALL,ALL,ALL,If CDISC published Controlled Terminology applies and the collected value is synonymous with a CDISC Submission Value; the synonymous term must be mapped to the CDISC Submission Value. ,CDISC published Controlled Terminology applies AND collected value is synonymous with a CDISC Submission Value ,The synonymous term must be mapped to the CDISC Submission Value. ,SENDIG v3.1,4.3.7,Text,"When there are multiple terms that express the same base concept, SEND CT provides the Preferred Term to include in a submission, and thus the term to which the synonymous term(s) should be mapped.",New rule identified from cited guidance.
53,ALL,ALL,GEN,"If Controlled Terminology is not used, values that are collected as codes should be decoded in the dataset to avoid ambiguity for submission reviewers.",,"Controlled terminology, if applicable, or decoded text is presented in the dataset.",SENDIG v3.0,4.3.4,Text,"Controlled terminology or decoded text should be used instead of arbitrary number codes in order to reduce
ambiguity for submission reviewers.",
53,ALL,ALL,GEN,"If Controlled Terminology is not used, values that are collected as codes should be decoded in the dataset to avoid ambiguity for submission reviewers.",,"Controlled terminology, if applicable, or decoded text is presented in the dataset.",SENDIG v3.1,4.3.4,Text,Controlled terminology or decoded text should be used instead of arbitrary number or text codes in order to reduce ambiguity for submission reviewers.,
52,ALL,ALL,GEN,"If Controlled Terminology is used, the Define-XML document should include the Controlled Terminology or a reference to the Controlled Terminology.",Controlled Terminology used,Controlled Terminology is included in the Define-XML document OR a reference to external Controlled Terminology is included in the Define-XML document,SENDIG v3.0,4.3.3,Text,The controlled terminology or a link to the controlled terminology should be included in the data definition file wherever applicable. See the define.xml specification for details on including or referencing controlled terminology lists.,
52,ALL,ALL,GEN,"If Controlled Terminology is used, the Define-XML document should include the Controlled Terminology or a reference to the Controlled Terminology.",Controlled Terminology used,Controlled Terminology is included in the Define-XML document OR a reference to external Controlled Terminology is included in the Define-XML document,SENDIG v3.1,4.3.3,Text,The controlled terminology or a link to the controlled terminology should be included in the data definition file wherever applicable. See the define.xml specification for details on including or referencing controlled terminology lists.,
89,FND,ALL,"--ORRES, --STRESC",If data are collected using arbitrary coded values --ORRES should be populated with the decoded values.,Data collected using a code,--ORRES does not contain coded values,SENDIG v3.0,4.5.1.1,Text,"When the original measurement or finding is a selection from a defined codelist, in general, the --ORRES and --STRESC variables contain results in decoded format, that is, the textual interpretation of whichever code was selected from the codelist.",
89,FND,ALL,"--ORRES, --STRESC",If data are collected using arbitrary coded values --ORRES should be populated with the decoded values.,Data collected using a code,--ORRES does not contain coded values,SENDIG v3.1,4.5.1.1,Text,"When the original measurement or finding is a selection from a defined codelist, in general, the --ORRES and --STRESC variables contain results in decoded format, that is, the textual interpretation of whichever code was selected from the codelist.",
90,FND,ALL,"--ORRES,  --STRESC, --STRESN",If data is collected using a codelist and the code values are valuable for performing statistical analysis --ORRES should be populated with the decoded values and both --STREC and --STRESN should be populated with the code.,Data collected using a codelist and coded values are used to perform statistical analysis,"--ORRES = decoded value; AND --STRESC,--STRESN = code",SENDIG v3.0,4.5.1.1,Text,"In some cases the code values in the codelist are statistically meaningful standardized values or scores, which are defined by sponsors or by valid methodologies. The --ORRES variables will contain the decoded format; whereas the --STRESC variables, as well as the --STRESN variables, will contain the standardized values or scores.",
90,FND,ALL,"--ORRES,  --STRESC, --STRESN",If data is collected using a codelist and the code values are valuable for performing statistical analysis --ORRES should be populated with the decoded values and both --STREC and --STRESN should be populated with the code.,Data collected using a codelist and coded values are used to perform statistical analysis,"--ORRES = decoded value; AND --STRESC,--STRESN = code",SENDIG v3.1,4.5.1.1,Text,"In some cases the code values in the codelist are statistically meaningful standardized values or scores, which are defined by sponsors or by valid methodologies. The --ORRES variables will contain the decoded format; whereas the --STRESC variables, as well as the --STRESN variables, will contain the standardized values or scores.",
NEW SEND RULE 319,FND,"CL, LB",--NOMDY,"If --DTC and --DY were not collected, --NOMDY must be populated.",--DTC = null AND --DY = null,--NOMDY ^= null,SENDIG v3.1,6.3.3.1 ,Assumption 5.a | Assumption 4.a,"Information about the time of collection for any observation is needed to identify the record. CLDTC is Expected, and the data will, in most cases, contain CLDTC, CLDY, or both. However, some studies (e.g., legacy studies) may not collect CLDTC or CLDY; in those cases, CLNOMDY must be populated.",New rule identified from cited guidance.
73,ALL,ALL,"--DY, --STDY, --ENDY",If --DTC is on or after RFSTDTC then --DY = (date portion of --DTC) - (date portion of RFSTDTC) + 1,--DTC is on or after RFSTDTC,--DY = (date portion of --DTC) - (date portion of RFSTDTC) + 1 if --DTC is on or after RFSTDTC,SENDIG v3.0,4.4.4,Text,"All Study Day values are integers. Thus, to calculate Study Day:
--DY = (date portion of --DTC) - (date portion of RFSTDTC) + 1 if --DTC is on or after RFSTDTC",
73,ALL,ALL,"--DY, --STDY, --ENDY",If --DTC is on or after RFSTDTC then --DY = (date portion of --DTC) - (date portion of RFSTDTC) + 1,--DTC is on or after RFSTDTC,--DY = (date portion of --DTC) - (date portion of RFSTDTC) + 1 if --DTC is on or after RFSTDTC,SENDIG v3.1,4.4.4,Text,"All Study Day values are integers. Thus, to calculate Study Day:
--DY = (date portion of --DTC) - (date portion of RFSTDTC) + 1 if --DTC is on or after RFSTDTC",
74,ALL,ALL,"--DY, --STDY, --ENDY",If --DTC precedes RFSTDTC then --DY = (date portion of --DTC) - (date portion of RFSTDTC),--DTC precedes RFSTDTC,--DY = (date portion of --DTC) - (date portion of RFSTDTC) if --DTC precedes RFSTDTC,SENDIG v3.0,4.4.4,Text,"All Study Day values are integers. Thus, to calculate Study Day:
--DY = (date portion of --DTC) - (date portion of RFSTDTC) if --DTC precedes RFSTDTC",
74,ALL,ALL,"--DY, --STDY, --ENDY",If --DTC precedes RFSTDTC then --DY = (date portion of --DTC) - (date portion of RFSTDTC),--DTC precedes RFSTDTC,--DY = (date portion of --DTC) - (date portion of RFSTDTC) if --DTC precedes RFSTDTC,SENDIG v3.1,4.4.4,Text,"All Study Day values are integers. Thus, to calculate Study Day:
--DY = (date portion of --DTC) - (date portion of RFSTDTC) if --DTC precedes RFSTDTC",
133.1,INT,EX,EXLOT,"If during a constant dosing interval a treatment contains more than one lot of test article (i.e., mixed lots, produced by the mixing of more than one lot of the test article into one solution, suspension, or dietary food concentration), EXLOT should be populated with each lot identifier, separated by a semicolon (“Lot A;Lot B"").",If during a constant dosing interval a treatment contains more than one lot of test article ,"EXLOT contains each lot identifier, separated by "";""",SENDIG v3.0,"6.1.1
",EXLOT CDISC Notes,"Lot Number(s) or Batch Number(s) of the EXTRT test article. If mixed lots of the test article are administered during the same constant dosing interval, this should be represented as “Lot A;Lot B.” Mixed lots are produced by the mixing of Lots a and B of the test article into one solution, suspension, or dietary food concentration.",Correction.
133.1,INT,EX,EXLOT,"If during a constant dosing interval a treatment contains more than one lot of test article (i.e., mixed lots, produced by the mixing of more than one lot of the test article into one solution, suspension, or dietary food concentration), EXLOT should be populated with each lot identifier, separated by a semicolon (“Lot A;Lot B"").",If during a constant dosing interval a treatment contains more than one lot of test article ,"EXLOT contains each lot identifier, separated by "";""",SENDIG v3.1,"6.1.1
",EXLOT CDISC Notes,"Lot Number(s) or Batch Number(s) of the EXTRT test article. If mixed lots of the test article are administered during the same constant dosing interval, this should be represented as “Lot A;Lot B.” Mixed lots are produced by the mixing of Lots a and B of the test article into one solution, suspension, or dietary food concentration.",Correction.
124.1,SPC,SE,ELEMENT,"If ETCD is UNPLAN, the ELEMENT name is left blank.","ETCD = ""UNPLAN""",ELEMENT = null,SENDIG v3.0,5.3.1,ELEMENT CDISC Notes,"If ETCD has a value of UNPLAN, then Element should be blank.",Conditon format updated.
124.1,SPC,SE,ELEMENT,"If ETCD is UNPLAN, the ELEMENT name is left blank.","ETCD = ""UNPLAN""",ELEMENT = null,SENDIG v3.1,5.3.1.1,Assumption 5,"For unplanned Elements, ETCD should be populated with “UNPLAN”, ELEMENT should be left blank, and SEUPDES should be populated with a description of the unplanned Element.",Conditon format updated. Updated cited guidance.
NEW SEND RULE 314,INT,EX,EXDOSTXT,If EXDOSTXT is populated EXDOSE should not be populated.,EXDOSTXT ^= null,EXDOSE = null,SENDIG v3.1,6.1.1,EXDOSTXT CDISC Notes,"If the amount of treatment administered cannot be represented as a number and populated in EXDOSE, this field is used to describe the amount of treatment administered.",New rule identified from cited guidance.
NEW SEND RULE 340,ALL,ALL,GEN,"If expected variables in a domain are all null, a comment should be included in the Define-XML document to explain why all records are null.",Variable Core Status = Expected and are null for all records,The Define-XML document includes a comment to explain why all records are null.,SENDIG v3.1,4.1.3,Text,"When no data exist for an Expected variable in the whole dataset, a null column should still be included in the dataset, and a comment should be included in the data definition file to explain the absence of data in the entire column.",Replaces SEND Rule 14
14,ALL,ALL,GEN,"If expected variables in a domain are all null, a comment should be included in the Define-XML document to state that data were not collected.",Variable Core Status = Expected and data not collected for any subject,The Define-XML document includes a comment stating the data were not collected.,SENDIG v3.0,4.1.3,Text,"However, when no data exist for an Expected variable, a null column should still be included in the dataset, and a comment should be included in the data definition file to state that data was not collected.",Replaced by SEND Rule 340 in SENDIG v3.1 and SENDIG v3.1.1.
41,ALL,ALL,GEN,"If extending a Controlled Terminology list, the case-sensitivity convention of the list should be followed.",Controlled Terminology list exists for variable and Controlled Terminology list is extended,Extended Controlled Terminology term for variable matches the case-sensitivity convention of the Controlled Terminology list being extended,SENDIG v3.0,4.2.4 | 4.3.2,Text,"When extending a controlled terminology list, the case-sensitivity convention of that list should be followed.",
41,ALL,ALL,GEN,"If extending a Controlled Terminology list, the case-sensitivity convention of the list should be followed.",Controlled Terminology list exists for variable and Controlled Terminology list is extended,Extended Controlled Terminology term for variable matches the case-sensitivity convention of the Controlled Terminology list being extended,SENDIG v3.1,4.2.4 | 4.3.2,Text,"When extending a controlled terminology list, the case-sensitivity convention of that list should be followed.",
173,FND,LB,"LBTOX, LBTOXGR","If LBTOXGR or LBTOX are used; the sponsor is expected to provide the name of the scale and version used to map the terms, utilizing the Define-XML document external codelist attributes.",LBTOXGR ^=null OR LBTOX ^=null,Define-XML document contains the name of the scale and version used to map the terms,SENDIG v3.0,6.3.6,LBTOX CDISC Notes | LBTOXGR CDISC Notes,"LBTOXGR: Records toxicity grade value using a standard toxicity scale (such as the NCI CTCAE). Value should contain valid numbers only. The sponsor is expected to provide the name of the scale and version used to map the terms, utilizing the data definition file external codelist attributes.; LBTOX: Description of toxicity quantified by LBTOXGR. The sponsor is expected to provide the name of the scale and version used to map the terms, utilizing the data definition file external codelist attributes.",
173,FND,LB,"LBTOX, LBTOXGR","If LBTOXGR or LBTOX are used; the sponsor is expected to provide the name of the scale and version used to map the terms, utilizing the Define-XML document external codelist attributes.",LBTOXGR ^=null OR LBTOX ^=null,Define-XML document contains the name of the scale and version used to map the terms,SENDIG v3.1,6.3.6,LBTOX CDISC Notes | LBTOXGR CDISC Notes,"LBTOXGR: Records toxicity grade value using a standard toxicity scale (such as the NCI CTCAE). If value is from a numeric scale, represent only the number (e.g., “2” and not “Grade 2”). The sponsor is expected to provide the name of the scale and version used to map the terms, utilizing the data definition file external codelist attributes.; LBTOX: Description of toxicity quantified by LBTOXGR. The sponsor is expected to provide the name and version of the scale used to map the terms, utilizing the data definition file external codelist attributes.",Cited guidance reference updated; no implementation impact.
197,FND,PP,PPSPEC,"If multiple specimen types are used for a calculation (e.g., serum and urine for creatinine clearance), then this field should be left blank.",Multiple specimens are used,PPSPEC = null,SENDIG v3.0,6.3.12,PPSPEC CDISC Notes,"PPSPEC: Defines the type of specimen used for a measurement. If multiple specimen types are used for a calculation (e.g., serum and urine for creatinine clearance), then this field should be left blank.",Replaced by SEND Rule 282 in SENDIG v3.1 and SENDIG v3.1.1.
NEW SEND RULE 282,FND,PP,PPSPEC,"If multiple specimen types are used for a calculation (e.g., serum and urine for creatinine clearance), then this field should be populated with values from the (SPEC) Controlled Terminology codelist delimited by a semicolon.",Multiple specimens are used,"PPSPEC should consist of values from (SPEC) delimited by "";""",SENDIG v3.1,6.3.12,PPSPEC CDISC Notes,"Defines the type of specimen used for a measurement. Examples: SERUM, PLASMA, URINE. If multiple specimen types are used for a calculation (e.g., serum and urine for creatinine clearance), then refer to Section 4.3.6.2 for guidance on how to populate. ",Replaces SEND Rule 197
57,FND,"MA, MI, OM, LB, TF","--LAT, --DIR, --PORTOT","If multiple terms are needed within a single variable, each contributing term should be included in its CDISC published Controlled Terminology submission value format and delineated from other terms by a semicolon "";"" (e.g., VENTRAL;SURFACE)","Variable is  --LAT, --DIR, or --PORTOT and multiple terms are combined in a single variable","--LAT, --DIR, or --PORTOT in CDISC published Controlled Terminology submission value format are included separated by "";""",SENDIG v3.0,4.3.6.2,Text,"A specimen may be qualified by several variables, these include laterality (--LAT), directionality (--DIR), and portion or totality of specimen (--PORTOT) terms. When multiple terms are needed within a single variable, each contributing term should be included in its controlled terminology submission value format and delimited from other terms by a semicolon.",
69,ALL,ALL,GEN,"If neither the date or date/time are available, the date/time variable is not populated.",No date or date/time is available,SDTM date/time variable = null,SENDIG v3.0,4.4.2,Text,If the date and time values are completely missing the SDTM date field should be null.,
69,ALL,ALL,GEN,"If neither the date or date/time are available, the date/time variable is not populated.",No date or date/time is available,SDTM date/time variable = null,SENDIG v3.1,4.4.2,Text,If the date and time values are completely missing the SDTM date field should be null.,
134,INT,EX,EXLOT,"If no test article (as described in EXTRT) is administered (i.e., EXDOSE is 0), EXLOT is null.","Test article, as described in EXTRT, is not administered (i.e., EXDOSE is 0)",EXLOT = null,SENDIG v3.0,6.1.1,EXLOT CDISC Notes,"If no test article was administered, EXLOT should be null.",
134,INT,EX,EXLOT,"If no test article (as described in EXTRT) is administered (i.e., EXDOSE is 0), EXLOT is null.","Test article, as described in EXTRT, is not administered (i.e., EXDOSE is 0)",EXLOT = null,SENDIG v3.1,6.1.1,EXLOT CDISC Notes,"If no test article was administered, EXLOT should be null.",
42,ALL,ALL,GEN,If no value exists the missing value must be represented by a null.,No value exists,=null,SENDIG v3.0,4.2.5,Text,Missing values for individual data items should be represented by nulls.,
42,ALL,ALL,GEN,If no value exists the missing value must be represented by a null.,No value exists,=null,SENDIG v3.1,4.2.5,Text,Missing values for individual data items should be represented by nulls.,
92,FND,ALL,QNAM,"If numeric data are collected with characters and it is necessary to provide a numeric equivalent for the purpose of calculations, these data should be supplied in a SUPP--dataset using the QNAM ""CALCN"" and QLABEL ""Numeric Interpretation for Calculations"".  The units for these data values must be the same as those presented in --STRESU.",Numeric equivalent of numeric data collected with characters is needed for calculations,--STRESN = null AND SUPP-- exists where QNAM = CALCN; QLABEL = Numeric Interpretion for Calculations; units = --STRESU,SENDIG v3.0,4.5.1.1,Text,"Occasionally data that are intended to be numeric are collected with characters attached that cause the character-to numeric conversion to fail. For example, numeric cell counts in the source data may be specified with a greater than (>) or less than (<) sign attached (e.g., >10,000 or <1  ... If it is necessary to provide a numeric equivalent to these results for the purposes of calculation (analysis), this data should be supplied in a SUPP-- dataset. The Supplemental Qualifier record should be linked to the record that contains the non-numeric --ORRES value, with a QNAM value of --CALCN, a QLABEL of ""Numeric Interpretation for Calculations"", and QVAL equal to the value used by the sponsor for calculations. The units of this value should be the same as the standardized units in --STRESU.",
92,FND,ALL,QNAM,"If numeric data are collected with characters and it is necessary to provide a numeric equivalent for the purpose of calculations, these data should be supplied in a SUPP--dataset using the QNAM ""CALCN"" and QLABEL ""Numeric Interpretation for Calculations"".  The units for these data values must be the same as those presented in --STRESU.",Numeric equivalent of numeric data collected with characters is needed for calculations,--STRESN = null AND SUPP-- exists where QNAM = CALCN; QLABEL = Numeric Interpretion for Calculations; units = --STRESU,SENDIG v3.1,4.5.1.1,Text,"Occasionally data that are intended to be numeric are collected with characters attached that cause the character-to-numeric conversion to fail. For example, numeric cell counts in the source data may be specified with a greater than (>) or less than (<) sign attached (e.g., >10,000 or <1). These values should have a null result in the --STRESN column, since only numeric values can be represented in the --STRESN field. If it is necessary to provide a numeric equivalent to these results for the purposes of calculation (analysis), this data should be supplied in a SUPP-- dataset. The Supplemental Qualifier record should be linked to the record that contains the non-numeric --ORRES value, with a QNAM value of --CALCN, a QLABEL of “Numeric Interpretation for Calculations,” and  QVAL equal to the value used by the sponsor for calculations. The units of this value should be the same as the standardized units in --STRESU.",Cited guidance reference updated; no implementation impact.
91,FND,ALL,--STRESN,"If numeric data are collected with characters attached (e.g., >, <) no data value should be populated in --STRESN.",Numeric data collected with characters attached,--STRESN = null,SENDIG v3.0,4.5.1.1,Text,"Occasionally data that are intended to be numeric are collected with characters attached that cause the character-to numeric conversion to fail. For example, numeric cell counts in the source data may be specified with a greater than (>) or less than (<) sign attached (e.g., >10,000 or <1). These values should have a null result in the --STRESN column since only numeric values can be represented in the --STRESN field.",
91,FND,ALL,--STRESN,"If numeric data are collected with characters attached (e.g., >, <) no data value should be populated in --STRESN.",Numeric data collected with characters attached,--STRESN = null,SENDIG v3.1,4.5.1.1,Text,"Occasionally data that are intended to be numeric are collected with characters attached that cause the character-to numeric conversion to fail. For example, numeric cell counts in the source data may be specified with a greater than (>) or less than (<) sign attached (e.g., >10,000 or <1). These values should have a null result in the --STRESN column since only numeric values can be represented in the --STRESN field.",
155,FND,BG,"BGEXCLFL, BGREASEX","If one of the two body weights (BW) needed for the calculation has an exclusion flag, then the corresponding BG values should have the exclusion flag set. The BGREASEX should be ""EXCLUDED BODY WEIGHT"".",BWEXCLFL ^= null for one of the two body weights needed for the calculation,"BGEXCLFL ^= null AND BGREASEX = ""EXCLUDED BODY WEIGHT""",SENDIG v3.0,6.3.2.1,Assumption 4,"If one of the two body weights (BW) needed for the calculation has an exclusion flag, then the corresponding BG values should have the exclusion flag set. The BGREASEX should be ""EXCLUDED BODY WEIGHT"".",
155,FND,BG,"BGEXCLFL, BGREASEX","If one of the two body weights (BW) needed for the calculation has an exclusion flag, then the corresponding BG values should have the exclusion flag set. The BGREASEX should be “EXCLUDED BODY WEIGHT”.",BWEXCLFL ^= null for one of the two body weights needed for the calculation,BGEXCLFL ^= null AND BGREASEX = “EXCLUDED BODY WEIGHT”,SENDIG v3.1,6.3.2.1,Assumption 4,"If one of the two body weights needed for the calculation is missing, BGSTAT should be “NOT DONE,” and BGREASND could be “MISSING BODY WEIGHT.”",Cited guidance reference updated; no implementation impact.
154,FND,BG,--STAT,"If one of the two body weights needed for the calculation is missing, BGORRES should be null and BGSTAT should be ""NOT DONE"".",One or both of the two body weights needed for the calculation is missing,"BGORRES = null AND BGSTAT = ""NOT DONE"".",SENDIG v3.0,6.3.2.1,Assumption 4,"If one of the two body weights needed for the calculation is missing, BGSTAT should be ""NOT DONE"", and BGREASND could be ""MISSING BODY WEIGHT"".",
154,FND,BG,--STAT,"If one of the two body weights needed for the calculation is missing, BGORRES should be null and BGSTAT should be ""NOT DONE"".",One or both of the two body weights needed for the calculation is missing,"BGORRES = null AND BGSTAT = ""NOT DONE"".",SENDIG v3.1,6.3.2.1,Assumption 4,"If one of the two body weights needed for the calculation is missing, BGSTAT should be ""NOT DONE"", and BGREASND could be ""MISSING BODY WEIGHT"".",
144,FND,NOT (SC),--STAT,"If --ORRES is not populated, --STAT must be populated",--ORRES = null,--STAT  ^= null,SENDIG v3.0,6.3.1,BWSTAT CDISC Notes,Used to indicate when a test is not done or result is missing. Should be null if a result exists in BWORRES.,
144,FND,NOT (SC),--STAT,"If --ORRES is not populated, --STAT must be populated",--ORRES = null,--STAT  ^= null,SENDIG v3.1,6.3.1,BWSTAT CDISC Notes,Used to indicate when a test is not done or result is missing. Should be null if a result exists in BWORRES.,
145,FND,NOT (SC),--STAT,"If --ORRES is populated, --STAT must not be populated",--ORRES ^= null,--STAT = null,SENDIG v3.0,6.3.1,BWSTAT CDISC Notes,Used to indicate when a test is not done or result is missing. Should be null if a result exists in BWORRES.,
145,FND,NOT (SC),--STAT,"If --ORRES is populated, --STAT must not be populated",--ORRES ^= null,--STAT = null,SENDIG v3.1,6.3.1,BWSTAT CDISC Notes,Used to indicate when a test is not done or result is missing. Should be null if a result exists in BWORRES.,
132,"INT, FND",ALL,"USUBJID, POOLID","If POOLID is populated, USUBJID must be null.",POOLID ^=null,USUBJID = null,SENDIG v3.0,6.1.1,USUBJID CDISC Notes,Either USUBJID or POOLID must be populated.,
132,"INT, FND",ALL,"USUBJID, POOLID","If POOLID is populated, USUBJID must be null. ",POOLID ^=null,USUBJID = null,SENDIG v3.1,8.5,Text,"POOLID and USUBJID are mutually exclusive. When POOLID is used, USUBJID will be null and if a USUBJID is recorded, the POOLID will be null.",Cited guidance reference updated; no implementation impact.
225,SPC,DM,ARM,"If present, the ARM value in DM for a given subject must exist in TA.",DM.ARM ^= null,DM.ARM exists in TA.ARM,SENDIG v3.0,7.3.1.1,Assumption 2,"ARM and ARMCD values in DM and TA must coincide (ARM and ARMCD are defined as the planned trial arms in TA, and the planned arms are then applied to subjects in DM).",
225,SPC,DM,ARM,"If present, the ARM value in DM for a given subject must exist in TA.",DM.ARM ^= null,DM.ARM exists in TA.ARM,SENDIG v3.1,7.3.1.1,Assumption 2,"ARM and ARMCD values in DM and TA must coincide (ARM and ARMCD are defined as the planned trial arms in TA, and the planned arms are then applied to subjects in DM).",Cited guidance reference updated; no implementation impact.
63,ALL,ALL,--TPTREF,If --RFTDTC is not null then --TPTREF is not null,--RFTDTC ^= null,--TPTREF ^= null,SENDIG v3.0,4.4.7,Text,"If an --RFTDTC entry is used, then the --TPTREF should be provided.",
63,ALL,ALL,--TPTREF,If --RFTDTC is not null then --TPTREF is not null,--RFTDTC ^= null ,--TPTREF ^= null,SENDIG v3.1,4.4.7.2.2,Text,"Since the --RFTDTC represents the actual date/time of the fixed reference point (--TPTREF), the --TPTREF should be provided whenever --RFTDTC is populated.",Cited guidance reference updated; no implementation impact.
NEW SEND RULE 306,SPC,DM,RFXENDTC,"If RFXENDTC is populated it is equal to the latest (i.e., absolute last) value of EXENDTC.  If EXENDTC is not populated RFXENDTC is equal to the latest (i.e., absolute last) value of EXSTDTC if EXENDTC was not collected or is missing.",RFXENDTC ^= null,RFXENDTC value = date/time of absolute latest value of test article exposure (as represented in EXENDTC or EXSTDTC for that subject).,SENDIG v3.1,5.1.1,RFXENDTC CDISC Notes,"Last date/time of exposure to any protocol-specified treatment or therapy, equal to the latest value of EXENDTC (or the latest value of EXSTDTC if EXENDTC was not collected or is missing).",New rule identified from cited guidance.
NEW SEND RULE 305,SPC,DM,RFXSTDTC,"If RFXSTDTC is populated the value should be equal to the earliest (i.e., absolute first) value of EXSTDTC for that subject or the EXSTDTC for the pool to which that subject belongs.",RFXSTDTC ^= null,RFXSTDTC value = earliest EXSTDTC value for that subject ,SENDIG v3.1,5.1.1,RFXSTDTC CDISC Notes,"First date/time of exposure to any protocol-specified treatment or therapy, equal to the earliest value of EXSTDTC.",New rule identified from cited guidance.
105,"SPC, TDM","DM,TS",SPECIES,If species information is not included in DM it must be included in TS.,DM.SPECIES = null,"Record with TSPARMCD = ""SPECIES"" is present in TS and TSVAL ^= null for that record",SENDIG v3.0,5.1.1,SPECIES CDISC Notes,"SPECIES; If this variable is excluded in the DM domain, the information must be presented at a higher level (Trial Summary).",
105.1,"SPC, TDM","DM,TS, TX",SPECIES,If species is not included in DM it must be included in TS or TX.,DM.SPECIES = null,"Record with TSPARMCD = ""SPECIES"" is present in TS and TSVAL ^= null for that record OR TXPARMCD = ""SPECIES"" is present in TX and TXVAL ^= null",SENDIG v3.1,5.1.1,SPECIES CDISC Notes,"If this variable is excluded in the DM domain, the information must be present at a higher level (either Trial Sets or Trial Summary).",Versioned to reflect cited guidance change. 
146,FND,NOT (SC),--REASND,If --STAT is not populated then --REASND is not populated,--STAT = null,--REASND = null,SENDIG v3.0,6.3.1,BWREASND CDISC Notes,Describes why BWSTAT is NOT DONE,
146,FND,NOT (SC),--REASND,If --STAT is not populated then --REASND is not populated,--STAT = null,--REASND = null,SENDIG v3.1,6.3.1,BWREASND CDISC Notes,Describes why BWSTAT is NOT DONE,
143,FND,NOT (SC),--STAT,"If --STAT is populated, the value must be from the (ND) codelist",--STAT  ^= null,--STAT = value from (ND) codelist,SENDIG v3.0,6.3.1,"BWSTAT Controlled Terms, Codelist, or Format",(ND) codelist is referenced in the domain table,
143,FND,NOT (SC),--STAT,"If --STAT is populated, the value must be from the (ND) codelist",--STAT  ^= null,--STAT = value from (ND) codelist,SENDIG v3.1,6.3.1,"BWSTAT Controlled Terms, Codelist, or Format",(ND) codelist is referenced in the domain table,
106,"SPC, TDM","DM,TS",STRAIN,If strain information is not included in DM it must be included in TS.,DM.STRAIN = null ,"Record with TSPARMCD = ""STRAIN"" is present in TS and TSVAL ^= null for that record",SENDIG v3.0,5.1.1,STRAIN CDISC Notes,"If this variable is excluded in the DM domain, the information must be presented at a higher level (Trial Summary).",
106.1,"SPC, TDM","DM,TS, TX",STRAIN,If strain is not included in DM it must be included in TS or TX.,DM.STRAIN = null ,"Record with TSPARMCD = ""STRAIN"" is present in TS and TSVAL ^= null for that record OR Record with TXPARMCD = ""STRAIN"" is present in TX and TXVAL ^= null for that record",SENDIG v3.1,5.1.1,STRAIN CDISC Notes,"If this variable is excluded in the DM domain, the information must be present at a higher level (either Trial Sets or Trial Summary).",Versioned to reflect cited guidance change. 
119,SPC,CO,COVAL,If the comment is over 200 characters the comment must be broken into 200 character-sections in columns labelled COVAL1-COVALn.,Comment value > 200 characters in length,Comment is broken into 200-character sections AND each 200-character section is in a separate column AND each column is named sequentially from COVAL1 through COVALn,SENDIG v3.1,5.2.1.1,Assumption 4,"When the comment text is longer than 200 characters, the first 200 characters of the comment will be in COVAL, the next 200 in COVAL1, and additional text represented as needed to COVALn. ",Cited guidance reference updated; no implementation impact.
119,SPC,CO,COVAL,If the comment is over 200 characters the comment must be broken into 200 character-sections in columns labelled COVAL-COVALn.,Comment value > 200 characters in length,Comment is broken into 200-character sections AND each 200-character section is in a separate column AND each column is named sequentially from COVAL through COVALn,SENDIG v3.0,5.2.1.1,Assumption 4,"When the comment text is longer than 200 characters, the first 200 characters of the comment will be in COVAL, the next 200 in COVAL1, and additional text stored as needed to COVALn.",
120,SPC,CO,CODTC,If the comment is related to a record in another domain (IDVAR and IDVARVAL are populated) CODTC should not be populated.  ,IDVAR ^= null,CODTC = null,SENDIG v3.0,5.2.1,CODTC CDISC Notes,Should be null if this is a child record of another domain or if comment date was not collected.,Rule not applicable to SENDIG v3.1 and SENDIG v3.1.1.  
158,FND,"CL, MA, MI",--STRESC,"If the examination was completed and there were no abnormal findings, the value must be ""NORMAL"" in --STRESC.",--ORRES indicates no abnormal findings,"--STRESC = ""NORMAL""",SENDIG v3.0,6.3.3 | 6.3.7 | 6.3.8,--STRESC CDISC Notes,"If the examination was completed and there were no abnormal findings, the value must be NORMAL.",
158.1,FND,CL,--STRESC,"If the examination was completed and there were no abnormal findings, the value must be 'NORMAL' in --STRESC.",--ORRES indicates no abnormal findings,--STRESC = 'NORMAL',SENDIG v3.1,6.3.3,CLSTRESC CDISC Notes,"If the examination was completed and there were no abnormal findings, the value must be NORMAL.",Versioned to reflect cited guidance change. Split to SEND Rule 285.
NEW SEND RULE 285,FND,"MA, MI",--STRESC,"If the examination was completed and there were no findings, the value must be 'UNREMARKABLE' in --STRESC.",--ORRES indicates no findings,--STRESC = 'UNREMARKABLE',SENDIG v3.1,6.3.7 | 6.3.8,MASTRESC CDISC Notes | MISCTRESC CDISC Notes,"If the examination was completed and there were no findings, the value must be UNREMARKABLE.","Split from SEND Rule 158, new cited guidance."
181,FND,MI,MISTRESC,"If the finding is a tumor, the TFSTRESC Controlled Terminology Codelist must be used to populate MISTRESC.",MIORRES contains a tumor finding,MISTRESC populated using TFSTRESC Controlled Terminology Codelist,SENDIG v3.0,6.3.8,MISTRESC CDISC Notes,Tumors must be populated using TFSTRESC controlled list.,Replaced by SEND Rule 321 in SENDIG v3.1 and SENDIG v3.1.1.
194,FND,PC,PCSTRESN,"If the PCORRES result is less than the Lower Limit of Quantification, then PCSTRESN should be null and not populated with the value of zero (0).",PCORRES < PCLLOQ,PCSTRESN = null,SENDIG v3.0,6.3.11.1,Assumption 2,"If the PCORRES result is less than the Lower Limit of Quantification (LLQ), then PCSTRESN should be null and not populated with the value of zero (0).",
194,FND,PC,PCSTRESN,"If the PCORRES result is less than the Lower Limit of Quantification, then PCSTRESN should be null and not populated with the value of zero (0).",PCORRES < PCLLOQ ,PCSTRESN = null ,SENDIG v3.1,6.3.11.1,Assumption 2,"If the PCORRES result is less than the Lower Limit of Quantification (LLOQ), then PCSTRESN should be null and not populated with the value of zero (0).",
96,FND,ALL,QNAM,"If the sponsor collects the reason for performing a test or examination, it should be placed in the SUPP-- dataset using the standard SUPP-- QNAM value of --REAS.",Reason for performing test or examination is collected,"QNAM = ""--REAS""; QLABEL = ""Reason Test or Examination was Performed""; QVAL is the collected reason that the test or examination was performed",SENDIG v3.0,4.5.5; 8.4.4.3,Text,"For the Findings general observation class, if the sponsor collects the reason for performing a test or examination, it should be placed in the SUPP-- dataset as described in Section 8.5.  The standard SUPP-- QNAM value of --REAS should be used as described in Section 8.",
96,FND,ALL,QNAM,"If the sponsor collects the reason for performing a test or examination, it should be placed in the SUPP-- dataset using the standard SUPP-- QNAM value of --REAS.",Reason for performing test or examination is collected,"QNAM = ""--REAS""; QLABEL = ""Reason Test or Examination was Performed""; QVAL is the collected reason that the test or examination was performed",SENDIG v3.1,4.5.4 | 8.4.4.3,Text,"For the Findings general observation class, if the sponsor collects the reason for performing a test or examination, it should be placed in the SUPP-- dataset as described in Section 8.5.  The standard SUPP-- QNAM value of --REAS should be used as described in Section 8.",Cited guidance reference updated; no implementation impact.
77,ALL,ALL,NA,"If the Sponsor wishes to include alternate days calculated by a different algorithm than study day (--DY), the alternate days should be presented in a Supplemental Qualifier variable.  The algorithm for calculation of these alternate days should be explained in the Define-XML document.",,Alternate days calculated using an algorithm different then (--DY) are stored in  SUPP-- and the reference dates used to calculate the alternate study days are explained in the Define-XML document.,SENDIG v3.0,4.4.5,Text,"The calculations of additional study days within subdivisions of time in a study may be based on one or more defined reference dates not represented by RFSTDTC.
In such cases, the sponsor may define Supplemental Qualifier variables to store these study days and the data
definition file should reflect the reference dates used to calculate such study days. If the sponsor wishes to define
day within Element or day within EPOCH, the reference date/time will be an Element start date/time in the Subject
Elements dataset (Section 5.3.1).",
77,ALL,ALL,NA,"If the Sponsor wishes to include alternate days calculated by a different algorithm than study day (--DY), the alternate days should be presented in a Supplemental Qualifier variable.  The algorithm for calculation of these alternate days should be explained in the Define-XML document.",,Alternate days calculated using an algorithm different then (--DY) are stored in  SUPP-- and the reference dates used to calculate the alternate study days are explained in the Define-XML document.,SENDIG v3.1,4.4.5,Text,"The calculations of additional study days within subdivisions of time in a study may be based on one or more defined reference dates not represented by RFSTDTC.
In such cases, the sponsor may define Supplemental Qualifier variables to store these study days and the data
definition file should reflect the reference dates used to calculate such study days. If the sponsor wishes to define
day within Element or day within EPOCH, the reference date/time will be an Element start date/time in the Subject
Elements dataset (Section 5.3.1).",
129.1,SPC,SE,SESTDTC,"If the start date/time of an Element was not collected, the method used to determine the Element start date/time should be explained in the Define-XML document.",SESTDTC ^= null and was not directly collected,Method used to determine  SESTDTC is explained in the Define-XML document.,SENDIG v3.0,5.3.1.1,Assumption 3,"If the start date/time of an Element was not collected directly, the method used to infer the Element start date/time should be explained in the Comments column of the data definition file.",Condition format updated.
129.1,SPC,SE,SESTDTC,"If the start date/time of an Element was not collected, the method used to determine the Element start date/time should be explained in the Define-XML document.",SESTDTC ^= null and was not directly collected,Method used to determine  SESTDTC is explained in the Define-XML document.,SENDIG v3.1,5.3.1.1,Assumption 3,"If the start date/time of an Element was not collected directly, the method used to infer the Element start date/time should be explained in the Comments column of the data definition file.",Condition format updated.
242,TDM,TX,TXPARMCD,If the Trial Set is a control then TCNTRL should be present.,Trial Set is a Control,TCNTRL is present,SENDIG v3.0,7.4.2,TCNTRL CDISC Notes,"TCNTRL: This parameter should be included if the Trial Set is considered to be a control for this study (or part of a control). This parameter should be used to define the type of control (e.g., Vehicle Control, Positive Control, etc.).",
242,TDM,TX,TXPARMCD,If the Trial Set is a control then TCNTRL should be present.,Trial Set is a Control,TCNTRL is present,SENDIG v3.1,7.4.2,TCNTRL CDISC Notes,"This parameter should be included if the Trial Set is considered to be a control for this study (or part of a control). This parameter should be used to define the type of control (e.g., Vehicle Control, Positive Control, etc.).",
281,TDM,TS,TSVAL,If the trial summary parameter value is over 200 characters the trial summary parameter value must be broken into 200 character-sections in columns labelled TSVAL-TSVALn.,Trial summary parameter value > 200 characters in length,Trial summary parameter value is broken into 200-character sections AND each 200-character section is in a separate column AND each column is named sequentially from TSVAL through TSVALn is broken into 200-character sections AND each 200-character section is in a separate column AND each column is named sequentially from TSVAL through TSVALn,SENDIG v3.0,7.6.1.1,Assumption 4,"Trial Summary allows for one TSVAL value to span multiple variables (TSVAL-TSVALn), in order to accommodate values longer than 200 characters.",
281,TDM,TS,TSVAL,If the trial summary parameter value is over 200 characters the trial summary parameter value must be broken into 200 character-sections in columns labelled TSVAL-TSVALn.,Trial summary parameter value > 200 characters in length,Trial summary parameter value is broken into 200-character sections AND each 200-character section is in a separate column AND each column is named sequentially from TSVAL through TSVALn is broken into 200-character sections AND each 200-character section is in a separate column AND each column is named sequentially from TSVAL through TSVALn,SENDIG v3.1,7.6.1.1,Assumption 4,"Trial Summary allows for one TSVAL value to span multiple variables (TSVAL-TSVALn), in order to accommodate values longer than 200 characters.",
202,FND,TF,TFDETECT,"If the tumor was detected as a clinical sign, then TFDETECT is based off the CL domain variable CLDTC (Start Date/Time of Observation). This is
calculated as (CLDTC - EXSTDTC) + 1.",Tumor was detected as a clinical sign,TFDETECT = (CLDTC - EXSTDTC) + 1,SENDIG v3.0,6.3.14.1,Assumption 3.a,"TFDETECT: If the tumor was detected as a clinical sign, then TFDETECT is based off the CL domain variable CLDTC (Start Date/Time of Observation). This is
calculated as (CLDTC - EXSTDTC) + 1.`",
202,FND,TF,TFDETECT,"If the tumor was detected as a clinical sign, then TFDETECT is based off the CL domain variable CLDTC (Start Date/Time of Observation). This is
calculated as (CLDTC - EXSTDTC) + 1.",Tumor was detected as a clinical sign,TFDETECT = (CLDTC - EXSTDTC) + 1,SENDIG v3.1,6.3.14.1,Assumption 4.a,"TFDETECT: If the tumor was detected as a clinical sign, then TFDETECT is based off the CL domain variable CLDTC (Start Date/Time of Observation). This is
calculated as (CLDTC - EXSTDTC) + 1.`",
203,FND,TF,TFDETECT,"If the tumor was detected as a palpable mass, then TFDETECT is based off the PM domain variable PMDTC (Start Date/Time of Observation). This is calculated as (PMDTC - EXSTDTC) + 1.",Tumor was detected as a palpable mass,TFDETECT = (PMDTC - EXSTDTC) + 1,SENDIG v3.0,6.3.14.1,Assumption 3.b,"TFDETECT: If the tumor was detected as a palpable mass, then TFDETECT is based off the PM domain variable PMDTC (Start Date/Time of Observation). This is calculated as (PMDTC - EXSTDTC) + 1.",
203,FND,TF,TFDETECT,"If the tumor was detected as a palpable mass, then TFDETECT is based off the PM domain variable PMDTC (Start Date/Time of Observation). This is calculated as (PMDTC - EXSTDTC) + 1.",Tumor was detected as a palpable mass,TFDETECT = (PMDTC - EXSTDTC) + 1,SENDIG v3.1,6.3.14.1,Assumption 4.b,"TFDETECT: If the tumor was detected as a palpable mass, then TFDETECT is based off the PM domain variable PMDTC (Start Date/Time of Observation). This is calculated as (PMDTC - EXSTDTC) + 1.",
205,FND,TF,TFDETECT,"If the tumor was initially detected during histopathology examination (the MI domain), then TFDETECT is based off the DS domain variable DSSTDTC (Date/Time of Disposition). This is calculated as: (DSSTDTC - EXSTDTC) + 1.",Tumor was initially detected during histopathology examination (the MI domain),TFDETECT = (DSSTDTC - EXSTDTC) + 1,SENDIG v3.0,6.3.14.1,Assumption 3.d,"TFDETECT: If the tumor was initially detected during histopathology examination (the MI domain), then TFDETECT is based off the DS domain variable DSSTDTC (Date/Time of Disposition). This is calculated as: (DSSTDTC - EXSTDTC) + 1.",
205,FND,TF,TFDETECT,"If the tumor was initially detected during histopathology examination (the MI domain), then TFDETECT is based off the DS domain variable DSSTDTC (Date/Time of Disposition). This is calculated as: (DSSTDTC - EXSTDTC) + 1.",Tumor was initially detected during histopathology examination (the MI domain),TFDETECT = (DSSTDTC - EXSTDTC) + 1,SENDIG v3.1,6.3.14.1,Assumption 4.d,"TFDETECT: If the tumor was initially detected during histopathology examination (the MI domain), then TFDETECT is based off the DS domain variable DSSTDTC (Date/Time of Disposition). This is calculated as: (DSSTDTC - EXSTDTC) + 1.",
204,FND,TF,TFDETECT,"If the tumor was initially detected during necropsy (the MA domain), then TFDETECT is based off the DS domain variable DSSTDTC (Date/Time of Disposition). This is calculated as (DSSTDTC - EXSTDTC) + 1.",Tumor was initially detected during necropsy (the MA domain),TFDETECT = (DSSTDTC - EXSTDTC) + 1,SENDIG v3.0,6.3.14.1,Assumption 3.c,"TFDETECT: If the tumor was initially detected during necropsy (the MA domain), then TFDETECT is based off the DS domain variable DSSTDTC (Date/Time of Disposition). This is calculated as (DSSTDTC - EXSTDTC) + 1.",
204,FND,TF,TFDETECT,"If the tumor was initially detected during necropsy (the MA domain), then TFDETECT is based off the DS domain variable DSSTDTC (Date/Time of Disposition). This is calculated as (DSSTDTC - EXSTDTC) + 1.",Tumor was initially detected during necropsy (the MA domain),TFDETECT = (DSSTDTC - EXSTDTC) + 1,SENDIG v3.1,6.3.14.1,Assumption 4.c,"TFDETECT: If the tumor was initially detected during necropsy (the MA domain), then TFDETECT is based off the DS domain variable DSSTDTC (Date/Time of Disposition). This is calculated as (DSSTDTC - EXSTDTC) + 1.",
227,TDM,TA,TATRANS,"If there is a decision being represented within the value of TATRANS, the TATRANS rule should be populated as an ""if-then"" statement.",TATRANS represents a decision,"TATRANS = an ""if-then"" statement",SENDIG v3.0,7.3.1.1,Assumption 9,"TATRANS describes the decision points that may lead to a shortened path within an Arm, for example if some Elements within the Arm are skipped. If an Element does not end with a decision that could lead to a shortened path within the Arm, then TATRANS will be null. If there is a decision being represented within the value of TATRANS, the TATRANS rule should be populated as an 'if-then' statement (e.g., ""If condition X is true, then go to Element with TAETORD = Z"").",
227,TDM,TA,TATRANS,"If there is a decision being represented within the value of TATRANS, the TATRANS rule should be populated as an ""if-then"" statement.",TATRANS represents a decision,"TATRANS = an ""if-then"" statement",SENDIG v3.1,7.3.1.1,Assumption 11,"TATRANS describes the decision points that may lead to a shortened path within an Arm, for example if some Elements within the Arm are skipped. If an Element does not end with a decision that could lead to a shortened path within the Arm, then TATRANS will be null. If there is a decision being represented within the value of TATRANS, the TATRANS rule should be populated as an 'if-then' statement (e.g., ""If condition X is true, then go to Element with TAETORD = Z"").",
NEW SEND RULE 337,FND,"CV, RE",--STINT and --ENINT,"If there is a planned assessment interval, --STINT and --ENINT should be used to describe the known assessment interval whenever there is a reference time point (--TPTREF).",--TPTREF ^= null AND measurement is made over a planned assessment interval,--STINT ^= null  AND --ENINT ^= null,SENDIG v3.1,6.3.17.1 | 6.3.18.1,Assumption 3,CVSTINT and CVENINT should be used to describe a known assessment interval whenever there is a reference time point (CVTPTREF). | RESTINT and REENINT should be used to describe a known assessment interval whenever there is a reference time point (RETPTREF).,New cited guidance.
NEW SEND RULE 293,FND,ALL,ALL,If --TPT is populated --TPTNUM must be populated.,--TPT ^=null,TPTNUM ^= null,SENDIG v3.1,4.4.7.2.1,Text,...there must be a one-to-one relationship between the values of --TPT and --TPTNUM.,New cited guidance.
241.1,TDM,TX,TXPARMCD ,"IF TRTDOS = ""SEE PROTOCOL"" then TRTDOSU = ""SEE PROTOCOL"".","TXPARMCD = ""TRTDOS"" AND TXVAL = ""SEE PROTOCOL""","TXPARMCD = ""TRTDOSU"" AND TXVAL = ""SEE PROTOCOL""",SENDIG v3.0,7.4.2,TRTDOSU CDISC Notes,"TRTDOSU: For more complex dosing regimens, sponsor should enter ""SEE PROTOCOL"" to match the associated TRTDOS value.",Condition and rule format updated.
241.1,TDM,TX,TXPARMCD ,"IF TRTDOS = ""SEE PROTOCOL"" then TRTDOSU = ""SEE PROTOCOL"".","TXPARMCD = ""TRTDOS"" AND TXVAL = ""SEE PROTOCOL""","TXPARMCD = ""TRTDOSU"" AND TXVAL = ""SEE PROTOCOL""",SENDIG v3.1,7.4.2,TRTDOSU CDISC Notes," For more complex dosing regimens, sponsor should enter ""SEE PROTOCOL"" to match the associated TRTDOS value.",Condition and rule format updated.
57.1,ALL,ALL,ALL,"In some cases, a variable value may comprise multiple individual values. In these cases, each contributing value is a separately collected or analyzed item...In these scenarios, when controlled terminology applies to the corresponding variable, each contributing value must be included as its controlled terminology submission value, and delimited from other terms by a semicolon.",A variable value is composed of multiple individual values and CDISC published Controlled Terminology applies to the value,"Multiple individual values are separated by "";""",SENDIG v3.1,4.3.6.2,Text,"In some cases, a variable value may comprise multiple individual values. In these cases, each contributing value is a separately collected or analyzed item...In these scenarios, when controlled terminology applies to the corresponding variable, each contributing value must be included as its controlled terminology submission value, and delimited from other terms by a semicolon.",Versioned to reflect cited guidance change. 
67,ALL,ALL,"--DTC, --RFTDTC, --STDTC, --ENDTC, RFSTDTC, RFENDTC, BRTHDTC","ISO 8601 Extended format, which requires hyphen delimiters for the data components and colon delimiters for the time components, must be used for SDTM and SENDIG.",,ISO 8601 format in SEND must = ISO 8601 Extended format; hyphen delimiters in date components and colon delimiters in time components ,SENDIG v3.1,4.4.1,Text,"The ISO 8601 basic format, which does not require delimiters, should not be used.",Cited guidance reference updated; no implementation impact.
67,ALL,ALL,"--DTC, --RFTDTC, --STDTC, --ENDTC, RFSTDTC, RFENDTC, BRTHDTC","ISO 8601 Extended format, which requires hyphen delimiters for the date components and colon delimiters for the time components, must be used for SDTM and SENDIG.",,ISO 8601 format in SEND must = ISO 8601 Extended format; hyphen delimiters in date components and colon delimiters in time components,SENDIG v3.0,4.4.1,Text,"The SDTM and SENDIG require use of the ISO 8601 Extended format, which requires hyphen delimiters
for date components and colon delimiters for time components. The ISO 8601 basic format, which does not
require delimiters, should not be used in SDTM datasets.",
170,FND,LB,"LBORNRLO, LBORNRHI","LBORNRLO and LBORNRHI should only be populated for continuous numeric data types (i.e., the set of real numbers).",Results are not continuous numeric data,LBORNRLO and LBORNRHI are null,SENDIG v3.0,6.3.6,LBORNRLO CDISC Notes,LBORNRLO: Lower end of reference range used at the time of collection for continuous measurements in original units. Should be populated only for continuous results.  LBORNRHI: Upper end of reference range used at the time of collection for continuous measurements in original units. Should be populated only for continuous results.,
170,FND,LB,"LBORNRLO, LBORNRHI","LBORNRLO and LBORNRHI should only be populated for continuous numeric data types (i.e., the set of real numbers).",Results are not continuous numeric data,LBORNRLO and LBORNRHI are null,SENDIG v3.1,6.3.6,LBORNRLO CDISC Notes,Lower end of reference range used at the time of collection for continuous measurements in original units. Should be populated only for continuous results.  LBORNRHI: Upper end of reference range used at the time of collection for continuous measurements in original units. Should be populated only for continuous results.,
171,FND,LB,"LBSTNRLO, LBSTNRHI","LBSTNRLO and LBSTNRHI should only be populated for continuous numeric data types (i.e., the set of real numbers).",Results are not continuous numeric data,LBSTNRLO and LBSTNRHI are null,SENDIG v3.0,6.3.6,LBSTNRLO CDISC Notes,LBSTNRLO: Lower end of reference range for continuous measurements in standardized units. Should be populated only for continuous results. LBSTNRHI: Upper end of reference range for continuous measurements in standardized units. Should be populated only for continuous results.,
171,FND,LB,"LBSTNRLO, LBSTNRHI","LBSTNRLO and LBSTNRHI should only be populated for continuous numeric data types (i.e., the set of real numbers).",Results are not continuous numeric data,LBSTNRLO and LBSTNRHI are null,SENDIG v3.1,6.3.6,LBSTNRLO CDISC Notes,Lower end of reference range for continuous measurements in standardized units. Should be populated only for continuous results. LBSTNRHI: Upper end of reference range for continuous measurements in standardized units. Should be populated only for continuous results.,
174,FND,LB,LBTOXGR,LBTOXGR should be populated with valid numbers from a standard toxicity scale (such as the NCI CTCAE).,LBTOXGR ^= null,LBTOXGR = valid number from a standard toxicity scale ,SENDIG v3.0,6.3.6,LBTOXGR CDISC Notes,Records toxicity grade value using a standard toxicity scale (such as the NCI CTCAE). Value should contain valid numbers only.,Rule not applicable to SENDIG v3.1 and SENDIG v3.1.1.  
210.1,FND,MA,MAEVAL,"MAEVAL is used only for results that are subjective (e.g., assigned by a person or a group)",Result is not subjective,MAEVAL = null,SENDIG v3.1,6.3.7,MAEVAL CDISC Notes,"Role of the person who provided the evaluation. Used only for results that are subjective (i.e., assigned by a person or a group).",Versioned to reflect cited guidance change. 
6,ALL,ALL,GEN,Metadata in Define-XML document should match both the SENDIG label and the label in the .xpt datasets.,,Metadata in Define-XML document should match both the SENDIG label and the label in the .xpt datasets.,SENDIG v3.0,3.2.2 | 4.21,Text,"The define.xml specification includes seven distinct attributes to describe variable-level metadata: ...A descriptive Variable Label, using up to 40 characters, which should be unique for each variable in the
dataset...,Sponsors must use the predefined SENDIG-standard labels in all standard domains.",
6,ALL,ALL,GEN,Metadata in Define-XML document should match both the SENDIG label and the label in the .xpt datasets.,,Metadata in Define-XML document should match both the SENDIG label and the label in the .xpt datasets.,SENDIG v3.1,3.2.2 | 4.21,Text,"The define.xml specification includes seven distinct attributes to describe variable-level metadata: ...A descriptive Variable Label, using up to 40 characters, which should be unique for each variable in the
dataset... | Sponsors must use the predefined SENDIG-standard labels in all standard domains.",
160,REL,"SUPPMA, SUPPMI","QNAM, QLABEL, QVAL",Modifiers of the base observation (in MASTRESC and MISTRESC) should be included within Supplemental Qualifiers.,Modifiers exist in MAORRES OR MIORRES,"SUPP-- exists with QNAM = --RESMOD AND QLABEL = ""Result Modifiers"" AND QVAL ^=null",SENDIG v3.0,6.3.7.1 | 6.3.8.1,Assumption 5.b.i,Modifiers of the base gross pathological observation (in MASTRESC) should be included within Supplemental Qualifiers; Modifiers of the base gross pathological observation (in MISTRESC) should be included within Supplemental Qualifiers,
160.1,REL,SUPPMA,"QNAM, QLABEL, QVAL",Modifiers of the base observation in MASTRESC should be included within Supplemental Qualifiers,Modifiers exist in MAORRES,"SUPP-- exists with QNAM = --RESMOD AND QLABEL = ""Result Modifiers"" AND QVAL ^=null",SENDIG v3.1,6.3.7.1,Assumption 5.b.i,Modifiers of the base gross pathological observation (in MASTRESC) should be included within Supplemental Qualifiers,Versioned to reflect cited guidance change. Split to SEND Rule 284.
NEW SEND RULE 284,REL, SUPPMI,"QNAM, QLABEL, QVAL","Modifiers of the base observation in MISTRESC should be included within Supplemental Qualifiers unless the modifiers have been included in MISEV, MIDISTR, and MICHRON.","Modifier exists in MIORRES AND modifier is not represented in MISEV, MIDISTR, or MICHRON","SUPP-- exists with QNAM = --RESMOD AND QLABEL = ""Result Modifiers"" AND QVAL ^=null",SENDIG v3.1,6.3.8.1,Assumption 4.e,"The Supplemental Qualifier MIRESMOD is used to further qualify the finding recorded in MISTRESC. MIRESMOD must be populated if one or more modifiers were part of the result in MIORRES and not otherwise reported in the modifier variables part of the MI domain structure (e.g., MISEV, MIDISTR, and MICHRON).","Split from SEND Rule 160, new cited guidance."
270,"INT, EVT, FND",ALL,ALL,Naming and use of variables must be consistent with the definition of the variable in the SDTM.,Variable is present in a domain.,Variable Name matches SDTM v1.2 AND use is consistent with SDTM v1.2 definition,SENDIG v3.0,2.3,Text,"New variables (other than those that are from the same general observation class) must not be added, and existing variables must not be renamed or modified for novel usage.",
270.1,"INT, EVT, FND",ALL,ALL,Naming and use of variables must be consistent with the definition of the variable in the SDTM.,Variable is present in a domain.,Variable Name matches SDTM v1.5 AND use is consistent with SDTM v1.5 definition,SENDIG v3.1,2.3,Text,"New variables (other than those from the same general observation class) must not be added, and existing variables must not be renamed or modified for novel usage.",Versioned to reflect cited guidance change. 
NEW SEND RULE 321,FND,MI,MISTRESC,Neoplastic findings must be populated using the NEOPLASM controlled list (as extended when applicable).,MIORRES contains a neoplastic finding,MISTRESC populated using NEOPLASM controlled list,SENDIG v3.1,6.3.8,MISTRESC CDISC Notes,Neoplastic findings must be populated using the NEOPLASM controlled list.,New rule identified from cited guidance.
166,FND,DD,ALL,No records will be present for subjects where a cause of death was not collected.,Cause of death was not collected,No record should exist for that subject,SENDIG v3.0,6.3.4.1,Assumption 2,No records will be present for subjects where a cause of death was not collected.,
166,FND,DD,ALL,No records will be present for subjects where a cause of death was not collected.,Cause of death was not collected,No record should exist for that subject,SENDIG v3.1,6.3.4.1,Assumption 2,No records will be present for subjects where a cause of death was not collected.,
216,TDM,TE,"ETCD, ELEMENT","No two Elements can have the same combination of values for ELEMENT, TESTRL, and TEENRL or TEDUR.  Additional factors beyond treatment and start/end rule do not distinguish separate Elements.",,"Each record must have a unique combination of values for ELEMENT, TESTRL, and (TEENRL OR TEDUR)",SENDIG v3.0,7.2.1.1,Assumption 2 | Assumption 3,"Elements with different start and end rules are different Elements and must be represented as unique values in ELEMENT and ETCD (i.e., Elements involving the same treatment but different durations are different Elements). The same applies to nontreatment Elements (e.g., a washout with a fixed duration of 14 days is different from a washout which ends after 7 days if drug cannot be detected in a blood sample or after 14 days if drug can be detected in a blood sample).  Additional factors beyond treatment and start/end rule do not distinguish separate Elements.",
216,TDM,TE,"ETCD, ELEMENT","No two Elements can have the same combination of values for ELEMENT, TESTRL, and TEENRL or TEDUR.  Additional factors beyond treatment and start/end rule do not distinguish separate Elements.",,"Each record must have a unique combination of values for ELEMENT, TESTRL, and (TEENRL OR TEDUR)",SENDIG v3.1,7.2.1.1,Assumption 2 | Assumption 4,"Elements with different start and end rules are different Elements and must be represented as unique values in ELEMENT and ETCD (i.e., Elements involving the same treatment but different durations are different Elements). The same applies to nontreatment Elements (e.g., a washout with a fixed duration of 14 days is different from a washout that ends after 7 days if drug cannot be detected in a blood sample or after 14 days if drug can be detected in a blood sample)....Additional factors beyond treatment, start rule, and either end rule or duration do not distinguish separate Elements.",Cited guidance reference updated; no implementation impact.
NEW SEND RULE 318,"EVT, FND",ALL,--NOMDY,--NOMDY should be populated with an integer,,NOMDY is an integer,SENDIG v3.1,6.2.1.1,DSNOMDY CDISC Notes,Should be an integer.,New rule identified from cited guidance.
NEW SEND RULE 322,FND,MI,MISTRESC,Nonneoplastic findings must be populated using the NONNEO controlled list (as extended when applicable).,MIORRES contains a nonneoplastic finding,MISTRESC populated using NONNEO controlled list,SENDIG v3.1,6.3.8,MISTRESC CDISC Notes,"The base pathological process from MIORRES should be mapped to a synonymous term from the controlled list, NONNEO, where possible.",New rule identified from cited guidance.
199,FND,SC,ALL,One record per characteristic per subject,,One record per characteristic per subject,SENDIG v3.0,6.3.13,Domain Table Header,"sc.xpt, Subject Characteristics - Findings. One record per characteristic per subject, Tabulation.",
199,FND,SC,ALL,One record per characteristic per subject,,One record per characteristic per subject,SENDIG v3.1,6.3.13,Domain Table Header,"sc.xpt, Subject Characteristics - Findings. One record per characteristic per subject, Tabulation.",
131.1,INT,EX,ALL,One record per constant dosing interval per subject or pool per treatment per administration site (if identified in FOCID) , ,One record per constant dosing interval per subject or pool per treatment per administration site (if identified in FOCID) ,SENDIG v3.1,6.1.1 | 6.1.1.1,Domain Table Header |Assumption 1.b,"ex.xpt, Exposure - Interventions. One record per constant dosing interval per treatment per subject or pool, Tabulation.  This domain should contain one record per constant dosing interval per subject per administration site (as identified in FOCID). A constant dosing interval is sponsor defined and represents a specific period of time during which a subject was treated with a specific lot at a constant dose level.",Versioned to reflect cited guidance change. 
131,INT,EX,ALL,One record per constant dosing interval per treatment per subject or pool,,One record per constant dosing interval per treatment per subject or pool,SENDIG v3.0,6.1.1 | 6.1.1.1,Domain Table Header |Assumption 1.b,"ex.xpt, Exposure - Interventions. One record per constant dosing interval per treatment per subject or pool, Tabulation.; This domain should contain one record per constant dosing interval per subject. A constant dosing interval is sponsor-defined and represents a specific period of time during which an animal was treated with a specific lot at a constant dose level.",
163,FND,DD,ALL,One record per diagnosis per subject (for unscheduled deaths only),,One record per diagnosis per subject (for unscheduled deaths only),SENDIG v3.0,6.3.4,Domain Table Header,"dd.xpt, Death Diagnosis - Findings. One record per diagnosis per subject (for unscheduled deaths only), Tabulation",
163,FND,DD,ALL,One record per diagnosis per subject (for unscheduled deaths only),,One record per diagnosis per subject (for unscheduled deaths only),SENDIG v3.1,6.3.4,Domain Table Header,"dd.xpt, Death Diagnosis and Details - Findings. One record per diagnosis per subject (for unscheduled deaths only), Tabulation",Cited guidance reference updated; no implementation impact.
156,FND,CL,ALL,One record per finding per observation time per subject or pool.,,One record per finding per observation time per subject or pool.,SENDIG v3.0,6.3.3,Domain Table Header,One record per finding per observation time per subject or pool.,
156,FND,CL,ALL,One record per finding per observation time per subject or pool.,,One record per finding per observation time per subject or pool.,SENDIG v3.1,6.3.3,Domain Table Header,"cl.xpt, Clinical Observations - Findings. One record per finding per observation time per subject or pool, Tabulation.",Cited guidance reference updated; no implementation impact.
175,FND,MA,ALL,One record per finding per specimen per subject,,One record per finding per specimen per subject,SENDIG v3.0,6.3.7,Domain Table Header,"ma.xpt, Macroscopic Findings - Findings. One record per finding per specimen per subject, Tabulation.",
175,FND,MA,ALL,One record per finding per specimen per subject,,One record per finding per specimen per subject,SENDIG v3.1,6.3.7,Domain Table Header,"ma.xpt, Macroscopic Findings - Findings. One record per finding per specimen per subject, Tabulation.",
180,FND,MI,ALL,One record per finding per specimen per subject,,One record per finding per specimen per subject,SENDIG v3.0,6.3.8,Domain Table Header,"mi.xpt, Microscopic Findings - Findings. One record per finding per specimen per subject, Tabulation.",
180,FND,MI,ALL,One record per finding per specimen per subject,,One record per finding per specimen per subject,SENDIG v3.1,6.3.8,Domain Table Header,"mi.xpt, Microscopic Findings - Findings. One record per finding per specimen per subject, Tabulation.",
254,REL,SUPP,"IDVAR, IDVARVAL, RDOMAIN, USUBJID, POOLID, QNAM","One record per IDVAR, IDVARVAL, and QNAM value per subject (or pool) per related domain","IDVAR, IDVARVAL, RDOMAIN, and USUBJID (or POOLID) are the same",There should only be one record in a SUPP-- dataset with the same QNAM value,SENDIG v3.0,8.5,Domain Table Header,"SUPP--.xpt, Supplemental Qualifiers for (domain name) - Relationship Datasets. One record per IDVAR, IDVARVAL, and QNAM value per subject per related domain, Tabulation",
206,FND,VS,ALL,One record per measurement per observation time per subject,,One record per measurement per observation time per subject,SENDIG v3.0,6.3.15,Domain Table Header,"vs.xpt, Vital Signs - Findings. One record per measurement per observation time per subject, Tabulation.",
206,FND,VS,ALL,One record per measurement per observation time per subject,,One record per measurement per observation time per subject,SENDIG v3.1,6.3.15,Domain Table Header,"vs.xpt, Vital Signs - Findings. One record per measurement per observation time per subject, Tabulation.",
195.1,FND,PP,ALL,"One record per pharmacokinetic parameter per time-concentration profile per specimen per subject or pool, Tabulation.",,"One record per pharmacokinetic parameter per time-concentration profile per specimen per subject or pool, Tabulation.",SENDIG v3.1,6.3.12,Domain Table Header,"pp.xpt, Pharmacokinetics Parameters - Findings. One record per pharmacokinetic parameter per time-concentration profile per specimen per subject or pool, Tabulation.",Versioned to reflect cited guidance change. 
195,FND,PP,ALL,One record per pharmacokinetic parameter per time-concentration profile per specimen per subject or pool.,,One record per pharmacokinetic parameter per time-concentration profile per specimen per subject or pool,SENDIG v3.0,6.3.12,Domain Table Header,"pp.xpt, Pharmacokinetics Parameters - Findings. One record per pharmacokinetic parameter per time-concentration profile per specimen per subject, Tabulation.",
212,TDM,TE,ALL,One record per planned Element,,One record per planned Element,SENDIG v3.0,7.2.1,Domain Table Header,"te.xpt, Trial Elements - Trial Design. One record per planned Element, Tabulation.",
212,TDM,TE,ALL,One record per planned Element,,One record per planned Element,SENDIG v3.1,7.2.1,Domain Table Header,"te.xpt, Trial Elements - Trial Design. One record per planned Element, Tabulation.",
220,TDM,TA,ALL,One record per planned Element per Arm,,One record per planned Element per Arm,SENDIG v3.0,7.3.1,Domain Table Header,"ta.xpt, Trial Arms - Trial Design. One record per planned Element per Arm, Tabulation.",
220,TDM,TA,ALL,One record per planned Element per Arm,,One record per planned Element per Arm,SENDIG v3.1,7.3.1,Domain Table Header,"ta.xpt, Trial Arms - Trial Design. One record per planned Element per Arm, Tabulation.",
252,REL,RELREC,ALL,"One record per related record, related group of records (e.g. --GRPID), or related dataset.",,"One record per related record, related group of records (e.g. --GRPID), or related dataset, Tabulation",SENDIG v3.0,8.3.1,Domain Table Header,"relrec.xpt, Related Records - Relationship Datasets. One record per related record, related group of records (e.g. --GRPID), or related dataset, Tabulation.",
252.1,REL,RELREC,ALL,"One record per related record, related group of records, or related domain.",,"One record per related record, related group of records, or related domain",SENDIG v3.1,8.2,Domain Table Header,"relrec.xpt, Related Records - Relationship Datasets. One record per related record, related group of records, or related domain, Tabulation.",Versioned to reflect cited guidance change. 
97,SPC,DM,ALL,One record per subject,Domain = DM,One record per subject,SENDIG v3.0,5.1.1,Domain Table Header,"dm.xpt, Demographics - Special-Purpose Domains. One record per subject, Tabulation.",
97,SPC,DM,ALL,One record per subject,Domain = DM,One record per subject,SENDIG v3.1,5.1.1,Domain Table Header,"dm.xpt, Demographics - Special-Purpose Domains. One record per subject, Tabulation.",
262,REL,POOLDEF,POOLID,One record per subject per pool,,One record per subject per pool,SENDIG v3.0,8.7.1,Domain Table Header,"pooldef.xpt, Pooled Definition - Relationship Datasets. One record per subject per pool, Tabulation.",
254.1,REL,SUPP--,QNAM,"One record per supplemental qualifier per related parent domain record(s), Tabulation.","IDVAR, IDVARVAL, RDOMAIN, and USUBJID (or POOLID) are the same",There should only be one record in a SUPP-- dataset with the same QNAM value,SENDIG v3.1,8.3,Domain Table Header,"supp--.xpt, Supplemental Qualifiers for (domain name) - Relationship Datasets. One record per supplemental qualifier per related parent domain record(s), Tabulation.",Versioned to reflect cited guidance change. 
208.1,FND,EG,ALL,"One record per test per ECG reference per observation time per subject, Tabulation.",,"One record per test per ECG reference per observation time per subject, Tabulation.",SENDIG v3.1,6.3.16,Domain Table Header,"eg.xpt, ECG - Findings. One record per test per ECG reference per observation time per subject, Tabulation.",Versioned to reflect cited guidance change. 
150,FND,BG,ALL,One record per test per interval per subject,,One record per test per interval per subject,SENDIG v3.0,6.3.2,Domain Table Header,"bg.xpt, Body Weight Gains - Findings. One record per test per interval per subject, Tabulation.",
150,FND,BG,ALL,One record per test per interval per subject,,One record per test per interval per subject,SENDIG v3.1,6.3.2,Domain Table Header,"bg.xpt, Body Weight Gains - Findings. One record per test per interval per subject, Tabulation.",
168,FND,FW,ALL,One record per test per interval per subject or pool,,One record per test per interval per subject or pool,SENDIG v3.0,6.3.5,Domain Table Header,"fw.xpt, Food and Water Consumption - Findings. One record per test per interval per subject or pool, Tabulation.",
168,FND,FW,ALL,One record per test per interval per subject or pool,,One record per test per interval per subject or pool,SENDIG v3.1,6.3.5,Domain Table Header,"fw.xpt, Food and Water Consumption - Findings. One record per test per interval per subject or pool, Tabulation.",
142,FND,BW,ALL,One record per test per observation time per subject,,One record per test per observation time per subject,SENDIG v3.0,6.3.1,Domain Table Header,"bw.xpt, Body Weight - Findings. One record per test per observation time per subject, Tabulation.",
142,FND,BW,ALL,One record per test per observation time per subject,,One record per test per observation time per subject,SENDIG v3.1,6.3.1,Domain Table Header,"bw.xpt, Body Weight - Findings. One record per test per observation time per subject, Tabulation.",
208,FND,EG,ALL,One record per test per observation time per subject,,One record per test per observation time per subject,SENDIG v3.0,6.3.16,Domain Table Header,"eg.xpt, ECG - Findings. One record per test per observation time per subject, Tabulation.",
191,FND,PM,ALL,One record per test per palpable mass per observation time per subject,,One record per test per palpable mass per observation time per subject,SENDIG v3.0,6.3.10,Domain Table Header,"pm.xpt, Palpable Masses - Findings. One record per test per palpable mass per observation time per subject, Tabulation.",
191,FND,PM,ALL,One record per test per palpable mass per observation time per subject,,One record per test per palpable mass per observation time per subject,SENDIG v3.1,6.3.10,Domain Table Header,"pm.xpt, Palpable Masses - Findings. One record per test per palpable mass per observation time per subject, Tabulation.",
192,FND,PC,ALL,One record per test per specimen per observation time per subject or pool,,One record per test per specimen per observation time per subject or pool,SENDIG v3.0,6.3.11,Domain Table Header,"pc.xpt, Pharmacokinetic Concentrations - Findings. One record per test per specimen per observation time per subject or pool, Tabulation.",
192,FND,PC,ALL,One record per test per specimen per observation time per subject or pool,,One record per test per specimen per observation time per subject or pool,SENDIG v3.1,6.3.11,Domain Table Header,"pc.xpt, Pharmacokinetic Concentrations - Findings. One record per test per specimen per observation time per subject or pool, Tabulation.",
169,FND,LB,ALL,One record per test per specimen per observation time per subject or pool.,,One record per test per specimen per observation time per subject or pool.,SENDIG v3.0,6.3.6,Domain Table Header,"lb.xpt, Laboratory - Findings. One record per test per specimen per observation time per subject or pool, Tabulation.",
169,FND,LB,ALL,One record per test per specimen per observation time per subject or pool.,,One record per test per specimen per observation time per subject or pool.,SENDIG v3.1,6.3.6,Domain Table Header,"lb.xpt, Laboratory - Findings. One record per test per specimen per observation time per subject or pool, Tabulation.",
188,FND,OM,ALL,One record per test per specimen per subject,,One record per test per specimen per subject,SENDIG v3.0,6.3.9,Domain Table Header,"om.xpt, Organ Measurements - Findings. One record per test per specimen per subject, Tabulation.",
188,FND,OM,ALL,One record per test per specimen per subject,,One record per test per specimen per subject,SENDIG v3.1,6.3.9,Domain Table Header,"om.xpt, Organ Measurements - Findings. One record per test per specimen per subject, Tabulation.",
230,TDM,TX,ALL,One record per Trial Set parameter per Trial Set,,One record per Trial Set parameter per Trial Set,SENDIG v3.0,7.4.1,Domain Table Header,"tx.xpt, Trial Sets - Trial Design. One record per Trial Set parameter per Trial Set, Tabulation.",
230,TDM,TX,ALL,One record per Trial Set parameter per Trial Set,,One record per Trial Set parameter per Trial Set,SENDIG v3.1,7.4.1,Domain Table Header,"tx.xpt, Trial Sets - Trial Design. One record per Trial Set parameter per Trial Set, Tabulation.",
245,TDM,TS,ALL,One record per Trial Summary parameter value,,One record per Trial Summary parameter value,SENDIG v3.0,7.6.1,Domain Table Header,"ts.xpt, Trial Summary - Trial Design. One record per Trial Summary parameter value, Tabulation.",
245,TDM,TS,ALL,One record per Trial Summary parameter value,,One record per Trial Summary parameter value,SENDIG v3.1,7.6.1,Domain Table Header,"ts.xpt, Trial Summary - Trial Design. One record per Trial Summary parameter value, Tabulation.",
200,FND,TF,ALL,One record per tumor per specimen per subject,,One record per tumor per specimen per subject,SENDIG v3.0,6.3.14,Domain Table Header,"tf.xpt, Tumor Findings - Findings. One record per tumor per specimen per subject, Tabulation.",
200,FND,TF,ALL,One record per tumor per specimen per subject,,One record per tumor per specimen per subject,SENDIG v3.1,6.3.14,Domain Table Header,"tf.xpt, Tumor Findings - Findings. One record per tumor per specimen per subject, Tabulation.",
NEW SEND RULE 341,TDM,TS,TSPARMCD,Only a single record for TSPARM SEND Implementation Guide Version should exist.,,Only one record with TSPARMCD = SNDIGVER exists  ,SENDIG v3.1,7.6.3,SNDIGVER CDISC Notes,The SEND Implementation Guide version used for the submission containing this dataset. Only a single record should be provided in the Trial Summary dataset.,New rule identified from cited guidance.
114,SPC,CO,ALL,Only one record should exist per comment.,,One record per comment,SENDIG v3.0,5.2.1,Domain Table Header,"co.xpt, Comments - Special Purpose Domains, One record per comment, Tabulation",
114,SPC,CO,ALL,Only one record should exist per comment.,,One record per comment,SENDIG v3.1,5.2.1,Domain Table Header,"co.xpt, Comments - Special Purpose Domains, One record per comment, Tabulation",
135,INT,EX,ALL,Only treatments specified in the protocol are populated in EX.,,EX contains only protocol-specified treatments.,SENDIG v3.0,6.1.1.1,Assumption 1.a,Only protocol-specified treatments should be included in this domain.,
135,INT,EX,ALL,Only treatments specified in the protocol are populated in EX.,,EX contains only protocol-specified treatments.,SENDIG v3.1,6.1.1.1,Assumption 1.a,Only protocol-specified treatments should be included in this domain.,
190.1,FND,OM,OMSTRESU,Organ weight measurement ratios should be presented as pure ratios (“RATIO”) or percentages (unit = %). Ratios and percentages should not be mixed.,OMTEST represents an organ weight measurement ratio,OMSTRESU = “RATIO” OR OMSTRESU = %,SENDIG v3.1,6.3.9.1,Assumption 3,Organ measurement ratios within a single test or measurement should either be pure ratios with the unit shown as “RATIO” or percentages with unit shown as “%.”,Versioned to reflect cited guidance change. 
190,FND,OM,OMSTRESU,Organ weight measurement ratios should be presented as pure ratios (no units) or percentages (unit = %). Ratios and percentages should not be mixed.,OMTEST represents an organ weight measurement ratio,OMSTRESU = null OR OMSTRESU = %,SENDIG v3.0,6.3.9.1,Assumption 3,"Organ measurement ratios within a single study should either be pure ratios with no units specified or percentages with unit shown as ""%"". It is strongly recommended that pure ratios and percentages should not be mixed.",
193,FND,PC,PCLLOQ,PCLLOQ should be presented using the same units as those presented in PCSTRESU.,,Unit for PCLLOQ = PCSTRESU,SENDIG v3.0,6.3.11,PCLLOQ CDISC Notes,PCLLOQ: Units should be those used in PCSTRESU.,
193,FND,PC,PCLLOQ,PCLLOQ should be presented using the same units as those presented in PCSTRESU.,,Unit for PCLLOQ = PCSTRESU,SENDIG v3.1,6.3.11,PCLLOQ CDISC Notes,Units should be those used in PCSTRESU.,
NEW SEND RULE 335,FND,PM,PMSTRESC,PMSTRESC should contain the finding without the location.,PMORRES ^= null,PMSTRESC contains the finding and does not contain the location,SENDIG v3.0,6.3.10.1,Assumption 2.b,PMSTRESC should contain the finding without the location specified in PMLOC.,Replaces SEND RULE 159 for the PM domain
NEW SEND RULE 335,FND,PM,PMSTRESC,PMSTRESC should contain the finding without the location.,PMORRES ^= null,PMSTRESC contains the finding and does not contain the location,SENDIG v3.1,6.3.10.1,Assumption 2.b,PMSTRESC should contain the finding without the location specified in PMLOC.,Replaces SEND RULE 159 for the PM domain
196,FND,PP,PPCAT,PPCAT is the name of the analyte in PCTEST whose profile the parameter is associated with.,,PPCAT is the name of the analyte in PCTEST whose profile the parameter is associated with.,SENDIG v3.0,6.3.12,PPCAT CDISC NOTES,"PPCAT: Used to define a category of related records. For PP, this should be the
name of the analyte in PPTEST (PCTEST as corrected in SENDIGv3.1) whose profile the parameter is associated with.",
196,FND,PP,PPCAT,PPCAT is the name of the analyte in PCTEST whose profile the parameter is associated with.,,PPCAT is the name of the analyte in PCTEST whose profile the parameter is associated with.,SENDIG v3.1,6.3.12,PPCAT CDISC NOTES,Used to define a category of parameters associated with a specific analyte. This must be the analyte in PCTEST whose profile the parameter is associated with.,Cited guidance reference updated; no implementation impact.
256,REL,SUPP--,QEVAL,QEVAL is null for records that contain objectively collected or derived data.,Records that contain objectively collected or derived data,QEVAL = null,SENDIG v3.0,8.5,QEVAL CDISC Notes,"QEVAL: Used only for results that are subjective (i.e., assigned by a person or a group). Should be null for records that contain objectively collected or derived data. Some examples include PATHOLOGIST or VETERINARIAN, etc.",
256,REL,SUPP--,QEVAL,QEVAL is null for records that contain objectively collected or derived data.,Records that contain objectively collected or derived data,QEVAL = null,SENDIG v3.1,8.3,QEVAL CDISC Notes,"Used only for results that are subjective (i.e., assigned by a person or a group). Should be null for records that contain objectively collected or derived data. Some examples include PATHOLOGIST or VETERINARIAN, etc.",Cited guidance reference updated; no implementation impact.
274,SPC,SUPP--,QNAM,QNAM name cannot be the same as a variable name in the parent domain,,QNAM cannot be the same as a variable name in the parent domain ,SENDIG v3.0,8.5,QNAM CDISC Notes,The value in QNAM may not be the same as any variable name defined in another domain or the SDTM.,
22,SPC,SUPP--,QNAM,"QNAM value cannot contain characters other than letters, numbers, and underscores",,"QNAM value contains only letters, numbers, and underscores and cannot start with a number",SENDIG v3.0,4.2.1,Text,"Values of --TESTCD and QNAM values must be limited to 8 characters, and cannot start with a number, nor can
they contain characters other than letters, numbers, or underscores.",
22,SPC,SUPP--,QNAM,"QNAM value cannot contain characters other than letters, numbers, and underscores",,"QNAM value contains only letters, numbers, and underscores and cannot start with a number",SENDIG v3.1,4.2.1,Text,"Values of --TESTCD and QNAM values must be limited to 8 characters, and cannot start with a number, nor can
they contain characters other than letters, numbers, or underscores.",
21,SPC,SUPP--,QNAM,QNAM value cannot start with a number,,QNAM value cannot start with a number,SENDIG v3.0,4.2.1,Text,"Values of --TESTCD and QNAM values must be limited to 8 characters, and cannot start with a number, nor can
they contain characters other than letters, numbers, or underscores.",
21,SPC,SUPP--,QNAM,QNAM value cannot start with a number,,QNAM value cannot start with a number,SENDIG v3.1,4.2.1,Text,"Values of --TESTCD and QNAM values must be limited to 8 characters, and cannot start with a number, nor can
they contain characters other than letters, numbers, or underscores.",
20,SPC,SUPP--,QNAM,QNAM value limited to 8 characters,,QNAM value length <= 8,SENDIG v3.0,4.2.1,Text,"Values of --TESTCD and QNAM values must be limited to 8 characters, and cannot start with a number, nor can
they contain characters other than letters, numbers, or underscores.",
20,SPC,SUPP--,QNAM,QNAM value limited to 8 characters,,QNAM value length <= 8,SENDIG v3.1,4.2.1,Text,"Values of --TESTCD and QNAM values must be limited to 8 characters, and cannot start with a number, nor can
they contain characters other than letters, numbers, or underscores.",
23,SPC,SUPP--,QNAM,QNAM value must be uppercase because it is subject to the same restrictions as --TESTCD which is required to be uppercase through Controlled Terminology.,,--QNAM value is uppercase,SENDIG v3.0,4.2.1 | 4.3.2,Text,"QNAM serves the same purpose as --TESTCD within supplemental qualifier datasets, and so values of QNAM are
subject to the same restrictions as values of --TESTCD/When extending a controlled terminology list, the case-sensitivity convention of that
list should be followed.",
23,SPC,SUPP--,QNAM,QNAM value must be uppercase because it is subject to the same restrictions as --TESTCD which is required to be uppercase through Controlled Terminology.,,--QNAM value is uppercase,SENDIG v3.1,4.2.1 | 4.3.2,Text,"QNAM serves the same purpose as --TESTCD within supplemental qualifier datasets, and so values of QNAM are subject to the same restrictions as values of --TESTCD | When extending a controlled terminology list, the case-sensitivity convention of thatlist should be followed.",
255,REL,SUPP--,QORIG,"QORIG is used to indicate the origin of the data. Possible values are COLLECTED, DERIVED, OTHER, and NOT AVAILABLE.",QORIG ^= null,"QORIG = ""COLLECTED"" OR QORIG = ""DERIVED"" OR QORIG = ""OTHER"" OR QORIG = ""NOT AVAILABLE""",SENDIG v3.0,8.5,QORIG CDISC Notes,"QORIG is used to indicate the origin of the data. Possible values are COLLECTED, DERIVED, OTHER, and NOT AVAILABLE.",
255,REL,SUPP--,QORIG,"QORIG is used to indicate the origin of the data. Possible values are COLLECTED, DERIVED, OTHER, and NOT AVAILABLE.",QORIG ^= null,"QORIG = ""COLLECTED"" OR QORIG = ""DERIVED"" OR QORIG = ""OTHER"" OR QORIG = ""NOT AVAILABLE""",SENDIG v3.1,8.3,QORIG CDISC Notes,"QORIG is used to indicate the origin of the data. Possible values are COLLECTED, DERIVED, OTHER, and NOT AVAILABLE.",Cited guidance reference updated; no implementation impact.
115,SPC,CO,RDOMAIN,RDOMAIN identifies the domain associated with the comment.  If the comment is a general comment not associated with a specific domain RDOMAIN should be left blank.,Comment is a general comment not associated with a specific domain,RDOMAIN = null,SENDIG v3.0,5.2.1,RDOMAIN CDISC Notes,Domain abbreviation of the parent record(s).  Null for comments collected as a general comment or additional information.,
115,SPC,CO,RDOMAIN,RDOMAIN identifies the domain associated with the comment.  If the comment is a general comment not associated with a specific domain RDOMAIN should be left blank.,Comment is a general comment not associated with a specific domain,RDOMAIN = null,SENDIG v3.1,5.2.1,RDOMAIN CDISC Notes,Domain abbreviation of the parent record(s).  Null for comments collected as a general comment or additional information.,
116,SPC,CO,RDOMAIN,RDOMAIN is a valid domain abbreviation used within the study,RDOMAIN ^= null,RDOMAIN = valid domain abbreviation used within the study,SENDIG v3.0,5.2.1,RDOMAIN CDISC Notes,Domain abbreviation of the parent record(s).  Null for comments collected as a general comment or additional information.,
116,SPC,CO,RDOMAIN,RDOMAIN is a valid domain abbreviation used within the study,RDOMAIN ^= null,RDOMAIN = valid domain abbreviation used within the study,SENDIG v3.1,5.2.1,RDOMAIN CDISC Notes,Domain abbreviation of the parent record(s).  Null for comments collected as a general comment or additional information.,
NEW SEND RULE 338,FND,RE,ALL,"re.xpt, Respiratory - Findings. One record per test per observation time or evaluation interval per subject, Tabulation.",,"re.xpt, Respiratory - Findings. One record per test per observation time or evaluation interval per subject, Tabulation.",SENDIG v3.1,6.3.18.1,Domain Table Header,"re.xpt, Respiratory - Findings. One record per test per observation time or evaluation interval per subject, Tabulation.",New cited guidance.
149,FND,ALL,--REASEX,"--REASEX should only be present when --EXCLFL is ""Y""",--REASEX  ^= null,"--EXCLFL = ""Y""",SENDIG v3.0,6.3.1,BWREASEX CDISC Notes,The reason the result should be excluded from all calculations. Used only when BWEXCLFL is Y.,
149,FND,ALL,--REASEX,"--REASEX should only be present when --EXCLFL is ""Y""",--REASEX  ^= null,"--EXCLFL = ""Y""",SENDIG v3.1,6.3.1,BWREASEX CDISC Notes,The reason the result should be excluded from all calculations. Used only when BWEXCLFL is Y.,
NEW SEND RULE 302,"INT, EVT, FND",ALL,--RECID,"--RECID remains invariant through subsequent versions of the dataset, even if the content of the record is modified.",--RECID ^= null ,'The same value of --RECID is used for that record in current and future version(s) of the domain,SENDIG v3.1,4.2.8,Text,"It remains invariant through subsequent versions of the dataset, even if the content of the record is modified.",New rule identified from cited guidance.
253,REL,RELREC,"RELTYPE, IDVAR, IDVARVAL",RELTYPE is used if IDVAR is --SPID and IDVARVAL is not populated.,IDVAR = --SPID AND IDVARVAL = null,"RELTYPE = ""ONE"" OR RELTYPE = ""MANY""",SENDIG v3.0,8.3.1,RELTYPE CDISC Notes,"RELTYPE: Identifies the hierarchical level of the records in the relationship. Values should be either ONE or MANY, only when --SPID is used. However, values are only necessary when identifying a relationship between datasets.",
12,ALL,ALL,GEN,Required variables must always be included in the dataset and cannot be null for any record.,Variable Core Status = Required,Variable present in dataset and ^= null,SENDIG v3.0,4.1.3,Text,"A Required variable is any variable that is basic to the identification of a data record (i.e., essential key variables and a topic variable) or is necessary to make the record meaningful. Required variables must always be included in the dataset and cannot be null for any record.",
12,ALL,ALL,GEN,Required variables must always be included in the dataset and cannot be null for any record.,Variable Core Status = Required,Variable present in dataset and ^= null,SENDIG v3.1,4.1.3,Text,"A Required variable is any variable that is basic to the identification of a data record (i.e., essential key variables and a topic variable) or is necessary to make the record meaningful. Required variables must always be included in the dataset and cannot be null for any record.",
43,ALL,ALL,--SCAT,--SCAT should not be the same as --CAT ,--SCAT ^= null,--SCAT ^= --CAT,SENDIG v3.0,4.2.6,Text,Values for --CAT and --SCAT should not be redundant with the domain or dictionary classification provided by --DECOD and --BODSYS.,
43,ALL,ALL,--SCAT,--SCAT should not be the same as --CAT ,--SCAT ^= null,--SCAT ^= --CAT,SENDIG v3.1,4.2.6,Text,Values for --CAT and --SCAT should not be redundant with the domain or dictionary classification provided by --DECOD and --BODSYS.,
45,ALL,ALL,--SCAT,--SCAT should not be the same as --DECOD or --BODSYS,--SCAT ^= null,--SCAT ^= --DECOD or --BODSYS,SENDIG v3.0,4.2.6,Text,Values for --CAT and --SCAT should not be redundant with the domain or dictionary classification provided by --DECOD and --BODSYS.,
44,ALL,ALL,--SCAT,--SCAT should not be the same as the domain name,--SCAT ^= null,--SCAT ^= Domain Name,SENDIG v3.0,4.2.6,Text,Values for --CAT and --SCAT should not be redundant with the domain or dictionary classification provided by --DECOD and --BODSYS.,
44,ALL,ALL,--SCAT,--SCAT should not be the same as the domain name,--SCAT ^= null,--SCAT ^= Domain Name,SENDIG v3.1,4.2.6,Text,Values for --CAT and --SCAT should not be redundant with the domain or dictionary classification provided by --DECOD and --BODSYS.,
277,ALL,ALL,ALL,SEND dataset file names are in lowercase.,,SEND dataset file name is in lowercase.,SENDIG v3.0,3.2.1,Text,Location: Folder and filename where the dataset can be found.,
277,ALL,ALL,ALL,SEND dataset file names are in lowercase.,,SEND dataset file name is in lowercase.,SENDIG v3.1,3.2.1,Text,Location: Folder and filename where the dataset can be found.,
1,ALL,ALL,NA,"SEND datasets are named to be consistent with the domain code (xpt file name is the domain abbreviation); exceptions to this rule are RELREC, SUPP, and POOLDEF.",not SUPP OR RELREC OR POOLDEF,SEND dataset file name is the domain abbreviation.,SENDIG v3.0,4.1.4,Text,SDTM datasets are normally named to be consistent with the domain code.,
1,ALL,ALL,NA,"SEND datasets are named to be consistent with the domain code (xpt file name is the domain abbreviation); exceptions to this rule are RELREC, SUPP, and POOLDEF.",not SUPP OR RELREC OR POOLDEF,SEND dataset file name is the domain abbreviation.,SENDIG v3.1,4.1.4,Text,SDTM datasets are normally named to be consistent with the domain code.,
138,"INT, EVT, FND",ALL,--SEQ,Sequence number is assigned to ensure uniqueness of records within a domain for a subject (or pool).,,--SEQ is unique within a USUBJID OR --SEQ is unique within a POOLID,SENDIG v3.0,6.1.1,EXSEQ CDISC Notes,Sequence number given to ensure uniqueness of subject records within a domain. May be any valid number.,
138,"INT, EVT, FND",ALL,--SEQ,Sequence number is assigned to ensure uniqueness of records within a domain for a subject (or pool).,,--SEQ is unique within a USUBJID OR --SEQ is unique within a POOLID,SENDIG v3.1,8,Text,The Sequence Number (--SEQ) variable uniquely identifies a record for a given USUBJID within a domain.,Cited guidance reference updated; no implementation impact.
130,SPC,SE,SESEQ,SESEQ are assigned in chronological order within a subject.  SESTDTC values provide the chronological order of the actual subject elements.,,SESEQ  are assigned in chronological order within a subject,SENDIG v3.0,5.3.1.1,Assumption 6,The values of SESTDTC provide the chronological order of the actual subject Elements.  SESEQ should be assigned to be consistent with the chronological order.,
130.1,SPC,SE,SESEQ,SESEQ values must be assigned in chronological order within a subject.  ,,SESEQ values are in chronological order within a subject,SENDIG v3.1,5.3.1.1,Assumption 7,The values of SESTDTC provide the chronological order of the actual subject Elements.  SESEQ should be assigned to be consistent with the chronological order.,Rule reworded to improve clarity.
128,SPC,SE,"SESTDTC, SEENDTC",SESTDTC and SEENDTC values correspond to the dates of the transition events identified in TE for a given subject.,,SESTDTC and SEENDTC values correspond to the dates of the transition events identified in TE,SENDIG v3.0,5.3.1.1,Assumption 2,The dates in the Subject Elements table are the dates when the transition events identified in the Trial Elements occurred.,
128,SPC,SE,"SESTDTC, SEENDTC",SESTDTC and SEENDTC values correspond to the dates of the transition events identified in TE for a given subject.,,SESTDTC and SEENDTC values correspond to the dates of the transition events identified in TE,SENDIG v3.1,5.3.1.1,Assumption 2,"For any particular subject, the dates in the Subject Elements table are the dates when the transition events identified in the Trial Elements table occurred.",Cited guidance reference updated; no implementation impact.
25,"SPC, TDM","DM, TX",SETCD,SETCD value limited to 8 characters,,--SETCD value length <= 8,SENDIG v3.0,4.2.1,Text,"ETCD (the companion to ELEMENT), SETCD (the short name of a specific Trial Set), and TSPARMCD
(the companion to TSPARM) are limited to 8 characters, but do not have special character restrictions.",
25,"SPC, TDM","DM, TX",SETCD,SETCD value limited to 8 characters,,--SETCD value length <= 8,SENDIG v3.1,4.2.1,Text,"ETCD (the companion to ELEMENT), SETCD (the short name of a specific Trial Set), and TSPARMCD
(the companion to TSPARM) are limited to 8 characters, but do not have special character restrictions.",
125.1,SPC,SE,SEUPDES,SEUPDES is the description of the unplanned element.  This variable should only be populated if ETCD is UNPLAN.,"ETCD = ""UNPLAN""",SEUPDES ^= null,SENDIG v3.0,5.3.1,SEUPDES CDISC Notes,Description of what happened to the subject during this unplanned Element.,Condition format updated.
125.1,SPC,SE,SEUPDES,SEUPDES is the description of the unplanned element.  This variable should only be populated if ETCD is UNPLAN.,"ETCD = ""UNPLAN""",SEUPDES ^= null,SENDIG v3.1,5.3.1,Assumption 5,"For unplanned Elements, ETCD should be populated with “UNPLAN”, ELEMENT should be left blank, and SEUPDES should be populated with a description of the unplanned Element.",Conditon format updated. Updated cited guidance.
99,SPC,DM,SITEID,SITEID should be used if the in-life portion of the study is conducted at different sites and a SITEID should be present for each in-life site,In-life portion is conducted at multiple sites,The SITEID where each subject was housed is present for each subject,SENDIG v3.0,5.1.1,SITEID CDISC Notes,Unique identifier for a study site within a submission. Use only if the in-life part of the study is conducted at different sites.,
99,SPC,DM,SITEID,SITEID should be used if the in-life portion of the study is conducted at different sites and a SITEID should be present for each in-life site,In-life portion is conducted at multiple sites,The SITEID where each subject was housed is present for each subject,SENDIG v3.1,5.1.1,SITEID CDISC Notes,Unique identifier for a study site within a submission. Use only if subjects are housed at different sites.,Cited guidance reference updated; no implementation impact.
98,SPC,DM,SITEID,SITEID should only be used if the in-life portion of the study is conducted at different sites,In-life portion is conducted at a single site,SITEID = null,SENDIG v3.0,5.1.1,SITEID CDISC Notes,Unique identifier for a study site within a submission. Use only if the in-life part of the study is conducted at different sites.,
98,SPC,DM,SITEID,SITEID should only be used if the in-life portion of the study is conducted at different sites,In-life portion is conducted at a single site,SITEID = null,SENDIG v3.1,5.1.1,SITEID CDISC Notes,Unique identifier for a study site within a submission. Use only if subjects are housed at different sites.,Cited guidance reference updated; no implementation impact.
182,FND,"MA,MI",--SPCUFL,"--SPCUFL should be ""N"" or null.",--SPCUFL ^= null,"--SPCUFL = ""N""",SENDIG v3.0,6.3.7 | 6.3.8,--SPCUFL CDISC Notes,Describes the usability of the specimen for the test. Example: N = the specimen is not usable; otherwise null.,
251,TDM,TS,TSPARMCD,"SRANDOM: TSVAL value associated with this TSPARMCD should be either ""Y"" or ""N"".",,"When TSPARMCD = SRANDOM the TSVAL value is  ""Y"" OR ""N""",SENDIG v3.0,7.6.3,SRANDOM CDISC Notes,"SRANDOM: TSVAL values associated with this TSPARMCD would be ""Y"" or ""N"".",
251,TDM,TS,TSPARMCD,"SRANDOM: TSVAL value associated with this TSPARMCD should be either ""Y"" or ""N"".",,"When TSPARMCD = SRANDOM the TSVAL value is  ""Y"" OR ""N""",SENDIG v3.1,7.6.3,SRANDOM CDISC Notes,"TSVAL values associated with this TSPARMCD would be ""Y"" or ""N"".",
78,FND,ALL,--STDTC,--STDTC is not used for data collection (--DTC is used in conjunction with --ENDTC to represent an interval collection),,--STDTC is not present,SENDIG v3.0,4.4.6,Text,"When the date/time of collection is reported in any domain, the date/time should go into the --DTC field...In order to ensure that the critical timing information is always represented in the same variable, the --DTC variable is used to represent the time of specimen collection...Note that --STDTC is not used for collection dates over an interval...",
78,FND,ALL,--STDTC,--STDTC is not used for data collection (--DTC is used in conjunction with --ENDTC to represent an interval collection),,--STDTC is not present,SENDIG v3.1,4.4.6,Text,"When the date/time of collection is reported in any domain, the date/time should go into the --DTC field...In order to ensure that the critical timing information is always represented in the same variable, the --DTC variable is used to represent the time of specimen collection...Note that --STDTC is not used for collection dates over an interval...",
159.1,FND,"CL, MA, MI",--STRESC,--STRESC should contain only the base observation without modifiers ,--ORRES ^= null,--STRESC contains only the base observation without modifiers ,SENDIG v3.0,6.3.3.1 | 6.3.7 | 6.3.8,Assumption 3.b | MASTRESC CDISC Notes | MISTRESC CDISC Notes,"CLSTRESC should contain only the finding without modifiers. | Contains only the base gross pathological observation (e.g., ENLARGED) from MAORRES without any modifiers. | Contains only the base pathological process (e.g., NECROSIS) from MIORRES without any modifiers such as severity, distribution, frequency, grade, etc.",Removed PM domain.
159.1,FND,"CL, MA, MI",--STRESC,--STRESC should contain only the base observation without modifiers ,--ORRES ^= null,--STRESC contains only the base observation without modifiers ,SENDIG v3.1,6.3.3.1 | 6.3.7 | 6.3.8,Assumption 3.b | MASTRESC CDISC Notes | MISTRESC CDISC Notes,"CLSTRESC should contain only the finding without modifiers. | Contains only the base gross pathological observation (e.g., ENLARGED) from MAORRES without any modifiers. | Contains only the base pathological process (e.g., NECROSIS) from MIORRES without any modifiers such as severity, distribution, frequency, grade, etc.",Removed PM domain.
88,FND,ALL,--STRESN,--STRESN will only contain data values if the data values presented in --STRESC are numeric values. --STRESN should be numerically equivalent to --STRESC.,--STRESC = numeric value,--STRESN ^= null and --STRESN = --STRESC,SENDIG v3.0,4.5.1.1,Text,A further step is necessary when --STRESC contains numeric values. These are converted to numeric type and written to --STRESN.,
88,FND,ALL,--STRESN,--STRESN will only contain data values if the data values presented in --STRESC are numeric values. --STRESN should be numerically equivalent to --STRESC.,--STRESC = numeric value,--STRESN ^= null and --STRESN = --STRESC,SENDIG v3.1,4.5.1.1,Text,A further step is necessary when --STRESC contains numeric values. These are converted to numeric type and written to --STRESN.,
NEW SEND RULE 310,SPC,DM,STRAIN,Subjects with different values for SPECIES and/or STRAIN  cannot have the same SETCD value.,,DM records with different values for DM.STRAIN must have different values for DM.SETCD.,SENDIG v3.1,5.1.1.1,Assumption 6,Trial Sets (TX) can have multiple species and/or strains if they are different by set.,New rule identified from cited guidance.
226,TDM,TA,TAETORD,TAETORD provides the order of the planned Element within the Arm.,,TAETORD is unique within an ARM AND TAETORD is in the order in which the Elements occur,SENDIG v3.0,7.3.1.1,Assumtion 3,"Although the values of TAETORD need not always be consecutive, the values must always be populated according to the correct order of the Elements within an Arm, with the first Element equivalent to the lowest value of TAETORD and the last Element equivalent to the highest value of TAETORD.",
226,TDM,TA,TAETORD,TAETORD provides the order of the planned Element within the Arm.,,TAETORD is unique within an ARM AND TAETORD is in the order in which the Elements occur,SENDIG v3.1,7.3.1.1,Assumption 3,"Although the values of TAETORD need not always be consecutive, the values must always be populated according to the correct order of the Elements within an Arm, with the first Element equivalent to the lowest value of TAETORD and the last Element equivalent to the highest value of TAETORD.",
221,TDM,TA,TAETORD,TAETORD: This value should be an integer.,,TAETORD: This value should be an integer.,SENDIG v3.0,7.3.1,TAETORD CDISC Notes,TAETORD: This value should be an integer.,
221,TDM,TA,TAETORD,TAETORD: This value should be an integer.,,TAETORD: This value should be an integer.,SENDIG v3.1,7.3.1,TAETORD CDISC Notes,This value should be an integer.,
215,TDM,TE,TEDUR,TEDUR shall be populated when an Element represents a fixed duration.,Element is a fixed duration,TEDUR ^= null,SENDIG v3.0,7.2.1,TEDUR CDISC Notes,TEDUR: Use when an Element represents a fixed duration.,
215,TDM,TE,TEDUR,TEDUR shall be populated when an Element represents a fixed duration.,Element is a fixed duration,TEDUR ^= null,SENDIG v3.1,7.2.1,TEDUR CDISC Notes,TEDUR: Use when an Element represents a fixed duration.,
189.1,FND,"BW, OM","BWTESTCD, OMTESTCD","Terminal Body Weight belongs in the BW domain, not in the OM domain.",Terminal Body Weight exists,Terminal Body Weight is included in BW AND Terminal Body Weight is not included in OM,SENDIG v3.1,6.3.9.1,Assumption 2,Terminal Body Weight will be recorded in the BW domain.,Rule clarification.
64,FND,ALL,--TEST,--TEST values can not be longer than 40 characters,,--TEST value length <= 40 chars,SENDIG v3.0,4.5.3,Text,"Because of limitations of SAS v5 Transport files, the lengths of data values cannot exceed 200 characters. Because
--TEST values may become column labels upon transformation, the SDTM additionally restricts them to
40 characters.",
64,FND,ALL,--TEST,--TEST values can not be longer than 40 characters,,--TEST value length <= 40 chars,SENDIG v3.1,4.5.2,Text,"Because --TEST values may become column labels upon transformation, the SDTM additionally restricts them to 40 characters.",Cited guidance reference updated; no implementation impact.
17,FND,ALL,--TESTCD,--TESTCD value can not be longer than 8 characters,,--TESTCD value length<= 8 chars,SENDIG v3.0,4.2.1,Text,"Values of --TESTCD and QNAM values must be limited to 8 characters, and cannot start with a number, nor can
they contain characters other than letters, numbers, or underscores.",
17,FND,ALL,--TESTCD,--TESTCD value can not be longer than 8 characters,,--TESTCD value length<= 8 chars,SENDIG v3.1,4.2.1,Text,"Values of --TESTCD and QNAM values must be limited to 8 characters, and cannot start with a number, nor can
they contain characters other than letters, numbers, or underscores.",
18,FND,ALL,--TESTCD,--TESTCD value can not start with a number,,--TESTCD value can not start with a number,SENDIG v3.0,4.2.1,Text,"Values of --TESTCD and QNAM values must be limited to 8 characters, and cannot start with a number, nor can
they contain characters other than letters, numbers, or underscores.",
18,FND,ALL,--TESTCD,--TESTCD value can not start with a number,,--TESTCD value can not start with a number,SENDIG v3.1,4.2.1,Text,"Values of --TESTCD and QNAM values must be limited to 8 characters, and cannot start with a number, nor can
they contain characters other than letters, numbers, or underscores.",
19,FND,ALL,--TESTCD,"--TESTCD value cannot contain characters other than letters, numbers or underscores",,"--TESTCD value cannot contain characters other than letters, numbers or underscores",SENDIG v3.0,4.2.1,Text,"Values of --TESTCD and QNAM values must be limited to 8 characters, and cannot start with a number, nor can
they contain characters other than letters, numbers, or underscores.",
19,FND,ALL,--TESTCD,"--TESTCD value cannot contain characters other than letters, numbers or underscores",,"--TESTCD value cannot contain characters other than letters, numbers or underscores",SENDIG v3.1,4.2.1,Text,"Values of --TESTCD and QNAM values must be limited to 8 characters, and cannot start with a number, nor can
they contain characters other than letters, numbers, or underscores.",
219,TDM,TE,"TESTRL, TEENRL",TESTRL and TEENRL should be expressed without referring to Arm or Epoch.,,TESTRL and TEENRL should be expressed without referring to Arm or Epoch.,SENDIG v3.0,7.2.1.1,Assumtion 11,TESTRL and TEENRL should be expressed without referring to Arm or Epoch.,
219,TDM,TE,"TESTRL, TEENRL",TESTRL and TEENRL should be expressed without referring to Arm or Epoch.,,TESTRL and TEENRL should be expressed without referring to Arm or Epoch.,SENDIG v3.1,7.2.1.1,Assumption 12,TESTRL and TEENRL should be expressed without referring to Arm or Epoch.,
218,TDM,TE,TESTRL,TESTRL should refer to an event for which a date/time will be captured during the course of the study.,,TESTRL should refer to an event for which a date/time will be captured during the course of the study.,SENDIG v3.0,7.2.1.1,Assumption 10,"Note that the date/time of the event that starts an Element, which is described in TESTRL, will be used to populate the SESTDTC date/times in the Subject Elements dataset. Therefore, the TESTRL should refer to a date/time which will be captured during the course of the study.",
218,TDM,TE,TESTRL,TESTRL should refer to an event for which a date/time will be captured during the course of the study.,,TESTRL should refer to an event for which a date/time will be captured during the course of the study.,SENDIG v3.1,7.2.1.1,Assumption 11,"Note that the date/time of the event that starts an Element, which is described in TESTRL, will be used to populate the SESTDTC date/times in the Subject Elements dataset. Therefore, the TESTRL should refer to an event of that the date/time will be captured during the course of the study.  ",
201,FND,TF,TFDTHREL,"TFDTHREL must be ""Y"", ""N"", or ""U""",,"TFDTHREL = ""Y"" OR TFDTHREL = ""N"" OR TFDTHREL = ""U""",SENDIG v3.0,6.3.14,TFDTHREL CDISC Notes,"TFDTHREL: Describes the relationship of a particular finding to the death of a subject.
Y if the tumor was the cause of death, N if the tumor was not the cause of death, or U for Unknown. Null cannot be used because the variable is required.",Rule not applicable to SENDIG v3.1 and SENDIG v3.1.1.  
223,SPC,DM,ARMCD,The ARMCD value in DM for a given subject must exist in TA.,,DM.ARMCD exists in TA.ARMCD,SENDIG v3.0,7.3.1.1,Assumption 2,"ARM and ARMCD values in DM and TA must coincide (ARM and ARMCD are defined as the planned trial arms in TA, and the planned arms are then applied to subjects in DM).",
223,SPC,DM,ARMCD,The ARMCD value in DM for a given subject must exist in TA.,,DM.ARMCD exists in TA.ARMCD,SENDIG v3.1,7.3.1.1,Assumption 2,"ARM and ARMCD values in DM and TA must coincide (ARM and ARMCD are defined as the planned Trial Arms in TA, and the planned Arms are then applied to subjects in DM).",Cited guidance reference updated; no implementation impact.
NEW SEND RULE 296,ALL,ALL,GEN,The CDISC published Controlled Terminology indicates whether a particular codelist is extensible or not. New terms cannot be added into non-extensible codelists.,CDISC published Controlled Terminology indicates that a codelist is non-extensible,Only terms from the CDISC published Controlled Terminology codelist are used,SENDIG v3.1,4.3.1,Text,The SEND CT indicates whether a particular codelist is extensible or not.,New rule identified from cited guidance.
70,ALL,ALL,GEN,The completeness of the representation of the date/time must be the same on both sides of the solidus when a concatenation of the beginning and end of an interval of uncertainty are used to present an interval.,Date/time includes an interval of uncertainty,Interval of uncertainty is presented by concatenating the beginning and end of the interval with a solidus; the level of completeness for the beginning and the end of the interval of uncertainty are the same,SENDIG v3.0,4.4.2,Text,"To represent these intervals while applying the ISO 8601 standard, it is recommended that the sponsor concatenate
the date/time values (using the most complete representation of the date/time known) that describe the beginning
and the end of the interval of uncertainty and separate them with a solidus as shown in the table below. Note that the
completeness of the representation of the date/time must be the same on both sides of the solidus.",
70,ALL,ALL,GEN,The completeness of the representation of the date/time must be the same on both sides of the solidus when a concatenation of the beginning and end of an interval of uncertainty are used to present an interval.,Date/time includes an interval of uncertainty,Interval of uncertainty is presented by concatenating the beginning and end of the interval with a solidus; the level of completeness for the beginning and the end of the interval of uncertainty are the same,SENDIG v3.1,4.4.2,Text,"To represent these intervals while applying the ISO 8601 standard, it is recommended that the sponsor concatenate the date/time values that describe the beginning and the end of the interval of uncertainty (using the most complete representation of the dates/times known) and separate them with a solidus as shown in the table below.",Cited guidance reference updated; no implementation impact.
137,INT,EX,EXDOSE,The Define-XML document contains an explanation of EXDOSE values with respect for intended or actual dose levels.,,Define-XML document contains entry for EXDOSE (explanation of value as intended or actual dose levels).,SENDIG v3.0,6.1.1.1,Assumption 4,EXDOSE: The sponsor's data definition file should indicate whether the values in EXDOSE represent intended or actual dose levels.,
137,INT,EX,EXDOSE,The Define-XML document contains an explanation of EXDOSE values with respect for intended or actual dose levels.,,Define-XML document contains entry for EXDOSE (explanation of value as intended or actual dose levels).,SENDIG v3.1,6.1.1.1,Assumption 4,EXDOSE: The sponsor's data definition file should indicate whether the values in EXDOSE represent intended or actual dose levels.,
16,ALL,ALL,DOMAIN,The domain abbreviation must match Controlled Terminology and must match the domain abbreviation in the SENDIG.,NOT custom domain OR SUPP OR RELREC OR POOLID,DOMAIN = valid Domain Code published by CDISC,SENDIG v3.0,4.1.4,Text,See SEND CT for a list of standard and reserved domain codes,
16,ALL,ALL,DOMAIN,The domain abbreviation must match Controlled Terminology and must match the domain abbreviation in the SENDIG.,NOT custom domain OR SUPP OR RELREC OR POOLID,DOMAIN = valid Domain Code published by CDISC,SENDIG v3.1,4.1.4,Text,See SEND CT for a list of standard and reserved domain codes,
157,FND,"CL, PM, MA, MI, TF",--SPID,"The mass identification should be unique within the subject, regardless of mass location.",,--SPID unique for a single mass within USUBJID,SENDIG v3.0,6.3.3,CLSPID CDSIC Notes,"The mass identification should be unique within the subject, regardless of mass location.",
157,FND,"CL, PM, MA, MI, TF",--SPID,"The mass identification should be unique within the subject, regardless of mass location.",,--SPID unique for a single mass within USUBJID,SENDIG v3.1,6.3.3,CLSPID CDSIC Notes,"The mass identification should be unique within the subject, regardless of mass location.",
247,TDM,TS,"TSPARMCD, TSPARM","The parameters listed as ""Yes"" in the ""Should Include"" column should always be included in the Trial Summary dataset, in order to provide proper study definition. (AGEU, SDESIGN, DOSDUR, EXPENDTC, EXPSTDTC, GLPTYP, ROUTE, SNDIGVER, SNDCTVER, SPECIES, SPLRNAM, SPREFID, SSPONSOR, STCAT, STDIR, STRAIN, STSTDTC, STITLE, SSTYP, TRT, TFCNTRY, TSTFLOC, TSTFNAM, TRMSAC, TRTCAS, TRTV)",,"At least one record exists in TS for each TSPARMCD marked ""Yes"" in the ""Should Include"" column in 7.6.3",SENDIG v3.0,7.6.1 | 7.6.3,Assumption 8,"The TSPARMCD values marked as ""Yes"" in the ""Should Include"" column in Section 7.6.3 following the examples should be included in a well-formed TS domain submission. These TSPARMCD values are expected to occur in almost all studies and may be necessary for clear interpretation of the data package domain submission. These TSPARMCD values are expected to occur in almost all studies and may be necessary for clear interpretation of the data package.",
247.1,TDM,TS,TSPARMCD,"The parameters listed as “Yes” in the “Should Include” column should always be included in the Trial Summary dataset, in order to provide proper study definition. ",,"At least one record exists in TS for each TSPARMCD marked ""Yes"" in the ""Should Include"" column in Section 7.6.3",SENDIG v3.1,7.6.1.1,Assumption 8,"The TSPARMCD values marked as “Yes” in the “Should Include” column in Section 7.6.3 following the examples should be included in a well-formed TS domain submission. These TSPARMCD values are expected to occur in almost all studies and may be necessary for clear interpretation of the data package. In the event that these values cannot be populated, the TSPARMCD should still be present in the dataset, with an empty (NULL) TSVAL and TSVALNF populated with the appropriate null flavor describing why the value cannot be populated.",Versioned to reflect cited guidance change. 
71.1,ALL,ALL,"--DY, --STDY, --ENDY","(--DY, --STDY, and --ENDY) describe the relative day of the observation starting with the reference date as Day 1.  ",--DY ^= null OR --STDY ^= null OR --ENDY ^= null,"--DY, --STDY, and --ENDY describe the relative day of the observation starting with the reference date of Day 1",SENDIG v3.0,4.4.4,Text,"The Permissible Study Day variables (--DY, --STDY, and --ENDY) describe the relative day of the observation starting with the reference date as Day 1. ",Updated plain text and condition format.
94,FND,ALL,"--ORRES,--STRESC","The precision of numeric, derived data presented in --ORRES and --STRESC should contain the correct number of significant figures as determined by the calculation performed to derive the data.",,--ORRES AND --STRESC for derived data = correct number of significant figures as determined by the calculation performed to derive the data,SENDIG v3.0,4.5.1.2,Text,"For numeric derived data, --ORRES and --STRESC should contain the correct number of significant figures based upon the calculation used to derive the value.",
94,FND,ALL,"--ORRES,--STRESC","The precision of numeric, derived data presented in --ORRES and --STRESC should contain the correct number of significant figures as determined by the calculation performed to derive the data.",,--ORRES AND --STRESC for derived data = correct number of significant figures as determined by the calculation performed to derive the data,SENDIG v3.1,4.5.1.2,Text,"For numeric derived data, --ORRES and --STRESC should contain the correct number of significant figures based upon the calculation used to derive the value.",
93,FND,ALL,--ORRES,"The precision of the numeric, non-derived data presented in --ORRES should be consistent with the precision in which the result was collected.",,--ORRES precision = precision of data collection,SENDIG v3.0,4.5.1.2,Text,"For numeric non-derived data, --ORRES should be presented at the meaningful precision to which the result was
collected.",
93,FND,ALL,--ORRES,"The precision of the numeric, non-derived data presented in --ORRES should be consistent with the precision in which the result was collected.",,--ORRES precision = precision of data collection,SENDIG v3.1,4.5.1.2,Text,"For numeric non-derived data, --ORRES should be presented at the meaningful precision to which the result was
collected.",
276,ALL,ALL,ALL,The predefined SENDIG-standard labels must be used in all standard domains.,Variable label is present in the SENDIG,Variable label must match the variable label in the SENDIG,SENDIG v3.0,4.2.1,Text,Sponsors must use the predefined SENDIG-standard labels in all standard domains.,
276,ALL,ALL,ALL,The predefined SENDIG-standard labels must be used in all standard domains.,Variable label is present in the SENDIG,Variable label must match the variable label in the SENDIG,SENDIG v3.1,4.2.1,Text,Sponsors must use the predefined SENDIG-standard labels in all standard domains.,
49,ALL,ALL,GEN,The SENDIG will identify when a CDISC published Controlled Terminology Codelist applies to a variable.  If a CDISC published Controlled Terminology Codelist exists it must be used.,CDISC published Controlled Terminology Codelist applies to a variable,CDISC published Controlled Terminology Codelist is used,SENDIG v3.0,4.3.1,Text,"If a controlled terminology codelist exists for a variable in a SEND domain, the name of the codelist will be populated in the Controlled Terms, Codelist, or Format column of the domain model to indicate that a distinct set of controlled values exist and is expected to be used.",
49,ALL,ALL,GEN,The SENDIG will identify when a CDISC published Controlled Terminology Codelist applies to a variable.  If a CDISC published Controlled Terminology Codelist exists it must be used.,CDISC published Controlled Terminology Codelist applies to a variable,CDISC published Controlled Terminology Codelist is used,SENDIG v3.1,4.3.1,Text,"If a controlled terminology codelist exists for a variable in a SEND domain, the name of the codelist will be populated in the Controlled Terms, Codelist, or Format column of the domain model to indicate that a distinct set of controlled values exist and is expected to be used.",
NEW SEND RULE 311,SPC,CO,COSEQ,"The sequence number must be unique for each record within a USUBJID or POOLID, whichever applies for the record.",USUBJID ^= null,--SEQ is unique within a USUBJID,SENDIG v3.1,5.2,COSEQ CDISC Notes,"The sequence number must be unique for each record within a USUBJID or POOLID, whichever applies for the record.",New rule identified from cited guidance.
NEW SEND RULE 312,SPC,CO,COSEQ,"The sequence number must be unique for each record within a USUBJID or POOLID, whichever applies for the record.",POOLID ^= null,--SEQ is unique within a POOLID,SENDIG v3.1,5.2,COSEQ CDISC Notes,"The sequence number must be unique for each record within a USUBJID or POOLID, whichever applies for the record.",New rule identified from cited guidance.
238,TDM,TX,SET,The SET variable must contain information which distinguishes the Trial Sets from each other.,,The SET variable must contain information which distinguishes the Trial Sets from each other.,SENDIG v3.0,7.4.1.1,Assumption 8,"In general, each Set should have a distinct combination of TXPARMCD, TXPARM, and TXVAL whenever possible. If two Trial Sets (identified by distinct SETCD values) have the same set of TXPARMCD, TXPARM, and TXVAL entries, the SET variable must contain information which distinguishes the two Trial Sets from each other.",
238,TDM,TX,SET,The SET variable must contain information which distinguishes the Trial Sets from each other.,,The SET variable must contain information which distinguishes the Trial Sets from each other.,SENDIG v3.1,7.4.1.1,Assumption 8,"In general, each Set should have a distinct combination of TXPARMCD, TXPARM, and TXVAL whenever possible. If two Trial Sets (identified by distinct SETCD values) have the same set of TXPARMCD, TXPARM, and TXVAL entries, the SET variable must contain nformation that distinguishes the two Trial Sets from each other.",
162,FND,"CL, PM, MA, MI, TF",--SPID,"The --SPID variable is intended to reflect the mass identification. The value of --SPID should be consistent across domains (CL, PM, MA, MI, and TF).","if the same mass is present in CL, PM, MA, MI, AND/OR TF",CLSPID = PMSPID = MASPID = MISPID = TFSPID,SENDIG v3.0,6.3.3.1,Assumption 4,"CLSPID variable is intended to reflect the mass identification. This variable should be used to link in-life findings with pathology findings. For a carcinogenicity study, the mass identifier in --SPID should be consistent across domains (CL, PM, MA, MI, and TF).",
162,FND,"CL, PM, MA, MI, TF",--SPID,"The --SPID variable is intended to reflect the mass identification. The value of --SPID should be consistent across domains (CL, PM, MA, MI, and TF).","if the same mass is present in CL, PM, MA, MI, AND/OR TF",CLSPID = PMSPID = MASPID = MISPID = TFSPID,SENDIG v3.1,6.3.3.1,Assumption 4,"CLSPID variable is intended to reflect the identifier for any observed masses. This variable should be used to link in-life findings with pathology findings. For a carcinogenicity study, the mass identifier in --SPID should be consistent across domains (CL, PM, MA, MI, and TF).",Cited guidance reference updated; no implementation impact.
249.1,ALL,ALL,STUDYID,The STUDYID in all domains must be the same in all records across the study. ,,STUDYID is the same for all records within the study,SENDIG v3.1,5.1.1,STUDYID CDISC Notes,Unique identifier for a study.,Updated to first applicable cited guidance and clarified rule.
249,ALL,ALL,STUDYID,The STUDYID in all domains must match the STUDYID in TS.,,STUDYID = TS.STUDYID,SENDIG v3.0,7.6.1,Text | STUDYID CDISC Notes,Trial Summary is used to record basic information about the study such as study title...STUDYID...Unique identifier for a study within the submission.,
189,FND,BW,BWTESTCD,"The Terminal Body Weight is presented in BW using the BWTESTCD ""TERMBW"".  The Terminal Body Weight is not presented in OM.",Terminal Body Weight exists,"BWTESTCD  = ""TERMBW""",SENDIG v3.0,6.3.9.1,Assumption 2,Terminal Body Weight will be recorded in the BW domain and this is indicated by the test code (BWTESTCD) of TERMBW.,
246,TDM,TS,TSSEQ,The TSSEQ variable is a unique identifier for each record and is required to identify each record as unique in cases where the same TSPARMCD is used within the dataset.,Multiple records have the same TSPARMCD,Each of the records with the same TSPARMCD have a unique TSSEQ,SENDIG v3.0,7.6.1.1,Assumption 7,The TSSEQ variable is a unique identifier for each record and is Required to identify each record as unique in cases where the same TSPARMCD is used within the dataset. The TSSEQ variable must be populated for all records within the TS dataset.,Cited guidance reference updated; no implementation impact.
246,TDM,TS,TSSEQ,The TSSEQ variable is a unique identifier for each record and is required to identify each record as unique in cases where the same TSPARMCD is used within the dataset.,Multiple records have the same TSPARMCD,Each of the records with the same TSPARMCD have a unique TSSEQ,SENDIG v3.1,7.6.1.1,Assumption 7,"The TSSEQ variable is Required to identify each record as unique, in cases where the same TSPARMCD is used within the dataset. The TSSEQ variable must be populated for all records within the TS dataset.",Cited guidance reference updated; no implementation impact.
239,TDM,TX,TXPARMCD,"The TXPARMCD values marked as ""Yes"" in the ""Should Include"" column in Section 7.4.2 should be included for each set.",,"The TXPARMCD values marked as ""Yes"" in the ""Should Include"" column in Section 7.4.2 should be included for each set.",SENDIG v3.0,7.4.1.1 | 7.4.2,Assumption 10,"The TXPARMCD values marked as ""Yes"" in the ""Should Include"" column in Section 7.4.2 should be included in a well-formed TX domain submission. These TXPARMCD values are expected to occur in almost all studies and may be necessary for clear interpretation of the data package.",
