<?xml version="1.0" encoding="UTF-8"?>
<?xml-stylesheet type="text/xsl" href="define2-0-0.xsl"?>
<ODM xmlns="http://www.cdisc.org/ns/odm/v1.3" xmlns:xlink="http://www.w3.org/1999/xlink" xmlns:def="http://www.cdisc.org/ns/def/v2.0" FileOID="/ZYX-CBA001/Define-XML_2.0.0/1.0" ODMVersion="1.3.2" FileType="Snapshot" CreationDateTime="2019-12-06T14:14:51" Originator="ABC-XYZ Pharmaceuticals" SourceSystem="DataDefine" SourceSystemVersion="2.1.1">
  <Study OID="ZYX-CBA001">
    <GlobalVariables>
      <StudyName>ZYX-CBA001</StudyName>
      <StudyDescription>An Intramuscular Repeated Dose of 456a Vaccine in New Zealand White Rabbits with a 3 Week Recovery Period</StudyDescription>
      <ProtocolName>CBER-POC</ProtocolName>
    </GlobalVariables>
    <MetaDataVersion OID="MDV.ZYX-CBA001.SEND-IG.3.1.SDTM.1.2" Name="Study ZYX-CBA001, Data Definitions" Description="Study ZYX-CBA001, Data Definitions" def:DefineVersion="2.0.0" def:StandardName="SEND-IG" def:StandardVersion="3.1">
      <def:SupplementalDoc>
        <def:DocumentRef leafID="LF.nsdrg"/>
      </def:SupplementalDoc>
      <def:ValueListDef OID="VL.BW.BWORRES">
        <ItemRef ItemOID="IT.BW.BWORRES.BW" OrderNumber="1" Mandatory="No">
          <def:WhereClauseRef WhereClauseOID="WC.BW.BWORRES.BW"/>
        </ItemRef>
        <ItemRef ItemOID="IT.BW.BWORRES.TERMBW" OrderNumber="2" Mandatory="No">
          <def:WhereClauseRef WhereClauseOID="WC.BW.BWORRES.TERMBW"/>
        </ItemRef>
      </def:ValueListDef>
      <def:ValueListDef OID="VL.FW.FWORRES">
        <ItemRef ItemOID="IT.FW.FWORRES.FC" OrderNumber="1" Mandatory="No">
          <def:WhereClauseRef WhereClauseOID="WC.FW.FWORRES.FC"/>
        </ItemRef>
      </def:ValueListDef>
      <def:ValueListDef OID="VL.LB.LBORRES">
        <ItemRef ItemOID="IT.LB.LBORRES.ALB" OrderNumber="1" Mandatory="No">
          <def:WhereClauseRef WhereClauseOID="WC.LB.LBORRES.ALB"/>
        </ItemRef>
        <ItemRef ItemOID="IT.LB.LBORRES.ALBGLOB" OrderNumber="2" Mandatory="No">
          <def:WhereClauseRef WhereClauseOID="WC.LB.LBORRES.ALBGLOB"/>
        </ItemRef>
        <ItemRef ItemOID="IT.LB.LBORRES.ALP" OrderNumber="3" Mandatory="No">
          <def:WhereClauseRef WhereClauseOID="WC.LB.LBORRES.ALP"/>
        </ItemRef>
        <ItemRef ItemOID="IT.LB.LBORRES.ALT" OrderNumber="4" Mandatory="No">
          <def:WhereClauseRef WhereClauseOID="WC.LB.LBORRES.ALT"/>
        </ItemRef>
        <ItemRef ItemOID="IT.LB.LBORRES.ANISO" OrderNumber="5" Mandatory="No">
          <def:WhereClauseRef WhereClauseOID="WC.LB.LBORRES.ANISO"/>
        </ItemRef>
        <ItemRef ItemOID="IT.LB.LBORRES.APPEAR" OrderNumber="6" Mandatory="No">
          <def:WhereClauseRef WhereClauseOID="WC.LB.LBORRES.APPEAR"/>
        </ItemRef>
        <ItemRef ItemOID="IT.LB.LBORRES.APTT" OrderNumber="7" Mandatory="No">
          <def:WhereClauseRef WhereClauseOID="WC.LB.LBORRES.APTT"/>
        </ItemRef>
        <ItemRef ItemOID="IT.LB.LBORRES.AST" OrderNumber="8" Mandatory="No">
          <def:WhereClauseRef WhereClauseOID="WC.LB.LBORRES.AST"/>
        </ItemRef>
        <ItemRef ItemOID="IT.LB.LBORRES.BASO" OrderNumber="9" Mandatory="No">
          <def:WhereClauseRef WhereClauseOID="WC.LB.LBORRES.BASO"/>
        </ItemRef>
        <ItemRef ItemOID="IT.LB.LBORRES.BILI" OrderNumber="10" Mandatory="No">
          <def:WhereClauseRef WhereClauseOID="WC.LB.LBORRES.BILI"/>
        </ItemRef>
        <ItemRef ItemOID="IT.LB.LBORRES.CA" OrderNumber="11" Mandatory="No">
          <def:WhereClauseRef WhereClauseOID="WC.LB.LBORRES.CA"/>
        </ItemRef>
        <ItemRef ItemOID="IT.LB.LBORRES.CHOL" OrderNumber="12" Mandatory="No">
          <def:WhereClauseRef WhereClauseOID="WC.LB.LBORRES.CHOL"/>
        </ItemRef>
        <ItemRef ItemOID="IT.LB.LBORRES.CK" OrderNumber="13" Mandatory="No">
          <def:WhereClauseRef WhereClauseOID="WC.LB.LBORRES.CK"/>
        </ItemRef>
        <ItemRef ItemOID="IT.LB.LBORRES.CL" OrderNumber="14" Mandatory="No">
          <def:WhereClauseRef WhereClauseOID="WC.LB.LBORRES.CL"/>
        </ItemRef>
        <ItemRef ItemOID="IT.LB.LBORRES.CREAT" OrderNumber="15" Mandatory="No">
          <def:WhereClauseRef WhereClauseOID="WC.LB.LBORRES.CREAT"/>
        </ItemRef>
        <ItemRef ItemOID="IT.LB.LBORRES.CRENCE" OrderNumber="16" Mandatory="No">
          <def:WhereClauseRef WhereClauseOID="WC.LB.LBORRES.CRENCE"/>
        </ItemRef>
        <ItemRef ItemOID="IT.LB.LBORRES.CRP" OrderNumber="17" Mandatory="No">
          <def:WhereClauseRef WhereClauseOID="WC.LB.LBORRES.CRP"/>
        </ItemRef>
        <ItemRef ItemOID="IT.LB.LBORRES.EOS" OrderNumber="18" Mandatory="No">
          <def:WhereClauseRef WhereClauseOID="WC.LB.LBORRES.EOS"/>
        </ItemRef>
        <ItemRef ItemOID="IT.LB.LBORRES.FIBRINO" OrderNumber="19" Mandatory="No">
          <def:WhereClauseRef WhereClauseOID="WC.LB.LBORRES.FIBRINO"/>
        </ItemRef>
        <ItemRef ItemOID="IT.LB.LBORRES.GGT" OrderNumber="20" Mandatory="No">
          <def:WhereClauseRef WhereClauseOID="WC.LB.LBORRES.GGT"/>
        </ItemRef>
        <ItemRef ItemOID="IT.LB.LBORRES.GLOBUL" OrderNumber="21" Mandatory="No">
          <def:WhereClauseRef WhereClauseOID="WC.LB.LBORRES.GLOBUL"/>
        </ItemRef>
        <ItemRef ItemOID="IT.LB.LBORRES.GLUC" OrderNumber="22" Mandatory="No">
          <def:WhereClauseRef WhereClauseOID="WC.LB.LBORRES.GLUC"/>
        </ItemRef>
        <ItemRef ItemOID="IT.LB.LBORRES.HCT" OrderNumber="23" Mandatory="No">
          <def:WhereClauseRef WhereClauseOID="WC.LB.LBORRES.HCT"/>
        </ItemRef>
        <ItemRef ItemOID="IT.LB.LBORRES.HGB" OrderNumber="24" Mandatory="No">
          <def:WhereClauseRef WhereClauseOID="WC.LB.LBORRES.HGB"/>
        </ItemRef>
        <ItemRef ItemOID="IT.LB.LBORRES.K" OrderNumber="25" Mandatory="No">
          <def:WhereClauseRef WhereClauseOID="WC.LB.LBORRES.K"/>
        </ItemRef>
        <ItemRef ItemOID="IT.LB.LBORRES.LGUNSCE" OrderNumber="26" Mandatory="No">
          <def:WhereClauseRef WhereClauseOID="WC.LB.LBORRES.LGUNSCE"/>
        </ItemRef>
        <ItemRef ItemOID="IT.LB.LBORRES.LYM" OrderNumber="27" Mandatory="No">
          <def:WhereClauseRef WhereClauseOID="WC.LB.LBORRES.LYM"/>
        </ItemRef>
        <ItemRef ItemOID="IT.LB.LBORRES.MCH" OrderNumber="28" Mandatory="No">
          <def:WhereClauseRef WhereClauseOID="WC.LB.LBORRES.MCH"/>
        </ItemRef>
        <ItemRef ItemOID="IT.LB.LBORRES.MCHC" OrderNumber="29" Mandatory="No">
          <def:WhereClauseRef WhereClauseOID="WC.LB.LBORRES.MCHC"/>
        </ItemRef>
        <ItemRef ItemOID="IT.LB.LBORRES.MCV" OrderNumber="30" Mandatory="No">
          <def:WhereClauseRef WhereClauseOID="WC.LB.LBORRES.MCV"/>
        </ItemRef>
        <ItemRef ItemOID="IT.LB.LBORRES.MONO" OrderNumber="31" Mandatory="No">
          <def:WhereClauseRef WhereClauseOID="WC.LB.LBORRES.MONO"/>
        </ItemRef>
        <ItemRef ItemOID="IT.LB.LBORRES.NEUT" OrderNumber="32" Mandatory="No">
          <def:WhereClauseRef WhereClauseOID="WC.LB.LBORRES.NEUT"/>
        </ItemRef>
        <ItemRef ItemOID="IT.LB.LBORRES.PHOS" OrderNumber="33" Mandatory="No">
          <def:WhereClauseRef WhereClauseOID="WC.LB.LBORRES.PHOS"/>
        </ItemRef>
        <ItemRef ItemOID="IT.LB.LBORRES.PLAT" OrderNumber="34" Mandatory="No">
          <def:WhereClauseRef WhereClauseOID="WC.LB.LBORRES.PLAT"/>
        </ItemRef>
        <ItemRef ItemOID="IT.LB.LBORRES.PLATCLMP" OrderNumber="35" Mandatory="No">
          <def:WhereClauseRef WhereClauseOID="WC.LB.LBORRES.PLATCLMP"/>
        </ItemRef>
        <ItemRef ItemOID="IT.LB.LBORRES.PLTMORPH" OrderNumber="36" Mandatory="No">
          <def:WhereClauseRef WhereClauseOID="WC.LB.LBORRES.PLTMORPH"/>
        </ItemRef>
        <ItemRef ItemOID="IT.LB.LBORRES.POLYCHR" OrderNumber="37" Mandatory="No">
          <def:WhereClauseRef WhereClauseOID="WC.LB.LBORRES.POLYCHR"/>
        </ItemRef>
        <ItemRef ItemOID="IT.LB.LBORRES.PROT" OrderNumber="38" Mandatory="No">
          <def:WhereClauseRef WhereClauseOID="WC.LB.LBORRES.PROT"/>
        </ItemRef>
        <ItemRef ItemOID="IT.LB.LBORRES.PT" OrderNumber="39" Mandatory="No">
          <def:WhereClauseRef WhereClauseOID="WC.LB.LBORRES.PT"/>
        </ItemRef>
        <ItemRef ItemOID="IT.LB.LBORRES.RBC" OrderNumber="40" Mandatory="No">
          <def:WhereClauseRef WhereClauseOID="WC.LB.LBORRES.RBC"/>
        </ItemRef>
        <ItemRef ItemOID="IT.LB.LBORRES.RBCNUCLE" OrderNumber="41" Mandatory="No">
          <def:WhereClauseRef WhereClauseOID="WC.LB.LBORRES.RBCNUCLE"/>
        </ItemRef>
        <ItemRef ItemOID="IT.LB.LBORRES.RDW" OrderNumber="42" Mandatory="No">
          <def:WhereClauseRef WhereClauseOID="WC.LB.LBORRES.RDW"/>
        </ItemRef>
        <ItemRef ItemOID="IT.LB.LBORRES.RETI" OrderNumber="43" Mandatory="No">
          <def:WhereClauseRef WhereClauseOID="WC.LB.LBORRES.RETI"/>
        </ItemRef>
        <ItemRef ItemOID="IT.LB.LBORRES.SODIUM" OrderNumber="44" Mandatory="No">
          <def:WhereClauseRef WhereClauseOID="WC.LB.LBORRES.SODIUM"/>
        </ItemRef>
        <ItemRef ItemOID="IT.LB.LBORRES.TRIG" OrderNumber="45" Mandatory="No">
          <def:WhereClauseRef WhereClauseOID="WC.LB.LBORRES.TRIG"/>
        </ItemRef>
        <ItemRef ItemOID="IT.LB.LBORRES.UREA" OrderNumber="46" Mandatory="No">
          <def:WhereClauseRef WhereClauseOID="WC.LB.LBORRES.UREA"/>
        </ItemRef>
        <ItemRef ItemOID="IT.LB.LBORRES.WBC" OrderNumber="47" Mandatory="No">
          <def:WhereClauseRef WhereClauseOID="WC.LB.LBORRES.WBC"/>
        </ItemRef>
        <ItemRef ItemOID="IT.LB.LBORRES.WBCMORPH" OrderNumber="48" Mandatory="No">
          <def:WhereClauseRef WhereClauseOID="WC.LB.LBORRES.WBCMORPH"/>
        </ItemRef>
      </def:ValueListDef>
      <def:ValueListDef OID="VL.OM.OMORRES">
        <ItemRef ItemOID="IT.OM.OMORRES.OWBR" OrderNumber="1" Mandatory="No" MethodOID="MT.COMPOWBR">
          <def:WhereClauseRef WhereClauseOID="WC.OM.OMORRES.OWBR"/>
        </ItemRef>
        <ItemRef ItemOID="IT.OM.OMORRES.OWBW" OrderNumber="2" Mandatory="No" MethodOID="MT.COMPOWBW">
          <def:WhereClauseRef WhereClauseOID="WC.OM.OMORRES.OWBW"/>
        </ItemRef>
        <ItemRef ItemOID="IT.OM.OMORRES.WEIGHT" OrderNumber="3" Mandatory="No">
          <def:WhereClauseRef WhereClauseOID="WC.OM.OMORRES.WEIGHT"/>
        </ItemRef>
      </def:ValueListDef>
      <def:ValueListDef OID="VL.SUPPMA.QVAL">
        <ItemRef ItemOID="IT.SUPPMA.QVAL.MARESMOD" OrderNumber="1" Mandatory="No">
          <def:WhereClauseRef WhereClauseOID="WC.SUPPMA.QVAL.MARESMOD"/>
        </ItemRef>
      </def:ValueListDef>
      <def:ValueListDef OID="VL.SUPPMI.QVAL">
        <ItemRef ItemOID="IT.SUPPMI.QVAL.MIRESMOD" OrderNumber="1" Mandatory="No">
          <def:WhereClauseRef WhereClauseOID="WC.SUPPMI.QVAL.MIRESMOD"/>
        </ItemRef>
      </def:ValueListDef>
      <def:ValueListDef OID="VL.TS.TSVAL">
        <ItemRef ItemOID="IT.TS.TSVAL.AGETXT" OrderNumber="1" Mandatory="No">
          <def:WhereClauseRef WhereClauseOID="WC.TS.TSVAL.AGETXT"/>
        </ItemRef>
        <ItemRef ItemOID="IT.TS.TSVAL.AGEU" OrderNumber="2" Mandatory="No">
          <def:WhereClauseRef WhereClauseOID="WC.TS.TSVAL.AGEU"/>
        </ItemRef>
        <ItemRef ItemOID="IT.TS.TSVAL.DIET" OrderNumber="3" Mandatory="No">
          <def:WhereClauseRef WhereClauseOID="WC.TS.TSVAL.DIET"/>
        </ItemRef>
        <ItemRef ItemOID="IT.TS.TSVAL.DOSDUR" OrderNumber="4" Mandatory="No">
          <def:WhereClauseRef WhereClauseOID="WC.TS.TSVAL.DOSDUR"/>
        </ItemRef>
        <ItemRef ItemOID="IT.TS.TSVAL.DOSENDTC" OrderNumber="5" Mandatory="No">
          <def:WhereClauseRef WhereClauseOID="WC.TS.TSVAL.DOSENDTC"/>
        </ItemRef>
        <ItemRef ItemOID="IT.TS.TSVAL.DOSSTDTC" OrderNumber="6" Mandatory="No">
          <def:WhereClauseRef WhereClauseOID="WC.TS.TSVAL.DOSSTDTC"/>
        </ItemRef>
        <ItemRef ItemOID="IT.TS.TSVAL.ENVTEMP" OrderNumber="7" Mandatory="No">
          <def:WhereClauseRef WhereClauseOID="WC.TS.TSVAL.ENVTEMP"/>
        </ItemRef>
        <ItemRef ItemOID="IT.TS.TSVAL.ENVTEMPU" OrderNumber="8" Mandatory="No">
          <def:WhereClauseRef WhereClauseOID="WC.TS.TSVAL.ENVTEMPU"/>
        </ItemRef>
        <ItemRef ItemOID="IT.TS.TSVAL.EXPENDTC" OrderNumber="9" Mandatory="No">
          <def:WhereClauseRef WhereClauseOID="WC.TS.TSVAL.EXPENDTC"/>
        </ItemRef>
        <ItemRef ItemOID="IT.TS.TSVAL.EXPSTDTC" OrderNumber="10" Mandatory="No">
          <def:WhereClauseRef WhereClauseOID="WC.TS.TSVAL.EXPSTDTC"/>
        </ItemRef>
        <ItemRef ItemOID="IT.TS.TSVAL.FEEDREG" OrderNumber="11" Mandatory="No">
          <def:WhereClauseRef WhereClauseOID="WC.TS.TSVAL.FEEDREG"/>
        </ItemRef>
        <ItemRef ItemOID="IT.TS.TSVAL.GLPFL" OrderNumber="12" Mandatory="No">
          <def:WhereClauseRef WhereClauseOID="WC.TS.TSVAL.GLPFL"/>
        </ItemRef>
        <ItemRef ItemOID="IT.TS.TSVAL.GLPTYP" OrderNumber="13" Mandatory="No">
          <def:WhereClauseRef WhereClauseOID="WC.TS.TSVAL.GLPTYP"/>
        </ItemRef>
        <ItemRef ItemOID="IT.TS.TSVAL.HOUSEGRP" OrderNumber="14" Mandatory="No">
          <def:WhereClauseRef WhereClauseOID="WC.TS.TSVAL.HOUSEGRP"/>
        </ItemRef>
        <ItemRef ItemOID="IT.TS.TSVAL.HOUSETYP" OrderNumber="15" Mandatory="No">
          <def:WhereClauseRef WhereClauseOID="WC.TS.TSVAL.HOUSETYP"/>
        </ItemRef>
        <ItemRef ItemOID="IT.TS.TSVAL.HUMIDT" OrderNumber="16" Mandatory="No">
          <def:WhereClauseRef WhereClauseOID="WC.TS.TSVAL.HUMIDT"/>
        </ItemRef>
        <ItemRef ItemOID="IT.TS.TSVAL.HUMIDTU" OrderNumber="17" Mandatory="No">
          <def:WhereClauseRef WhereClauseOID="WC.TS.TSVAL.HUMIDTU"/>
        </ItemRef>
        <ItemRef ItemOID="IT.TS.TSVAL.IDMETH" OrderNumber="18" Mandatory="No">
          <def:WhereClauseRef WhereClauseOID="WC.TS.TSVAL.IDMETH"/>
        </ItemRef>
        <ItemRef ItemOID="IT.TS.TSVAL.LIGHT" OrderNumber="19" Mandatory="No">
          <def:WhereClauseRef WhereClauseOID="WC.TS.TSVAL.LIGHT"/>
        </ItemRef>
        <ItemRef ItemOID="IT.TS.TSVAL.MTHTRM" OrderNumber="20" Mandatory="No">
          <def:WhereClauseRef WhereClauseOID="WC.TS.TSVAL.MTHTRM"/>
        </ItemRef>
        <ItemRef ItemOID="IT.TS.TSVAL.PCLASS" OrderNumber="21" Mandatory="No">
          <def:WhereClauseRef WhereClauseOID="WC.TS.TSVAL.PCLASS"/>
        </ItemRef>
        <ItemRef ItemOID="IT.TS.TSVAL.PINV" OrderNumber="22" Mandatory="No">
          <def:WhereClauseRef WhereClauseOID="WC.TS.TSVAL.PINV"/>
        </ItemRef>
        <ItemRef ItemOID="IT.TS.TSVAL.PPL" OrderNumber="23" Mandatory="No">
          <def:WhereClauseRef WhereClauseOID="WC.TS.TSVAL.PPL"/>
        </ItemRef>
        <ItemRef ItemOID="IT.TS.TSVAL.RECSAC" OrderNumber="24" Mandatory="No">
          <def:WhereClauseRef WhereClauseOID="WC.TS.TSVAL.RECSAC"/>
        </ItemRef>
        <ItemRef ItemOID="IT.TS.TSVAL.ROUTE" OrderNumber="25" Mandatory="No">
          <def:WhereClauseRef WhereClauseOID="WC.TS.TSVAL.ROUTE"/>
        </ItemRef>
        <ItemRef ItemOID="IT.TS.TSVAL.SDESIGN" OrderNumber="26" Mandatory="No">
          <def:WhereClauseRef WhereClauseOID="WC.TS.TSVAL.SDESIGN"/>
        </ItemRef>
        <ItemRef ItemOID="IT.TS.TSVAL.SEXPOP" OrderNumber="27" Mandatory="No">
          <def:WhereClauseRef WhereClauseOID="WC.TS.TSVAL.SEXPOP"/>
        </ItemRef>
        <ItemRef ItemOID="IT.TS.TSVAL.SLENGTH" OrderNumber="28" Mandatory="No">
          <def:WhereClauseRef WhereClauseOID="WC.TS.TSVAL.SLENGTH"/>
        </ItemRef>
        <ItemRef ItemOID="IT.TS.TSVAL.SNDCTVER" OrderNumber="29" Mandatory="No">
          <def:WhereClauseRef WhereClauseOID="WC.TS.TSVAL.SNDCTVER"/>
        </ItemRef>
        <ItemRef ItemOID="IT.TS.TSVAL.SNDIGVER" OrderNumber="30" Mandatory="No">
          <def:WhereClauseRef WhereClauseOID="WC.TS.TSVAL.SNDIGVER"/>
        </ItemRef>
        <ItemRef ItemOID="IT.TS.TSVAL.SPECIES" OrderNumber="31" Mandatory="No">
          <def:WhereClauseRef WhereClauseOID="WC.TS.TSVAL.SPECIES"/>
        </ItemRef>
        <ItemRef ItemOID="IT.TS.TSVAL.SPLANSUB" OrderNumber="32" Mandatory="No">
          <def:WhereClauseRef WhereClauseOID="WC.TS.TSVAL.SPLANSUB"/>
        </ItemRef>
        <ItemRef ItemOID="IT.TS.TSVAL.SPLRLOC" OrderNumber="33" Mandatory="No">
          <def:WhereClauseRef WhereClauseOID="WC.TS.TSVAL.SPLRLOC"/>
        </ItemRef>
        <ItemRef ItemOID="IT.TS.TSVAL.SPLRNAM" OrderNumber="34" Mandatory="No">
          <def:WhereClauseRef WhereClauseOID="WC.TS.TSVAL.SPLRNAM"/>
        </ItemRef>
        <ItemRef ItemOID="IT.TS.TSVAL.SPREFID" OrderNumber="35" Mandatory="No">
          <def:WhereClauseRef WhereClauseOID="WC.TS.TSVAL.SPREFID"/>
        </ItemRef>
        <ItemRef ItemOID="IT.TS.TSVAL.SRANDOM" OrderNumber="36" Mandatory="No">
          <def:WhereClauseRef WhereClauseOID="WC.TS.TSVAL.SRANDOM"/>
        </ItemRef>
        <ItemRef ItemOID="IT.TS.TSVAL.SSPONSOR" OrderNumber="37" Mandatory="No">
          <def:WhereClauseRef WhereClauseOID="WC.TS.TSVAL.SSPONSOR"/>
        </ItemRef>
        <ItemRef ItemOID="IT.TS.TSVAL.SSTYP" OrderNumber="38" Mandatory="No">
          <def:WhereClauseRef WhereClauseOID="WC.TS.TSVAL.SSTYP"/>
        </ItemRef>
        <ItemRef ItemOID="IT.TS.TSVAL.STCAT" OrderNumber="39" Mandatory="No">
          <def:WhereClauseRef WhereClauseOID="WC.TS.TSVAL.STCAT"/>
        </ItemRef>
        <ItemRef ItemOID="IT.TS.TSVAL.STDIR" OrderNumber="40" Mandatory="No">
          <def:WhereClauseRef WhereClauseOID="WC.TS.TSVAL.STDIR"/>
        </ItemRef>
        <ItemRef ItemOID="IT.TS.TSVAL.STENDTC" OrderNumber="41" Mandatory="No">
          <def:WhereClauseRef WhereClauseOID="WC.TS.TSVAL.STENDTC"/>
        </ItemRef>
        <ItemRef ItemOID="IT.TS.TSVAL.STITLE" OrderNumber="42" Mandatory="No">
          <def:WhereClauseRef WhereClauseOID="WC.TS.TSVAL.STITLE"/>
        </ItemRef>
        <ItemRef ItemOID="IT.TS.TSVAL.STMON" OrderNumber="43" Mandatory="No">
          <def:WhereClauseRef WhereClauseOID="WC.TS.TSVAL.STMON"/>
        </ItemRef>
        <ItemRef ItemOID="IT.TS.TSVAL.STRAIN" OrderNumber="44" Mandatory="No">
          <def:WhereClauseRef WhereClauseOID="WC.TS.TSVAL.STRAIN"/>
        </ItemRef>
        <ItemRef ItemOID="IT.TS.TSVAL.STSTDTC" OrderNumber="45" Mandatory="No">
          <def:WhereClauseRef WhereClauseOID="WC.TS.TSVAL.STSTDTC"/>
        </ItemRef>
        <ItemRef ItemOID="IT.TS.TSVAL.TFCNTRY" OrderNumber="46" Mandatory="No">
          <def:WhereClauseRef WhereClauseOID="WC.TS.TSVAL.TFCNTRY"/>
        </ItemRef>
        <ItemRef ItemOID="IT.TS.TSVAL.TRMSAC" OrderNumber="47" Mandatory="No">
          <def:WhereClauseRef WhereClauseOID="WC.TS.TSVAL.TRMSAC"/>
        </ItemRef>
        <ItemRef ItemOID="IT.TS.TSVAL.TRT" OrderNumber="48" Mandatory="No">
          <def:WhereClauseRef WhereClauseOID="WC.TS.TSVAL.TRT"/>
        </ItemRef>
        <ItemRef ItemOID="IT.TS.TSVAL.TRTCAS" OrderNumber="49" Mandatory="No">
          <def:WhereClauseRef WhereClauseOID="WC.TS.TSVAL.TRTCAS"/>
        </ItemRef>
        <ItemRef ItemOID="IT.TS.TSVAL.TRTUNII" OrderNumber="50" Mandatory="No">
          <def:WhereClauseRef WhereClauseOID="WC.TS.TSVAL.TRTUNII"/>
        </ItemRef>
        <ItemRef ItemOID="IT.TS.TSVAL.TRTV" OrderNumber="51" Mandatory="No">
          <def:WhereClauseRef WhereClauseOID="WC.TS.TSVAL.TRTV"/>
        </ItemRef>
        <ItemRef ItemOID="IT.TS.TSVAL.TSCNTRY" OrderNumber="52" Mandatory="No">
          <def:WhereClauseRef WhereClauseOID="WC.TS.TSVAL.TSCNTRY"/>
        </ItemRef>
        <ItemRef ItemOID="IT.TS.TSVAL.TSLOC" OrderNumber="53" Mandatory="No">
          <def:WhereClauseRef WhereClauseOID="WC.TS.TSVAL.TSLOC"/>
        </ItemRef>
        <ItemRef ItemOID="IT.TS.TSVAL.TSNAM" OrderNumber="54" Mandatory="No">
          <def:WhereClauseRef WhereClauseOID="WC.TS.TSVAL.TSNAM"/>
        </ItemRef>
        <ItemRef ItemOID="IT.TS.TSVAL.TSTFLOC" OrderNumber="55" Mandatory="No">
          <def:WhereClauseRef WhereClauseOID="WC.TS.TSVAL.TSTFLOC"/>
        </ItemRef>
        <ItemRef ItemOID="IT.TS.TSVAL.TSTFNAM" OrderNumber="56" Mandatory="No">
          <def:WhereClauseRef WhereClauseOID="WC.TS.TSVAL.TSTFNAM"/>
        </ItemRef>
        <ItemRef ItemOID="IT.TS.TSVAL.WATER" OrderNumber="57" Mandatory="No">
          <def:WhereClauseRef WhereClauseOID="WC.TS.TSVAL.WATER"/>
        </ItemRef>
      </def:ValueListDef>
      <def:ValueListDef OID="VL.TX.TXVAL">
        <ItemRef ItemOID="IT.TX.TXVAL.ARMCD" OrderNumber="1" Mandatory="No">
          <def:WhereClauseRef WhereClauseOID="WC.TX.TXVAL.ARMCD"/>
        </ItemRef>
        <ItemRef ItemOID="IT.TX.TXVAL.GRPLBL" OrderNumber="2" Mandatory="No">
          <def:WhereClauseRef WhereClauseOID="WC.TX.TXVAL.GRPLBL"/>
        </ItemRef>
        <ItemRef ItemOID="IT.TX.TXVAL.PLANFSUB" OrderNumber="3" Mandatory="No">
          <def:WhereClauseRef WhereClauseOID="WC.TX.TXVAL.PLANFSUB"/>
        </ItemRef>
        <ItemRef ItemOID="IT.TX.TXVAL.PLANMSUB" OrderNumber="4" Mandatory="No">
          <def:WhereClauseRef WhereClauseOID="WC.TX.TXVAL.PLANMSUB"/>
        </ItemRef>
        <ItemRef ItemOID="IT.TX.TXVAL.SETLBL" OrderNumber="5" Mandatory="No">
          <def:WhereClauseRef WhereClauseOID="WC.TX.TXVAL.SETLBL"/>
        </ItemRef>
        <ItemRef ItemOID="IT.TX.TXVAL.SPGRPCD" OrderNumber="6" Mandatory="No">
          <def:WhereClauseRef WhereClauseOID="WC.TX.TXVAL.SPGRPCD"/>
        </ItemRef>
        <ItemRef ItemOID="IT.TX.TXVAL.SPLANSUB" OrderNumber="7" Mandatory="No">
          <def:WhereClauseRef WhereClauseOID="WC.TX.TXVAL.SPLANSUB"/>
        </ItemRef>
        <ItemRef ItemOID="IT.TX.TXVAL.TCNTRL" OrderNumber="8" Mandatory="No">
          <def:WhereClauseRef WhereClauseOID="WC.TX.TXVAL.TCNTRL"/>
        </ItemRef>
        <ItemRef ItemOID="IT.TX.TXVAL.TRTDOS" OrderNumber="9" Mandatory="No">
          <def:WhereClauseRef WhereClauseOID="WC.TX.TXVAL.TRTDOS"/>
        </ItemRef>
        <ItemRef ItemOID="IT.TX.TXVAL.TRTDOSU" OrderNumber="10" Mandatory="No">
          <def:WhereClauseRef WhereClauseOID="WC.TX.TXVAL.TRTDOSU"/>
        </ItemRef>
      </def:ValueListDef>
      <def:ValueListDef OID="VL.VS.VSORRES">
        <ItemRef ItemOID="IT.VS.VSORRES.TEMP" OrderNumber="1" Mandatory="No">
          <def:WhereClauseRef WhereClauseOID="WC.VS.VSORRES.TEMP"/>
        </ItemRef>
      </def:ValueListDef>
      <def:WhereClauseDef OID="WC.BW.BWORRES.BW">
        <RangeCheck SoftHard="Soft" def:ItemOID="IT.BW.BWTESTCD" Comparator="EQ">
          <CheckValue>BW</CheckValue>
        </RangeCheck>
      </def:WhereClauseDef>
      <def:WhereClauseDef OID="WC.BW.BWORRES.TERMBW">
        <RangeCheck SoftHard="Soft" def:ItemOID="IT.BW.BWTESTCD" Comparator="EQ">
          <CheckValue>TERMBW</CheckValue>
        </RangeCheck>
      </def:WhereClauseDef>
      <def:WhereClauseDef OID="WC.FW.FWORRES.FC">
        <RangeCheck SoftHard="Soft" def:ItemOID="IT.FW.FWTESTCD" Comparator="EQ">
          <CheckValue>FC</CheckValue>
        </RangeCheck>
      </def:WhereClauseDef>
      <def:WhereClauseDef OID="WC.LB.LBORRES.ALB">
        <RangeCheck SoftHard="Soft" def:ItemOID="IT.LB.LBTESTCD" Comparator="EQ">
          <CheckValue>ALB</CheckValue>
        </RangeCheck>
        <RangeCheck SoftHard="Soft" def:ItemOID="IT.LB.LBSPEC" Comparator="EQ">
          <CheckValue>PLASMA</CheckValue>
        </RangeCheck>
        <RangeCheck SoftHard="Soft" def:ItemOID="IT.LB.LBCAT" Comparator="EQ">
          <CheckValue>CLINICAL CHEMISTRY</CheckValue>
        </RangeCheck>
      </def:WhereClauseDef>
      <def:WhereClauseDef OID="WC.LB.LBORRES.ALBGLOB">
        <RangeCheck SoftHard="Soft" def:ItemOID="IT.LB.LBTESTCD" Comparator="EQ">
          <CheckValue>ALBGLOB</CheckValue>
        </RangeCheck>
        <RangeCheck SoftHard="Soft" def:ItemOID="IT.LB.LBSPEC" Comparator="EQ">
          <CheckValue>PLASMA</CheckValue>
        </RangeCheck>
        <RangeCheck SoftHard="Soft" def:ItemOID="IT.LB.LBCAT" Comparator="EQ">
          <CheckValue>CLINICAL CHEMISTRY</CheckValue>
        </RangeCheck>
      </def:WhereClauseDef>
      <def:WhereClauseDef OID="WC.LB.LBORRES.ALP">
        <RangeCheck SoftHard="Soft" def:ItemOID="IT.LB.LBTESTCD" Comparator="EQ">
          <CheckValue>ALP</CheckValue>
        </RangeCheck>
        <RangeCheck SoftHard="Soft" def:ItemOID="IT.LB.LBSPEC" Comparator="EQ">
          <CheckValue>PLASMA</CheckValue>
        </RangeCheck>
        <RangeCheck SoftHard="Soft" def:ItemOID="IT.LB.LBCAT" Comparator="EQ">
          <CheckValue>CLINICAL CHEMISTRY</CheckValue>
        </RangeCheck>
      </def:WhereClauseDef>
      <def:WhereClauseDef OID="WC.LB.LBORRES.ALT">
        <RangeCheck SoftHard="Soft" def:ItemOID="IT.LB.LBTESTCD" Comparator="EQ">
          <CheckValue>ALT</CheckValue>
        </RangeCheck>
        <RangeCheck SoftHard="Soft" def:ItemOID="IT.LB.LBSPEC" Comparator="EQ">
          <CheckValue>PLASMA</CheckValue>
        </RangeCheck>
        <RangeCheck SoftHard="Soft" def:ItemOID="IT.LB.LBCAT" Comparator="EQ">
          <CheckValue>CLINICAL CHEMISTRY</CheckValue>
        </RangeCheck>
      </def:WhereClauseDef>
      <def:WhereClauseDef OID="WC.LB.LBORRES.ANISO">
        <RangeCheck SoftHard="Soft" def:ItemOID="IT.LB.LBTESTCD" Comparator="EQ">
          <CheckValue>ANISO</CheckValue>
        </RangeCheck>
        <RangeCheck SoftHard="Soft" def:ItemOID="IT.LB.LBSPEC" Comparator="EQ">
          <CheckValue>WHOLE BLOOD</CheckValue>
        </RangeCheck>
        <RangeCheck SoftHard="Soft" def:ItemOID="IT.LB.LBCAT" Comparator="EQ">
          <CheckValue>HEMATOLOGY</CheckValue>
        </RangeCheck>
        <RangeCheck SoftHard="Soft" def:ItemOID="IT.LB.LBMETHOD" Comparator="EQ">
          <CheckValue>Microscopic examination</CheckValue>
        </RangeCheck>
      </def:WhereClauseDef>
      <def:WhereClauseDef OID="WC.LB.LBORRES.APPEAR">
        <RangeCheck SoftHard="Soft" def:ItemOID="IT.LB.LBTESTCD" Comparator="EQ">
          <CheckValue>APPEAR</CheckValue>
        </RangeCheck>
        <RangeCheck SoftHard="Soft" def:ItemOID="IT.LB.LBSPEC" Comparator="EQ">
          <CheckValue>PLASMA</CheckValue>
        </RangeCheck>
        <RangeCheck SoftHard="Soft" def:ItemOID="IT.LB.LBCAT" Comparator="EQ">
          <CheckValue>COAGULATION</CheckValue>
        </RangeCheck>
      </def:WhereClauseDef>
      <def:WhereClauseDef OID="WC.LB.LBORRES.APTT">
        <RangeCheck SoftHard="Soft" def:ItemOID="IT.LB.LBTESTCD" Comparator="EQ">
          <CheckValue>APTT</CheckValue>
        </RangeCheck>
        <RangeCheck SoftHard="Soft" def:ItemOID="IT.LB.LBSPEC" Comparator="EQ">
          <CheckValue>PLASMA</CheckValue>
        </RangeCheck>
        <RangeCheck SoftHard="Soft" def:ItemOID="IT.LB.LBCAT" Comparator="EQ">
          <CheckValue>COAGULATION</CheckValue>
        </RangeCheck>
      </def:WhereClauseDef>
      <def:WhereClauseDef OID="WC.LB.LBORRES.AST">
        <RangeCheck SoftHard="Soft" def:ItemOID="IT.LB.LBTESTCD" Comparator="EQ">
          <CheckValue>AST</CheckValue>
        </RangeCheck>
        <RangeCheck SoftHard="Soft" def:ItemOID="IT.LB.LBSPEC" Comparator="EQ">
          <CheckValue>PLASMA</CheckValue>
        </RangeCheck>
        <RangeCheck SoftHard="Soft" def:ItemOID="IT.LB.LBCAT" Comparator="EQ">
          <CheckValue>CLINICAL CHEMISTRY</CheckValue>
        </RangeCheck>
      </def:WhereClauseDef>
      <def:WhereClauseDef OID="WC.LB.LBORRES.BASO">
        <RangeCheck SoftHard="Soft" def:ItemOID="IT.LB.LBTESTCD" Comparator="EQ">
          <CheckValue>BASO</CheckValue>
        </RangeCheck>
        <RangeCheck SoftHard="Soft" def:ItemOID="IT.LB.LBSPEC" Comparator="EQ">
          <CheckValue>WHOLE BLOOD</CheckValue>
        </RangeCheck>
        <RangeCheck SoftHard="Soft" def:ItemOID="IT.LB.LBCAT" Comparator="EQ">
          <CheckValue>HEMATOLOGY</CheckValue>
        </RangeCheck>
        <RangeCheck SoftHard="Soft" def:ItemOID="IT.LB.LBMETHOD" Comparator="EQ">
          <CheckValue>Calculated</CheckValue>
        </RangeCheck>
      </def:WhereClauseDef>
      <def:WhereClauseDef OID="WC.LB.LBORRES.BILI">
        <RangeCheck SoftHard="Soft" def:ItemOID="IT.LB.LBTESTCD" Comparator="EQ">
          <CheckValue>BILI</CheckValue>
        </RangeCheck>
        <RangeCheck SoftHard="Soft" def:ItemOID="IT.LB.LBSPEC" Comparator="EQ">
          <CheckValue>PLASMA</CheckValue>
        </RangeCheck>
        <RangeCheck SoftHard="Soft" def:ItemOID="IT.LB.LBCAT" Comparator="EQ">
          <CheckValue>CLINICAL CHEMISTRY</CheckValue>
        </RangeCheck>
      </def:WhereClauseDef>
      <def:WhereClauseDef OID="WC.LB.LBORRES.CA">
        <RangeCheck SoftHard="Soft" def:ItemOID="IT.LB.LBTESTCD" Comparator="EQ">
          <CheckValue>CA</CheckValue>
        </RangeCheck>
        <RangeCheck SoftHard="Soft" def:ItemOID="IT.LB.LBSPEC" Comparator="EQ">
          <CheckValue>PLASMA</CheckValue>
        </RangeCheck>
        <RangeCheck SoftHard="Soft" def:ItemOID="IT.LB.LBCAT" Comparator="EQ">
          <CheckValue>CLINICAL CHEMISTRY</CheckValue>
        </RangeCheck>
      </def:WhereClauseDef>
      <def:WhereClauseDef OID="WC.LB.LBORRES.CHOL">
        <RangeCheck SoftHard="Soft" def:ItemOID="IT.LB.LBTESTCD" Comparator="EQ">
          <CheckValue>CHOL</CheckValue>
        </RangeCheck>
        <RangeCheck SoftHard="Soft" def:ItemOID="IT.LB.LBSPEC" Comparator="EQ">
          <CheckValue>PLASMA</CheckValue>
        </RangeCheck>
        <RangeCheck SoftHard="Soft" def:ItemOID="IT.LB.LBCAT" Comparator="EQ">
          <CheckValue>CLINICAL CHEMISTRY</CheckValue>
        </RangeCheck>
      </def:WhereClauseDef>
      <def:WhereClauseDef OID="WC.LB.LBORRES.CK">
        <RangeCheck SoftHard="Soft" def:ItemOID="IT.LB.LBTESTCD" Comparator="EQ">
          <CheckValue>CK</CheckValue>
        </RangeCheck>
        <RangeCheck SoftHard="Soft" def:ItemOID="IT.LB.LBSPEC" Comparator="EQ">
          <CheckValue>PLASMA</CheckValue>
        </RangeCheck>
        <RangeCheck SoftHard="Soft" def:ItemOID="IT.LB.LBCAT" Comparator="EQ">
          <CheckValue>CLINICAL CHEMISTRY</CheckValue>
        </RangeCheck>
      </def:WhereClauseDef>
      <def:WhereClauseDef OID="WC.LB.LBORRES.CL">
        <RangeCheck SoftHard="Soft" def:ItemOID="IT.LB.LBTESTCD" Comparator="EQ">
          <CheckValue>CL</CheckValue>
        </RangeCheck>
        <RangeCheck SoftHard="Soft" def:ItemOID="IT.LB.LBSPEC" Comparator="EQ">
          <CheckValue>PLASMA</CheckValue>
        </RangeCheck>
        <RangeCheck SoftHard="Soft" def:ItemOID="IT.LB.LBCAT" Comparator="EQ">
          <CheckValue>CLINICAL CHEMISTRY</CheckValue>
        </RangeCheck>
      </def:WhereClauseDef>
      <def:WhereClauseDef OID="WC.LB.LBORRES.CREAT">
        <RangeCheck SoftHard="Soft" def:ItemOID="IT.LB.LBTESTCD" Comparator="EQ">
          <CheckValue>CREAT</CheckValue>
        </RangeCheck>
        <RangeCheck SoftHard="Soft" def:ItemOID="IT.LB.LBSPEC" Comparator="EQ">
          <CheckValue>PLASMA</CheckValue>
        </RangeCheck>
        <RangeCheck SoftHard="Soft" def:ItemOID="IT.LB.LBCAT" Comparator="EQ">
          <CheckValue>CLINICAL CHEMISTRY</CheckValue>
        </RangeCheck>
      </def:WhereClauseDef>
      <def:WhereClauseDef OID="WC.LB.LBORRES.CRENCE">
        <RangeCheck SoftHard="Soft" def:ItemOID="IT.LB.LBTESTCD" Comparator="EQ">
          <CheckValue>CRENCE</CheckValue>
        </RangeCheck>
        <RangeCheck SoftHard="Soft" def:ItemOID="IT.LB.LBSPEC" Comparator="EQ">
          <CheckValue>WHOLE BLOOD</CheckValue>
        </RangeCheck>
        <RangeCheck SoftHard="Soft" def:ItemOID="IT.LB.LBCAT" Comparator="EQ">
          <CheckValue>HEMATOLOGY</CheckValue>
        </RangeCheck>
        <RangeCheck SoftHard="Soft" def:ItemOID="IT.LB.LBMETHOD" Comparator="EQ">
          <CheckValue>Microscopic examination</CheckValue>
        </RangeCheck>
      </def:WhereClauseDef>
      <def:WhereClauseDef OID="WC.LB.LBORRES.CRP">
        <RangeCheck SoftHard="Soft" def:ItemOID="IT.LB.LBTESTCD" Comparator="EQ">
          <CheckValue>CRP</CheckValue>
        </RangeCheck>
        <RangeCheck SoftHard="Soft" def:ItemOID="IT.LB.LBSPEC" Comparator="EQ">
          <CheckValue>PLASMA</CheckValue>
        </RangeCheck>
        <RangeCheck SoftHard="Soft" def:ItemOID="IT.LB.LBCAT" Comparator="EQ">
          <CheckValue>CLINICAL CHEMISTRY</CheckValue>
        </RangeCheck>
        <RangeCheck SoftHard="Soft" def:ItemOID="IT.LB.LBMETHOD" Comparator="EQ">
          <CheckValue>HIGH SENSITIVITY</CheckValue>
        </RangeCheck>
      </def:WhereClauseDef>
      <def:WhereClauseDef OID="WC.LB.LBORRES.EOS">
        <RangeCheck SoftHard="Soft" def:ItemOID="IT.LB.LBTESTCD" Comparator="EQ">
          <CheckValue>EOS</CheckValue>
        </RangeCheck>
        <RangeCheck SoftHard="Soft" def:ItemOID="IT.LB.LBSPEC" Comparator="EQ">
          <CheckValue>WHOLE BLOOD</CheckValue>
        </RangeCheck>
        <RangeCheck SoftHard="Soft" def:ItemOID="IT.LB.LBCAT" Comparator="EQ">
          <CheckValue>HEMATOLOGY</CheckValue>
        </RangeCheck>
        <RangeCheck SoftHard="Soft" def:ItemOID="IT.LB.LBMETHOD" Comparator="EQ">
          <CheckValue>Calculated</CheckValue>
        </RangeCheck>
      </def:WhereClauseDef>
      <def:WhereClauseDef OID="WC.LB.LBORRES.FIBRINO">
        <RangeCheck SoftHard="Soft" def:ItemOID="IT.LB.LBTESTCD" Comparator="EQ">
          <CheckValue>FIBRINO</CheckValue>
        </RangeCheck>
        <RangeCheck SoftHard="Soft" def:ItemOID="IT.LB.LBSPEC" Comparator="EQ">
          <CheckValue>PLASMA</CheckValue>
        </RangeCheck>
        <RangeCheck SoftHard="Soft" def:ItemOID="IT.LB.LBCAT" Comparator="EQ">
          <CheckValue>COAGULATION</CheckValue>
        </RangeCheck>
      </def:WhereClauseDef>
      <def:WhereClauseDef OID="WC.LB.LBORRES.GGT">
        <RangeCheck SoftHard="Soft" def:ItemOID="IT.LB.LBTESTCD" Comparator="EQ">
          <CheckValue>GGT</CheckValue>
        </RangeCheck>
        <RangeCheck SoftHard="Soft" def:ItemOID="IT.LB.LBSPEC" Comparator="EQ">
          <CheckValue>PLASMA</CheckValue>
        </RangeCheck>
        <RangeCheck SoftHard="Soft" def:ItemOID="IT.LB.LBCAT" Comparator="EQ">
          <CheckValue>CLINICAL CHEMISTRY</CheckValue>
        </RangeCheck>
      </def:WhereClauseDef>
      <def:WhereClauseDef OID="WC.LB.LBORRES.GLOBUL">
        <RangeCheck SoftHard="Soft" def:ItemOID="IT.LB.LBTESTCD" Comparator="EQ">
          <CheckValue>GLOBUL</CheckValue>
        </RangeCheck>
        <RangeCheck SoftHard="Soft" def:ItemOID="IT.LB.LBSPEC" Comparator="EQ">
          <CheckValue>PLASMA</CheckValue>
        </RangeCheck>
        <RangeCheck SoftHard="Soft" def:ItemOID="IT.LB.LBCAT" Comparator="EQ">
          <CheckValue>CLINICAL CHEMISTRY</CheckValue>
        </RangeCheck>
      </def:WhereClauseDef>
      <def:WhereClauseDef OID="WC.LB.LBORRES.GLUC">
        <RangeCheck SoftHard="Soft" def:ItemOID="IT.LB.LBTESTCD" Comparator="EQ">
          <CheckValue>GLUC</CheckValue>
        </RangeCheck>
        <RangeCheck SoftHard="Soft" def:ItemOID="IT.LB.LBSPEC" Comparator="EQ">
          <CheckValue>PLASMA</CheckValue>
        </RangeCheck>
        <RangeCheck SoftHard="Soft" def:ItemOID="IT.LB.LBCAT" Comparator="EQ">
          <CheckValue>CLINICAL CHEMISTRY</CheckValue>
        </RangeCheck>
      </def:WhereClauseDef>
      <def:WhereClauseDef OID="WC.LB.LBORRES.HCT">
        <RangeCheck SoftHard="Soft" def:ItemOID="IT.LB.LBTESTCD" Comparator="EQ">
          <CheckValue>HCT</CheckValue>
        </RangeCheck>
        <RangeCheck SoftHard="Soft" def:ItemOID="IT.LB.LBSPEC" Comparator="EQ">
          <CheckValue>WHOLE BLOOD</CheckValue>
        </RangeCheck>
        <RangeCheck SoftHard="Soft" def:ItemOID="IT.LB.LBCAT" Comparator="EQ">
          <CheckValue>HEMATOLOGY</CheckValue>
        </RangeCheck>
      </def:WhereClauseDef>
      <def:WhereClauseDef OID="WC.LB.LBORRES.HGB">
        <RangeCheck SoftHard="Soft" def:ItemOID="IT.LB.LBTESTCD" Comparator="EQ">
          <CheckValue>HGB</CheckValue>
        </RangeCheck>
        <RangeCheck SoftHard="Soft" def:ItemOID="IT.LB.LBSPEC" Comparator="EQ">
          <CheckValue>WHOLE BLOOD</CheckValue>
        </RangeCheck>
        <RangeCheck SoftHard="Soft" def:ItemOID="IT.LB.LBCAT" Comparator="EQ">
          <CheckValue>HEMATOLOGY</CheckValue>
        </RangeCheck>
        <RangeCheck SoftHard="Soft" def:ItemOID="IT.LB.LBMETHOD" Comparator="EQ">
          <CheckValue>Colorimetric</CheckValue>
        </RangeCheck>
      </def:WhereClauseDef>
      <def:WhereClauseDef OID="WC.LB.LBORRES.K">
        <RangeCheck SoftHard="Soft" def:ItemOID="IT.LB.LBTESTCD" Comparator="EQ">
          <CheckValue>K</CheckValue>
        </RangeCheck>
        <RangeCheck SoftHard="Soft" def:ItemOID="IT.LB.LBSPEC" Comparator="EQ">
          <CheckValue>PLASMA</CheckValue>
        </RangeCheck>
        <RangeCheck SoftHard="Soft" def:ItemOID="IT.LB.LBCAT" Comparator="EQ">
          <CheckValue>CLINICAL CHEMISTRY</CheckValue>
        </RangeCheck>
      </def:WhereClauseDef>
      <def:WhereClauseDef OID="WC.LB.LBORRES.LGUNSCE">
        <RangeCheck SoftHard="Soft" def:ItemOID="IT.LB.LBTESTCD" Comparator="EQ">
          <CheckValue>LGUNSCE</CheckValue>
        </RangeCheck>
        <RangeCheck SoftHard="Soft" def:ItemOID="IT.LB.LBSPEC" Comparator="EQ">
          <CheckValue>WHOLE BLOOD</CheckValue>
        </RangeCheck>
        <RangeCheck SoftHard="Soft" def:ItemOID="IT.LB.LBCAT" Comparator="EQ">
          <CheckValue>HEMATOLOGY</CheckValue>
        </RangeCheck>
        <RangeCheck SoftHard="Soft" def:ItemOID="IT.LB.LBMETHOD" Comparator="EQ">
          <CheckValue>Calculated</CheckValue>
        </RangeCheck>
      </def:WhereClauseDef>
      <def:WhereClauseDef OID="WC.LB.LBORRES.LYM">
        <RangeCheck SoftHard="Soft" def:ItemOID="IT.LB.LBTESTCD" Comparator="EQ">
          <CheckValue>LYM</CheckValue>
        </RangeCheck>
        <RangeCheck SoftHard="Soft" def:ItemOID="IT.LB.LBSPEC" Comparator="EQ">
          <CheckValue>WHOLE BLOOD</CheckValue>
        </RangeCheck>
        <RangeCheck SoftHard="Soft" def:ItemOID="IT.LB.LBCAT" Comparator="EQ">
          <CheckValue>HEMATOLOGY</CheckValue>
        </RangeCheck>
        <RangeCheck SoftHard="Soft" def:ItemOID="IT.LB.LBMETHOD" Comparator="EQ">
          <CheckValue>Calculated</CheckValue>
        </RangeCheck>
      </def:WhereClauseDef>
      <def:WhereClauseDef OID="WC.LB.LBORRES.MCH">
        <RangeCheck SoftHard="Soft" def:ItemOID="IT.LB.LBTESTCD" Comparator="EQ">
          <CheckValue>MCH</CheckValue>
        </RangeCheck>
        <RangeCheck SoftHard="Soft" def:ItemOID="IT.LB.LBSPEC" Comparator="EQ">
          <CheckValue>WHOLE BLOOD</CheckValue>
        </RangeCheck>
        <RangeCheck SoftHard="Soft" def:ItemOID="IT.LB.LBCAT" Comparator="EQ">
          <CheckValue>HEMATOLOGY</CheckValue>
        </RangeCheck>
        <RangeCheck SoftHard="Soft" def:ItemOID="IT.LB.LBMETHOD" Comparator="EQ">
          <CheckValue>Calculated</CheckValue>
        </RangeCheck>
      </def:WhereClauseDef>
      <def:WhereClauseDef OID="WC.LB.LBORRES.MCHC">
        <RangeCheck SoftHard="Soft" def:ItemOID="IT.LB.LBTESTCD" Comparator="EQ">
          <CheckValue>MCHC</CheckValue>
        </RangeCheck>
        <RangeCheck SoftHard="Soft" def:ItemOID="IT.LB.LBSPEC" Comparator="EQ">
          <CheckValue>WHOLE BLOOD</CheckValue>
        </RangeCheck>
        <RangeCheck SoftHard="Soft" def:ItemOID="IT.LB.LBCAT" Comparator="EQ">
          <CheckValue>HEMATOLOGY</CheckValue>
        </RangeCheck>
        <RangeCheck SoftHard="Soft" def:ItemOID="IT.LB.LBMETHOD" Comparator="EQ">
          <CheckValue>Calculated</CheckValue>
        </RangeCheck>
      </def:WhereClauseDef>
      <def:WhereClauseDef OID="WC.LB.LBORRES.MCV">
        <RangeCheck SoftHard="Soft" def:ItemOID="IT.LB.LBTESTCD" Comparator="EQ">
          <CheckValue>MCV</CheckValue>
        </RangeCheck>
        <RangeCheck SoftHard="Soft" def:ItemOID="IT.LB.LBSPEC" Comparator="EQ">
          <CheckValue>WHOLE BLOOD</CheckValue>
        </RangeCheck>
        <RangeCheck SoftHard="Soft" def:ItemOID="IT.LB.LBCAT" Comparator="EQ">
          <CheckValue>HEMATOLOGY</CheckValue>
        </RangeCheck>
        <RangeCheck SoftHard="Soft" def:ItemOID="IT.LB.LBMETHOD" Comparator="EQ">
          <CheckValue>Calculated</CheckValue>
        </RangeCheck>
      </def:WhereClauseDef>
      <def:WhereClauseDef OID="WC.LB.LBORRES.MONO">
        <RangeCheck SoftHard="Soft" def:ItemOID="IT.LB.LBTESTCD" Comparator="EQ">
          <CheckValue>MONO</CheckValue>
        </RangeCheck>
        <RangeCheck SoftHard="Soft" def:ItemOID="IT.LB.LBSPEC" Comparator="EQ">
          <CheckValue>WHOLE BLOOD</CheckValue>
        </RangeCheck>
        <RangeCheck SoftHard="Soft" def:ItemOID="IT.LB.LBCAT" Comparator="EQ">
          <CheckValue>HEMATOLOGY</CheckValue>
        </RangeCheck>
        <RangeCheck SoftHard="Soft" def:ItemOID="IT.LB.LBMETHOD" Comparator="EQ">
          <CheckValue>Calculated</CheckValue>
        </RangeCheck>
      </def:WhereClauseDef>
      <def:WhereClauseDef OID="WC.LB.LBORRES.NEUT">
        <RangeCheck SoftHard="Soft" def:ItemOID="IT.LB.LBTESTCD" Comparator="EQ">
          <CheckValue>NEUT</CheckValue>
        </RangeCheck>
        <RangeCheck SoftHard="Soft" def:ItemOID="IT.LB.LBSPEC" Comparator="EQ">
          <CheckValue>WHOLE BLOOD</CheckValue>
        </RangeCheck>
        <RangeCheck SoftHard="Soft" def:ItemOID="IT.LB.LBCAT" Comparator="EQ">
          <CheckValue>HEMATOLOGY</CheckValue>
        </RangeCheck>
        <RangeCheck SoftHard="Soft" def:ItemOID="IT.LB.LBMETHOD" Comparator="EQ">
          <CheckValue>Calculated</CheckValue>
        </RangeCheck>
      </def:WhereClauseDef>
      <def:WhereClauseDef OID="WC.LB.LBORRES.PHOS">
        <RangeCheck SoftHard="Soft" def:ItemOID="IT.LB.LBTESTCD" Comparator="EQ">
          <CheckValue>PHOS</CheckValue>
        </RangeCheck>
        <RangeCheck SoftHard="Soft" def:ItemOID="IT.LB.LBSPEC" Comparator="EQ">
          <CheckValue>PLASMA</CheckValue>
        </RangeCheck>
        <RangeCheck SoftHard="Soft" def:ItemOID="IT.LB.LBCAT" Comparator="EQ">
          <CheckValue>CLINICAL CHEMISTRY</CheckValue>
        </RangeCheck>
      </def:WhereClauseDef>
      <def:WhereClauseDef OID="WC.LB.LBORRES.PLAT">
        <RangeCheck SoftHard="Soft" def:ItemOID="IT.LB.LBTESTCD" Comparator="EQ">
          <CheckValue>PLAT</CheckValue>
        </RangeCheck>
        <RangeCheck SoftHard="Soft" def:ItemOID="IT.LB.LBSPEC" Comparator="EQ">
          <CheckValue>WHOLE BLOOD</CheckValue>
        </RangeCheck>
        <RangeCheck SoftHard="Soft" def:ItemOID="IT.LB.LBCAT" Comparator="EQ">
          <CheckValue>HEMATOLOGY</CheckValue>
        </RangeCheck>
      </def:WhereClauseDef>
      <def:WhereClauseDef OID="WC.LB.LBORRES.PLATCLMP">
        <RangeCheck SoftHard="Soft" def:ItemOID="IT.LB.LBTESTCD" Comparator="EQ">
          <CheckValue>PLATCLMP</CheckValue>
        </RangeCheck>
        <RangeCheck SoftHard="Soft" def:ItemOID="IT.LB.LBSPEC" Comparator="EQ">
          <CheckValue>WHOLE BLOOD</CheckValue>
        </RangeCheck>
        <RangeCheck SoftHard="Soft" def:ItemOID="IT.LB.LBCAT" Comparator="EQ">
          <CheckValue>HEMATOLOGY</CheckValue>
        </RangeCheck>
        <RangeCheck SoftHard="Soft" def:ItemOID="IT.LB.LBMETHOD" Comparator="EQ">
          <CheckValue>Microscopic examination</CheckValue>
        </RangeCheck>
      </def:WhereClauseDef>
      <def:WhereClauseDef OID="WC.LB.LBORRES.PLTMORPH">
        <RangeCheck SoftHard="Soft" def:ItemOID="IT.LB.LBTESTCD" Comparator="EQ">
          <CheckValue>PLTMORPH</CheckValue>
        </RangeCheck>
        <RangeCheck SoftHard="Soft" def:ItemOID="IT.LB.LBSPEC" Comparator="EQ">
          <CheckValue>WHOLE BLOOD</CheckValue>
        </RangeCheck>
        <RangeCheck SoftHard="Soft" def:ItemOID="IT.LB.LBCAT" Comparator="EQ">
          <CheckValue>HEMATOLOGY</CheckValue>
        </RangeCheck>
        <RangeCheck SoftHard="Soft" def:ItemOID="IT.LB.LBMETHOD" Comparator="EQ">
          <CheckValue>Microscopic examination</CheckValue>
        </RangeCheck>
      </def:WhereClauseDef>
      <def:WhereClauseDef OID="WC.LB.LBORRES.POLYCHR">
        <RangeCheck SoftHard="Soft" def:ItemOID="IT.LB.LBTESTCD" Comparator="EQ">
          <CheckValue>POLYCHR</CheckValue>
        </RangeCheck>
        <RangeCheck SoftHard="Soft" def:ItemOID="IT.LB.LBSPEC" Comparator="EQ">
          <CheckValue>WHOLE BLOOD</CheckValue>
        </RangeCheck>
        <RangeCheck SoftHard="Soft" def:ItemOID="IT.LB.LBCAT" Comparator="EQ">
          <CheckValue>HEMATOLOGY</CheckValue>
        </RangeCheck>
        <RangeCheck SoftHard="Soft" def:ItemOID="IT.LB.LBMETHOD" Comparator="EQ">
          <CheckValue>Microscopic examination</CheckValue>
        </RangeCheck>
      </def:WhereClauseDef>
      <def:WhereClauseDef OID="WC.LB.LBORRES.PROT">
        <RangeCheck SoftHard="Soft" def:ItemOID="IT.LB.LBTESTCD" Comparator="EQ">
          <CheckValue>PROT</CheckValue>
        </RangeCheck>
        <RangeCheck SoftHard="Soft" def:ItemOID="IT.LB.LBSPEC" Comparator="EQ">
          <CheckValue>PLASMA</CheckValue>
        </RangeCheck>
        <RangeCheck SoftHard="Soft" def:ItemOID="IT.LB.LBCAT" Comparator="EQ">
          <CheckValue>CLINICAL CHEMISTRY</CheckValue>
        </RangeCheck>
      </def:WhereClauseDef>
      <def:WhereClauseDef OID="WC.LB.LBORRES.PT">
        <RangeCheck SoftHard="Soft" def:ItemOID="IT.LB.LBTESTCD" Comparator="EQ">
          <CheckValue>PT</CheckValue>
        </RangeCheck>
        <RangeCheck SoftHard="Soft" def:ItemOID="IT.LB.LBSPEC" Comparator="EQ">
          <CheckValue>PLASMA</CheckValue>
        </RangeCheck>
        <RangeCheck SoftHard="Soft" def:ItemOID="IT.LB.LBCAT" Comparator="EQ">
          <CheckValue>COAGULATION</CheckValue>
        </RangeCheck>
      </def:WhereClauseDef>
      <def:WhereClauseDef OID="WC.LB.LBORRES.RBC">
        <RangeCheck SoftHard="Soft" def:ItemOID="IT.LB.LBTESTCD" Comparator="EQ">
          <CheckValue>RBC</CheckValue>
        </RangeCheck>
        <RangeCheck SoftHard="Soft" def:ItemOID="IT.LB.LBSPEC" Comparator="EQ">
          <CheckValue>WHOLE BLOOD</CheckValue>
        </RangeCheck>
        <RangeCheck SoftHard="Soft" def:ItemOID="IT.LB.LBCAT" Comparator="EQ">
          <CheckValue>HEMATOLOGY</CheckValue>
        </RangeCheck>
        <RangeCheck SoftHard="Soft" def:ItemOID="IT.LB.LBMETHOD" Comparator="EQ">
          <CheckValue>LIght Scattering Spectroscopy</CheckValue>
        </RangeCheck>
      </def:WhereClauseDef>
      <def:WhereClauseDef OID="WC.LB.LBORRES.RBCNUCLE">
        <RangeCheck SoftHard="Soft" def:ItemOID="IT.LB.LBTESTCD" Comparator="EQ">
          <CheckValue>RBCNUCLE</CheckValue>
        </RangeCheck>
        <RangeCheck SoftHard="Soft" def:ItemOID="IT.LB.LBSPEC" Comparator="EQ">
          <CheckValue>WHOLE BLOOD</CheckValue>
        </RangeCheck>
        <RangeCheck SoftHard="Soft" def:ItemOID="IT.LB.LBCAT" Comparator="EQ">
          <CheckValue>HEMATOLOGY</CheckValue>
        </RangeCheck>
      </def:WhereClauseDef>
      <def:WhereClauseDef OID="WC.LB.LBORRES.RDW">
        <RangeCheck SoftHard="Soft" def:ItemOID="IT.LB.LBTESTCD" Comparator="EQ">
          <CheckValue>RDW</CheckValue>
        </RangeCheck>
        <RangeCheck SoftHard="Soft" def:ItemOID="IT.LB.LBSPEC" Comparator="EQ">
          <CheckValue>WHOLE BLOOD</CheckValue>
        </RangeCheck>
        <RangeCheck SoftHard="Soft" def:ItemOID="IT.LB.LBCAT" Comparator="EQ">
          <CheckValue>HEMATOLOGY</CheckValue>
        </RangeCheck>
        <RangeCheck SoftHard="Soft" def:ItemOID="IT.LB.LBMETHOD" Comparator="EQ">
          <CheckValue>Calculated</CheckValue>
        </RangeCheck>
      </def:WhereClauseDef>
      <def:WhereClauseDef OID="WC.LB.LBORRES.RETI">
        <RangeCheck SoftHard="Soft" def:ItemOID="IT.LB.LBTESTCD" Comparator="EQ">
          <CheckValue>RETI</CheckValue>
        </RangeCheck>
        <RangeCheck SoftHard="Soft" def:ItemOID="IT.LB.LBSPEC" Comparator="EQ">
          <CheckValue>WHOLE BLOOD</CheckValue>
        </RangeCheck>
        <RangeCheck SoftHard="Soft" def:ItemOID="IT.LB.LBCAT" Comparator="EQ">
          <CheckValue>HEMATOLOGY</CheckValue>
        </RangeCheck>
        <RangeCheck SoftHard="Soft" def:ItemOID="IT.LB.LBMETHOD" Comparator="EQ">
          <CheckValue>Calculated</CheckValue>
        </RangeCheck>
      </def:WhereClauseDef>
      <def:WhereClauseDef OID="WC.LB.LBORRES.SODIUM">
        <RangeCheck SoftHard="Soft" def:ItemOID="IT.LB.LBTESTCD" Comparator="EQ">
          <CheckValue>SODIUM</CheckValue>
        </RangeCheck>
        <RangeCheck SoftHard="Soft" def:ItemOID="IT.LB.LBSPEC" Comparator="EQ">
          <CheckValue>PLASMA</CheckValue>
        </RangeCheck>
        <RangeCheck SoftHard="Soft" def:ItemOID="IT.LB.LBCAT" Comparator="EQ">
          <CheckValue>CLINICAL CHEMISTRY</CheckValue>
        </RangeCheck>
      </def:WhereClauseDef>
      <def:WhereClauseDef OID="WC.LB.LBORRES.TRIG">
        <RangeCheck SoftHard="Soft" def:ItemOID="IT.LB.LBTESTCD" Comparator="EQ">
          <CheckValue>TRIG</CheckValue>
        </RangeCheck>
        <RangeCheck SoftHard="Soft" def:ItemOID="IT.LB.LBSPEC" Comparator="EQ">
          <CheckValue>PLASMA</CheckValue>
        </RangeCheck>
        <RangeCheck SoftHard="Soft" def:ItemOID="IT.LB.LBCAT" Comparator="EQ">
          <CheckValue>CLINICAL CHEMISTRY</CheckValue>
        </RangeCheck>
      </def:WhereClauseDef>
      <def:WhereClauseDef OID="WC.LB.LBORRES.UREA">
        <RangeCheck SoftHard="Soft" def:ItemOID="IT.LB.LBTESTCD" Comparator="EQ">
          <CheckValue>UREA</CheckValue>
        </RangeCheck>
        <RangeCheck SoftHard="Soft" def:ItemOID="IT.LB.LBSPEC" Comparator="EQ">
          <CheckValue>PLASMA</CheckValue>
        </RangeCheck>
        <RangeCheck SoftHard="Soft" def:ItemOID="IT.LB.LBCAT" Comparator="EQ">
          <CheckValue>CLINICAL CHEMISTRY</CheckValue>
        </RangeCheck>
      </def:WhereClauseDef>
      <def:WhereClauseDef OID="WC.LB.LBORRES.WBC">
        <RangeCheck SoftHard="Soft" def:ItemOID="IT.LB.LBTESTCD" Comparator="EQ">
          <CheckValue>WBC</CheckValue>
        </RangeCheck>
        <RangeCheck SoftHard="Soft" def:ItemOID="IT.LB.LBSPEC" Comparator="EQ">
          <CheckValue>WHOLE BLOOD</CheckValue>
        </RangeCheck>
        <RangeCheck SoftHard="Soft" def:ItemOID="IT.LB.LBCAT" Comparator="EQ">
          <CheckValue>HEMATOLOGY</CheckValue>
        </RangeCheck>
        <RangeCheck SoftHard="Soft" def:ItemOID="IT.LB.LBMETHOD" Comparator="EQ">
          <CheckValue>LIght Scattering Spectroscopy</CheckValue>
        </RangeCheck>
      </def:WhereClauseDef>
      <def:WhereClauseDef OID="WC.LB.LBORRES.WBCMORPH">
        <RangeCheck SoftHard="Soft" def:ItemOID="IT.LB.LBTESTCD" Comparator="EQ">
          <CheckValue>WBCMORPH</CheckValue>
        </RangeCheck>
        <RangeCheck SoftHard="Soft" def:ItemOID="IT.LB.LBSPEC" Comparator="EQ">
          <CheckValue>WHOLE BLOOD</CheckValue>
        </RangeCheck>
        <RangeCheck SoftHard="Soft" def:ItemOID="IT.LB.LBCAT" Comparator="EQ">
          <CheckValue>HEMATOLOGY</CheckValue>
        </RangeCheck>
        <RangeCheck SoftHard="Soft" def:ItemOID="IT.LB.LBMETHOD" Comparator="EQ">
          <CheckValue>Microscopic examination</CheckValue>
        </RangeCheck>
      </def:WhereClauseDef>
      <def:WhereClauseDef OID="WC.OM.OMORRES.OWBR">
        <RangeCheck SoftHard="Soft" def:ItemOID="IT.OM.OMTESTCD" Comparator="EQ">
          <CheckValue>OWBR</CheckValue>
        </RangeCheck>
      </def:WhereClauseDef>
      <def:WhereClauseDef OID="WC.OM.OMORRES.OWBW">
        <RangeCheck SoftHard="Soft" def:ItemOID="IT.OM.OMTESTCD" Comparator="EQ">
          <CheckValue>OWBW</CheckValue>
        </RangeCheck>
      </def:WhereClauseDef>
      <def:WhereClauseDef OID="WC.OM.OMORRES.WEIGHT">
        <RangeCheck SoftHard="Soft" def:ItemOID="IT.OM.OMTESTCD" Comparator="EQ">
          <CheckValue>WEIGHT</CheckValue>
        </RangeCheck>
      </def:WhereClauseDef>
      <def:WhereClauseDef OID="WC.SUPPMA.QVAL.MARESMOD">
        <RangeCheck SoftHard="Soft" def:ItemOID="IT.SUPPMA.QNAM" Comparator="EQ">
          <CheckValue>MARESMOD</CheckValue>
        </RangeCheck>
      </def:WhereClauseDef>
      <def:WhereClauseDef OID="WC.SUPPMI.QVAL.MIRESMOD">
        <RangeCheck SoftHard="Soft" def:ItemOID="IT.SUPPMI.QNAM" Comparator="EQ">
          <CheckValue>MIRESMOD</CheckValue>
        </RangeCheck>
      </def:WhereClauseDef>
      <def:WhereClauseDef OID="WC.TS.TSVAL.AGETXT">
        <RangeCheck SoftHard="Soft" def:ItemOID="IT.TS.TSPARMCD" Comparator="EQ">
          <CheckValue>AGETXT</CheckValue>
        </RangeCheck>
      </def:WhereClauseDef>
      <def:WhereClauseDef OID="WC.TS.TSVAL.AGEU">
        <RangeCheck SoftHard="Soft" def:ItemOID="IT.TS.TSPARMCD" Comparator="EQ">
          <CheckValue>AGEU</CheckValue>
        </RangeCheck>
      </def:WhereClauseDef>
      <def:WhereClauseDef OID="WC.TS.TSVAL.DIET">
        <RangeCheck SoftHard="Soft" def:ItemOID="IT.TS.TSPARMCD" Comparator="EQ">
          <CheckValue>DIET</CheckValue>
        </RangeCheck>
      </def:WhereClauseDef>
      <def:WhereClauseDef OID="WC.TS.TSVAL.DOSDUR">
        <RangeCheck SoftHard="Soft" def:ItemOID="IT.TS.TSPARMCD" Comparator="EQ">
          <CheckValue>DOSDUR</CheckValue>
        </RangeCheck>
      </def:WhereClauseDef>
      <def:WhereClauseDef OID="WC.TS.TSVAL.DOSENDTC">
        <RangeCheck SoftHard="Soft" def:ItemOID="IT.TS.TSPARMCD" Comparator="EQ">
          <CheckValue>DOSENDTC</CheckValue>
        </RangeCheck>
      </def:WhereClauseDef>
      <def:WhereClauseDef OID="WC.TS.TSVAL.DOSSTDTC">
        <RangeCheck SoftHard="Soft" def:ItemOID="IT.TS.TSPARMCD" Comparator="EQ">
          <CheckValue>DOSSTDTC</CheckValue>
        </RangeCheck>
      </def:WhereClauseDef>
      <def:WhereClauseDef OID="WC.TS.TSVAL.ENVTEMP">
        <RangeCheck SoftHard="Soft" def:ItemOID="IT.TS.TSPARMCD" Comparator="EQ">
          <CheckValue>ENVTEMP</CheckValue>
        </RangeCheck>
      </def:WhereClauseDef>
      <def:WhereClauseDef OID="WC.TS.TSVAL.ENVTEMPU">
        <RangeCheck SoftHard="Soft" def:ItemOID="IT.TS.TSPARMCD" Comparator="EQ">
          <CheckValue>ENVTEMPU</CheckValue>
        </RangeCheck>
      </def:WhereClauseDef>
      <def:WhereClauseDef OID="WC.TS.TSVAL.EXPENDTC">
        <RangeCheck SoftHard="Soft" def:ItemOID="IT.TS.TSPARMCD" Comparator="EQ">
          <CheckValue>EXPENDTC</CheckValue>
        </RangeCheck>
      </def:WhereClauseDef>
      <def:WhereClauseDef OID="WC.TS.TSVAL.EXPSTDTC">
        <RangeCheck SoftHard="Soft" def:ItemOID="IT.TS.TSPARMCD" Comparator="EQ">
          <CheckValue>EXPSTDTC</CheckValue>
        </RangeCheck>
      </def:WhereClauseDef>
      <def:WhereClauseDef OID="WC.TS.TSVAL.FEEDREG">
        <RangeCheck SoftHard="Soft" def:ItemOID="IT.TS.TSPARMCD" Comparator="EQ">
          <CheckValue>FEEDREG</CheckValue>
        </RangeCheck>
      </def:WhereClauseDef>
      <def:WhereClauseDef OID="WC.TS.TSVAL.GLPFL">
        <RangeCheck SoftHard="Soft" def:ItemOID="IT.TS.TSPARMCD" Comparator="EQ">
          <CheckValue>GLPFL</CheckValue>
        </RangeCheck>
      </def:WhereClauseDef>
      <def:WhereClauseDef OID="WC.TS.TSVAL.GLPTYP">
        <RangeCheck SoftHard="Soft" def:ItemOID="IT.TS.TSPARMCD" Comparator="EQ">
          <CheckValue>GLPTYP</CheckValue>
        </RangeCheck>
      </def:WhereClauseDef>
      <def:WhereClauseDef OID="WC.TS.TSVAL.HOUSEGRP">
        <RangeCheck SoftHard="Soft" def:ItemOID="IT.TS.TSPARMCD" Comparator="EQ">
          <CheckValue>HOUSEGRP</CheckValue>
        </RangeCheck>
      </def:WhereClauseDef>
      <def:WhereClauseDef OID="WC.TS.TSVAL.HOUSETYP">
        <RangeCheck SoftHard="Soft" def:ItemOID="IT.TS.TSPARMCD" Comparator="EQ">
          <CheckValue>HOUSETYP</CheckValue>
        </RangeCheck>
      </def:WhereClauseDef>
      <def:WhereClauseDef OID="WC.TS.TSVAL.HUMIDT">
        <RangeCheck SoftHard="Soft" def:ItemOID="IT.TS.TSPARMCD" Comparator="EQ">
          <CheckValue>HUMIDT</CheckValue>
        </RangeCheck>
      </def:WhereClauseDef>
      <def:WhereClauseDef OID="WC.TS.TSVAL.HUMIDTU">
        <RangeCheck SoftHard="Soft" def:ItemOID="IT.TS.TSPARMCD" Comparator="EQ">
          <CheckValue>HUMIDTU</CheckValue>
        </RangeCheck>
      </def:WhereClauseDef>
      <def:WhereClauseDef OID="WC.TS.TSVAL.IDMETH">
        <RangeCheck SoftHard="Soft" def:ItemOID="IT.TS.TSPARMCD" Comparator="EQ">
          <CheckValue>IDMETH</CheckValue>
        </RangeCheck>
      </def:WhereClauseDef>
      <def:WhereClauseDef OID="WC.TS.TSVAL.LIGHT">
        <RangeCheck SoftHard="Soft" def:ItemOID="IT.TS.TSPARMCD" Comparator="EQ">
          <CheckValue>LIGHT</CheckValue>
        </RangeCheck>
      </def:WhereClauseDef>
      <def:WhereClauseDef OID="WC.TS.TSVAL.MTHTRM">
        <RangeCheck SoftHard="Soft" def:ItemOID="IT.TS.TSPARMCD" Comparator="EQ">
          <CheckValue>MTHTRM</CheckValue>
        </RangeCheck>
      </def:WhereClauseDef>
      <def:WhereClauseDef OID="WC.TS.TSVAL.PCLASS">
        <RangeCheck SoftHard="Soft" def:ItemOID="IT.TS.TSPARMCD" Comparator="EQ">
          <CheckValue>PCLASS</CheckValue>
        </RangeCheck>
      </def:WhereClauseDef>
      <def:WhereClauseDef OID="WC.TS.TSVAL.PINV">
        <RangeCheck SoftHard="Soft" def:ItemOID="IT.TS.TSPARMCD" Comparator="EQ">
          <CheckValue>PINV</CheckValue>
        </RangeCheck>
      </def:WhereClauseDef>
      <def:WhereClauseDef OID="WC.TS.TSVAL.PPL">
        <RangeCheck SoftHard="Soft" def:ItemOID="IT.TS.TSPARMCD" Comparator="EQ">
          <CheckValue>PPL</CheckValue>
        </RangeCheck>
      </def:WhereClauseDef>
      <def:WhereClauseDef OID="WC.TS.TSVAL.RECSAC">
        <RangeCheck SoftHard="Soft" def:ItemOID="IT.TS.TSPARMCD" Comparator="EQ">
          <CheckValue>RECSAC</CheckValue>
        </RangeCheck>
      </def:WhereClauseDef>
      <def:WhereClauseDef OID="WC.TS.TSVAL.ROUTE">
        <RangeCheck SoftHard="Soft" def:ItemOID="IT.TS.TSPARMCD" Comparator="EQ">
          <CheckValue>ROUTE</CheckValue>
        </RangeCheck>
      </def:WhereClauseDef>
      <def:WhereClauseDef OID="WC.TS.TSVAL.SDESIGN">
        <RangeCheck SoftHard="Soft" def:ItemOID="IT.TS.TSPARMCD" Comparator="EQ">
          <CheckValue>SDESIGN</CheckValue>
        </RangeCheck>
      </def:WhereClauseDef>
      <def:WhereClauseDef OID="WC.TS.TSVAL.SEXPOP">
        <RangeCheck SoftHard="Soft" def:ItemOID="IT.TS.TSPARMCD" Comparator="EQ">
          <CheckValue>SEXPOP</CheckValue>
        </RangeCheck>
      </def:WhereClauseDef>
      <def:WhereClauseDef OID="WC.TS.TSVAL.SLENGTH">
        <RangeCheck SoftHard="Soft" def:ItemOID="IT.TS.TSPARMCD" Comparator="EQ">
          <CheckValue>SLENGTH</CheckValue>
        </RangeCheck>
      </def:WhereClauseDef>
      <def:WhereClauseDef OID="WC.TS.TSVAL.SNDCTVER">
        <RangeCheck SoftHard="Soft" def:ItemOID="IT.TS.TSPARMCD" Comparator="EQ">
          <CheckValue>SNDCTVER</CheckValue>
        </RangeCheck>
      </def:WhereClauseDef>
      <def:WhereClauseDef OID="WC.TS.TSVAL.SNDIGVER">
        <RangeCheck SoftHard="Soft" def:ItemOID="IT.TS.TSPARMCD" Comparator="EQ">
          <CheckValue>SNDIGVER</CheckValue>
        </RangeCheck>
      </def:WhereClauseDef>
      <def:WhereClauseDef OID="WC.TS.TSVAL.SPECIES">
        <RangeCheck SoftHard="Soft" def:ItemOID="IT.TS.TSPARMCD" Comparator="EQ">
          <CheckValue>SPECIES</CheckValue>
        </RangeCheck>
      </def:WhereClauseDef>
      <def:WhereClauseDef OID="WC.TS.TSVAL.SPLANSUB">
        <RangeCheck SoftHard="Soft" def:ItemOID="IT.TS.TSPARMCD" Comparator="EQ">
          <CheckValue>SPLANSUB</CheckValue>
        </RangeCheck>
      </def:WhereClauseDef>
      <def:WhereClauseDef OID="WC.TS.TSVAL.SPLRLOC">
        <RangeCheck SoftHard="Soft" def:ItemOID="IT.TS.TSPARMCD" Comparator="EQ">
          <CheckValue>SPLRLOC</CheckValue>
        </RangeCheck>
      </def:WhereClauseDef>
      <def:WhereClauseDef OID="WC.TS.TSVAL.SPLRNAM">
        <RangeCheck SoftHard="Soft" def:ItemOID="IT.TS.TSPARMCD" Comparator="EQ">
          <CheckValue>SPLRNAM</CheckValue>
        </RangeCheck>
      </def:WhereClauseDef>
      <def:WhereClauseDef OID="WC.TS.TSVAL.SPREFID">
        <RangeCheck SoftHard="Soft" def:ItemOID="IT.TS.TSPARMCD" Comparator="EQ">
          <CheckValue>SPREFID</CheckValue>
        </RangeCheck>
      </def:WhereClauseDef>
      <def:WhereClauseDef OID="WC.TS.TSVAL.SRANDOM">
        <RangeCheck SoftHard="Soft" def:ItemOID="IT.TS.TSPARMCD" Comparator="EQ">
          <CheckValue>SRANDOM</CheckValue>
        </RangeCheck>
      </def:WhereClauseDef>
      <def:WhereClauseDef OID="WC.TS.TSVAL.SSPONSOR">
        <RangeCheck SoftHard="Soft" def:ItemOID="IT.TS.TSPARMCD" Comparator="EQ">
          <CheckValue>SSPONSOR</CheckValue>
        </RangeCheck>
      </def:WhereClauseDef>
      <def:WhereClauseDef OID="WC.TS.TSVAL.SSTYP">
        <RangeCheck SoftHard="Soft" def:ItemOID="IT.TS.TSPARMCD" Comparator="EQ">
          <CheckValue>SSTYP</CheckValue>
        </RangeCheck>
      </def:WhereClauseDef>
      <def:WhereClauseDef OID="WC.TS.TSVAL.STCAT">
        <RangeCheck SoftHard="Soft" def:ItemOID="IT.TS.TSPARMCD" Comparator="EQ">
          <CheckValue>STCAT</CheckValue>
        </RangeCheck>
      </def:WhereClauseDef>
      <def:WhereClauseDef OID="WC.TS.TSVAL.STDIR">
        <RangeCheck SoftHard="Soft" def:ItemOID="IT.TS.TSPARMCD" Comparator="EQ">
          <CheckValue>STDIR</CheckValue>
        </RangeCheck>
      </def:WhereClauseDef>
      <def:WhereClauseDef OID="WC.TS.TSVAL.STENDTC">
        <RangeCheck SoftHard="Soft" def:ItemOID="IT.TS.TSPARMCD" Comparator="EQ">
          <CheckValue>STENDTC</CheckValue>
        </RangeCheck>
      </def:WhereClauseDef>
      <def:WhereClauseDef OID="WC.TS.TSVAL.STITLE">
        <RangeCheck SoftHard="Soft" def:ItemOID="IT.TS.TSPARMCD" Comparator="EQ">
          <CheckValue>STITLE</CheckValue>
        </RangeCheck>
      </def:WhereClauseDef>
      <def:WhereClauseDef OID="WC.TS.TSVAL.STMON">
        <RangeCheck SoftHard="Soft" def:ItemOID="IT.TS.TSPARMCD" Comparator="EQ">
          <CheckValue>STMON</CheckValue>
        </RangeCheck>
      </def:WhereClauseDef>
      <def:WhereClauseDef OID="WC.TS.TSVAL.STRAIN">
        <RangeCheck SoftHard="Soft" def:ItemOID="IT.TS.TSPARMCD" Comparator="EQ">
          <CheckValue>STRAIN</CheckValue>
        </RangeCheck>
      </def:WhereClauseDef>
      <def:WhereClauseDef OID="WC.TS.TSVAL.STSTDTC">
        <RangeCheck SoftHard="Soft" def:ItemOID="IT.TS.TSPARMCD" Comparator="EQ">
          <CheckValue>STSTDTC</CheckValue>
        </RangeCheck>
      </def:WhereClauseDef>
      <def:WhereClauseDef OID="WC.TS.TSVAL.TFCNTRY">
        <RangeCheck SoftHard="Soft" def:ItemOID="IT.TS.TSPARMCD" Comparator="EQ">
          <CheckValue>TFCNTRY</CheckValue>
        </RangeCheck>
      </def:WhereClauseDef>
      <def:WhereClauseDef OID="WC.TS.TSVAL.TRMSAC">
        <RangeCheck SoftHard="Soft" def:ItemOID="IT.TS.TSPARMCD" Comparator="EQ">
          <CheckValue>TRMSAC</CheckValue>
        </RangeCheck>
      </def:WhereClauseDef>
      <def:WhereClauseDef OID="WC.TS.TSVAL.TRT">
        <RangeCheck SoftHard="Soft" def:ItemOID="IT.TS.TSPARMCD" Comparator="EQ">
          <CheckValue>TRT</CheckValue>
        </RangeCheck>
      </def:WhereClauseDef>
      <def:WhereClauseDef OID="WC.TS.TSVAL.TRTCAS">
        <RangeCheck SoftHard="Soft" def:ItemOID="IT.TS.TSPARMCD" Comparator="EQ">
          <CheckValue>TRTCAS</CheckValue>
        </RangeCheck>
      </def:WhereClauseDef>
      <def:WhereClauseDef OID="WC.TS.TSVAL.TRTUNII">
        <RangeCheck SoftHard="Soft" def:ItemOID="IT.TS.TSPARMCD" Comparator="EQ">
          <CheckValue>TRTUNII</CheckValue>
        </RangeCheck>
      </def:WhereClauseDef>
      <def:WhereClauseDef OID="WC.TS.TSVAL.TRTV">
        <RangeCheck SoftHard="Soft" def:ItemOID="IT.TS.TSPARMCD" Comparator="EQ">
          <CheckValue>TRTV</CheckValue>
        </RangeCheck>
      </def:WhereClauseDef>
      <def:WhereClauseDef OID="WC.TS.TSVAL.TSCNTRY">
        <RangeCheck SoftHard="Soft" def:ItemOID="IT.TS.TSPARMCD" Comparator="EQ">
          <CheckValue>TSCNTRY</CheckValue>
        </RangeCheck>
      </def:WhereClauseDef>
      <def:WhereClauseDef OID="WC.TS.TSVAL.TSLOC">
        <RangeCheck SoftHard="Soft" def:ItemOID="IT.TS.TSPARMCD" Comparator="EQ">
          <CheckValue>TSLOC</CheckValue>
        </RangeCheck>
      </def:WhereClauseDef>
      <def:WhereClauseDef OID="WC.TS.TSVAL.TSNAM">
        <RangeCheck SoftHard="Soft" def:ItemOID="IT.TS.TSPARMCD" Comparator="EQ">
          <CheckValue>TSNAM</CheckValue>
        </RangeCheck>
      </def:WhereClauseDef>
      <def:WhereClauseDef OID="WC.TS.TSVAL.TSTFLOC">
        <RangeCheck SoftHard="Soft" def:ItemOID="IT.TS.TSPARMCD" Comparator="EQ">
          <CheckValue>TSTFLOC</CheckValue>
        </RangeCheck>
      </def:WhereClauseDef>
      <def:WhereClauseDef OID="WC.TS.TSVAL.TSTFNAM">
        <RangeCheck SoftHard="Soft" def:ItemOID="IT.TS.TSPARMCD" Comparator="EQ">
          <CheckValue>TSTFNAM</CheckValue>
        </RangeCheck>
      </def:WhereClauseDef>
      <def:WhereClauseDef OID="WC.TS.TSVAL.WATER">
        <RangeCheck SoftHard="Soft" def:ItemOID="IT.TS.TSPARMCD" Comparator="EQ">
          <CheckValue>WATER</CheckValue>
        </RangeCheck>
      </def:WhereClauseDef>
      <def:WhereClauseDef OID="WC.TX.TXVAL.ARMCD">
        <RangeCheck SoftHard="Soft" def:ItemOID="IT.TX.TXPARMCD" Comparator="EQ">
          <CheckValue>ARMCD</CheckValue>
        </RangeCheck>
      </def:WhereClauseDef>
      <def:WhereClauseDef OID="WC.TX.TXVAL.GRPLBL">
        <RangeCheck SoftHard="Soft" def:ItemOID="IT.TX.TXPARMCD" Comparator="EQ">
          <CheckValue>GRPLBL</CheckValue>
        </RangeCheck>
      </def:WhereClauseDef>
      <def:WhereClauseDef OID="WC.TX.TXVAL.PLANFSUB">
        <RangeCheck SoftHard="Soft" def:ItemOID="IT.TX.TXPARMCD" Comparator="EQ">
          <CheckValue>PLANFSUB</CheckValue>
        </RangeCheck>
      </def:WhereClauseDef>
      <def:WhereClauseDef OID="WC.TX.TXVAL.PLANMSUB">
        <RangeCheck SoftHard="Soft" def:ItemOID="IT.TX.TXPARMCD" Comparator="EQ">
          <CheckValue>PLANMSUB</CheckValue>
        </RangeCheck>
      </def:WhereClauseDef>
      <def:WhereClauseDef OID="WC.TX.TXVAL.SETLBL">
        <RangeCheck SoftHard="Soft" def:ItemOID="IT.TX.TXPARMCD" Comparator="EQ">
          <CheckValue>SETLBL</CheckValue>
        </RangeCheck>
      </def:WhereClauseDef>
      <def:WhereClauseDef OID="WC.TX.TXVAL.SPGRPCD">
        <RangeCheck SoftHard="Soft" def:ItemOID="IT.TX.TXPARMCD" Comparator="EQ">
          <CheckValue>SPGRPCD</CheckValue>
        </RangeCheck>
      </def:WhereClauseDef>
      <def:WhereClauseDef OID="WC.TX.TXVAL.SPLANSUB">
        <RangeCheck SoftHard="Soft" def:ItemOID="IT.TX.TXPARMCD" Comparator="EQ">
          <CheckValue>SPLANSUB</CheckValue>
        </RangeCheck>
      </def:WhereClauseDef>
      <def:WhereClauseDef OID="WC.TX.TXVAL.TCNTRL">
        <RangeCheck SoftHard="Soft" def:ItemOID="IT.TX.TXPARMCD" Comparator="EQ">
          <CheckValue>TCNTRL</CheckValue>
        </RangeCheck>
      </def:WhereClauseDef>
      <def:WhereClauseDef OID="WC.TX.TXVAL.TRTDOS">
        <RangeCheck SoftHard="Soft" def:ItemOID="IT.TX.TXPARMCD" Comparator="EQ">
          <CheckValue>TRTDOS</CheckValue>
        </RangeCheck>
      </def:WhereClauseDef>
      <def:WhereClauseDef OID="WC.TX.TXVAL.TRTDOSU">
        <RangeCheck SoftHard="Soft" def:ItemOID="IT.TX.TXPARMCD" Comparator="EQ">
          <CheckValue>TRTDOSU</CheckValue>
        </RangeCheck>
      </def:WhereClauseDef>
      <def:WhereClauseDef OID="WC.VS.VSORRES.TEMP">
        <RangeCheck SoftHard="Soft" def:ItemOID="IT.VS.VSTESTCD" Comparator="EQ">
          <CheckValue>TEMP</CheckValue>
        </RangeCheck>
      </def:WhereClauseDef>
      <ItemGroupDef OID="IG.TA" Domain="TA" Name="TA" Repeating="No" IsReferenceData="Yes" SASDatasetName="TA" Purpose="Tabulation" def:Structure="One record per planned Element per Arm" def:Class="TRIAL DESIGN" def:ArchiveLocationID="LF.TA">
        <Description>
          <TranslatedText xml:lang="en">Trial Arms</TranslatedText>
        </Description>
        <ItemRef ItemOID="IT.TA.STUDYID" OrderNumber="1" Mandatory="Yes" KeySequence="1"/>
        <ItemRef ItemOID="IT.TA.DOMAIN" OrderNumber="2" Mandatory="Yes"/>
        <ItemRef ItemOID="IT.TA.ARMCD" OrderNumber="3" Mandatory="Yes" KeySequence="2"/>
        <ItemRef ItemOID="IT.TA.ARM" OrderNumber="4" Mandatory="Yes"/>
        <ItemRef ItemOID="IT.TA.TAETORD" OrderNumber="5" Mandatory="Yes" KeySequence="3"/>
        <ItemRef ItemOID="IT.TA.ETCD" OrderNumber="6" Mandatory="Yes"/>
        <ItemRef ItemOID="IT.TA.ELEMENT" OrderNumber="7" Mandatory="No"/>
        <ItemRef ItemOID="IT.TA.EPOCH" OrderNumber="8" Mandatory="No"/>
        <def:leaf ID="LF.TA" xlink:href="ta.xpt">
          <def:title>ta.xpt</def:title>
        </def:leaf>
      </ItemGroupDef>
      <ItemGroupDef OID="IG.TE" Domain="TE" Name="TE" Repeating="No" IsReferenceData="Yes" SASDatasetName="TE" Purpose="Tabulation" def:Structure="One record per planned Element" def:Class="TRIAL DESIGN" def:ArchiveLocationID="LF.TE">
        <Description>
          <TranslatedText xml:lang="en">Trial Elements</TranslatedText>
        </Description>
        <ItemRef ItemOID="IT.TE.STUDYID" OrderNumber="1" Mandatory="Yes" KeySequence="1"/>
        <ItemRef ItemOID="IT.TE.DOMAIN" OrderNumber="2" Mandatory="Yes"/>
        <ItemRef ItemOID="IT.TE.ETCD" OrderNumber="3" Mandatory="Yes" KeySequence="2"/>
        <ItemRef ItemOID="IT.TE.ELEMENT" OrderNumber="4" Mandatory="Yes"/>
        <ItemRef ItemOID="IT.TE.TESTRL" OrderNumber="5" Mandatory="Yes"/>
        <ItemRef ItemOID="IT.TE.TEENRL" OrderNumber="6" Mandatory="No"/>
        <ItemRef ItemOID="IT.TE.TEDUR" OrderNumber="7" Mandatory="No"/>
        <def:leaf ID="LF.TE" xlink:href="te.xpt">
          <def:title>te.xpt</def:title>
        </def:leaf>
      </ItemGroupDef>
      <ItemGroupDef OID="IG.TS" Domain="TS" Name="TS" Repeating="No" IsReferenceData="Yes" SASDatasetName="TS" Purpose="Tabulation" def:Structure="One record per Trial Summary parameter value" def:Class="TRIAL DESIGN" def:ArchiveLocationID="LF.TS">
        <Description>
          <TranslatedText xml:lang="en">Trial Summary</TranslatedText>
        </Description>
        <ItemRef ItemOID="IT.TS.STUDYID" OrderNumber="1" Mandatory="Yes" KeySequence="1"/>
        <ItemRef ItemOID="IT.TS.DOMAIN" OrderNumber="2" Mandatory="Yes"/>
        <ItemRef ItemOID="IT.TS.TSSEQ" OrderNumber="3" Mandatory="Yes" KeySequence="2"/>
        <ItemRef ItemOID="IT.TS.TSGRPID" OrderNumber="4" Mandatory="No"/>
        <ItemRef ItemOID="IT.TS.TSPARMCD" OrderNumber="5" Mandatory="Yes"/>
        <ItemRef ItemOID="IT.TS.TSPARM" OrderNumber="6" Mandatory="Yes"/>
        <ItemRef ItemOID="IT.TS.TSVAL" OrderNumber="7" Mandatory="Yes"/>
        <ItemRef ItemOID="IT.TS.TSVALNF" OrderNumber="8" Mandatory="Yes"/>
        <def:leaf ID="LF.TS" xlink:href="ts.xpt">
          <def:title>ts.xpt</def:title>
        </def:leaf>
      </ItemGroupDef>
      <ItemGroupDef OID="IG.TX" Domain="TX" Name="TX" Repeating="No" IsReferenceData="Yes" SASDatasetName="TX" Purpose="Tabulation" def:Structure="One record per Trial Set parameter per Trial Set" def:Class="TRIAL DESIGN" def:ArchiveLocationID="LF.TX">
        <Description>
          <TranslatedText xml:lang="en">Trial Sets</TranslatedText>
        </Description>
        <ItemRef ItemOID="IT.TX.STUDYID" OrderNumber="1" Mandatory="Yes" KeySequence="1"/>
        <ItemRef ItemOID="IT.TX.DOMAIN" OrderNumber="2" Mandatory="Yes"/>
        <ItemRef ItemOID="IT.TX.SETCD" OrderNumber="3" Mandatory="Yes" KeySequence="2"/>
        <ItemRef ItemOID="IT.TX.SET" OrderNumber="4" Mandatory="Yes"/>
        <ItemRef ItemOID="IT.TX.TXSEQ" OrderNumber="5" Mandatory="Yes" KeySequence="3"/>
        <ItemRef ItemOID="IT.TX.TXPARMCD" OrderNumber="6" Mandatory="Yes"/>
        <ItemRef ItemOID="IT.TX.TXPARM" OrderNumber="7" Mandatory="Yes"/>
        <ItemRef ItemOID="IT.TX.TXVAL" OrderNumber="8" Mandatory="Yes"/>
        <def:leaf ID="LF.TX" xlink:href="tx.xpt">
          <def:title>tx.xpt</def:title>
        </def:leaf>
      </ItemGroupDef>
      <ItemGroupDef OID="IG.CO" Domain="CO" Name="CO" Repeating="Yes" IsReferenceData="No" SASDatasetName="CO" Purpose="Tabulation" def:Structure="One record per comment" def:Class="SPECIAL PURPOSE" def:ArchiveLocationID="LF.CO">
        <Description>
          <TranslatedText xml:lang="en">Comments</TranslatedText>
        </Description>
        <ItemRef ItemOID="IT.CO.STUDYID" OrderNumber="1" Mandatory="Yes" KeySequence="1"/>
        <ItemRef ItemOID="IT.CO.DOMAIN" OrderNumber="2" Mandatory="Yes"/>
        <ItemRef ItemOID="IT.CO.RDOMAIN" OrderNumber="3" Mandatory="No" KeySequence="2"/>
        <ItemRef ItemOID="IT.CO.USUBJID" OrderNumber="4" Mandatory="No" KeySequence="3" MethodOID="MT.COMPUSUBJID"/>
        <ItemRef ItemOID="IT.CO.COSEQ" OrderNumber="5" Mandatory="Yes" KeySequence="4" MethodOID="MT.COMPSEQ"/>
        <ItemRef ItemOID="IT.CO.IDVAR" OrderNumber="6" Mandatory="No"/>
        <ItemRef ItemOID="IT.CO.IDVARVAL" OrderNumber="7" Mandatory="No"/>
        <ItemRef ItemOID="IT.CO.COVAL" OrderNumber="8" Mandatory="Yes"/>
        <ItemRef ItemOID="IT.CO.CODTC" OrderNumber="9" Mandatory="No"/>
        <def:leaf ID="LF.CO" xlink:href="co.xpt">
          <def:title>co.xpt</def:title>
        </def:leaf>
      </ItemGroupDef>
      <ItemGroupDef OID="IG.DM" Domain="DM" Name="DM" Repeating="No" IsReferenceData="No" SASDatasetName="DM" Purpose="Tabulation" def:Structure="One record per subject" def:Class="SPECIAL PURPOSE" def:ArchiveLocationID="LF.DM">
        <Description>
          <TranslatedText xml:lang="en">Demographics</TranslatedText>
        </Description>
        <ItemRef ItemOID="IT.DM.STUDYID" OrderNumber="1" Mandatory="Yes" KeySequence="1"/>
        <ItemRef ItemOID="IT.DM.DOMAIN" OrderNumber="2" Mandatory="Yes"/>
        <ItemRef ItemOID="IT.DM.USUBJID" OrderNumber="3" Mandatory="Yes" KeySequence="2" MethodOID="MT.COMPUSUBJID"/>
        <ItemRef ItemOID="IT.DM.SUBJID" OrderNumber="4" Mandatory="Yes"/>
        <ItemRef ItemOID="IT.DM.RFSTDTC" OrderNumber="5" Mandatory="Yes"/>
        <ItemRef ItemOID="IT.DM.RFENDTC" OrderNumber="6" Mandatory="No"/>
        <ItemRef ItemOID="IT.DM.RFXSTDTC" OrderNumber="7" Mandatory="No"/>
        <ItemRef ItemOID="IT.DM.RFXENDTC" OrderNumber="8" Mandatory="No"/>
        <ItemRef ItemOID="IT.DM.AGETXT" OrderNumber="9" Mandatory="No"/>
        <ItemRef ItemOID="IT.DM.AGEU" OrderNumber="10" Mandatory="No"/>
        <ItemRef ItemOID="IT.DM.SEX" OrderNumber="11" Mandatory="Yes"/>
        <ItemRef ItemOID="IT.DM.ARMCD" OrderNumber="12" Mandatory="No"/>
        <ItemRef ItemOID="IT.DM.ARM" OrderNumber="13" Mandatory="No"/>
        <ItemRef ItemOID="IT.DM.SETCD" OrderNumber="14" Mandatory="Yes"/>
        <def:leaf ID="LF.DM" xlink:href="dm.xpt">
          <def:title>dm.xpt</def:title>
        </def:leaf>
      </ItemGroupDef>
      <ItemGroupDef OID="IG.SE" Domain="SE" Name="SE" Repeating="Yes" IsReferenceData="No" SASDatasetName="SE" Purpose="Tabulation" def:Structure="One record per element experienced per subject" def:Class="SPECIAL PURPOSE" def:ArchiveLocationID="LF.SE">
        <Description>
          <TranslatedText xml:lang="en">Subject Elements</TranslatedText>
        </Description>
        <ItemRef ItemOID="IT.SE.STUDYID" OrderNumber="1" Mandatory="Yes" KeySequence="1"/>
        <ItemRef ItemOID="IT.SE.DOMAIN" OrderNumber="2" Mandatory="Yes"/>
        <ItemRef ItemOID="IT.SE.USUBJID" OrderNumber="3" Mandatory="Yes" KeySequence="2" MethodOID="MT.COMPUSUBJID"/>
        <ItemRef ItemOID="IT.SE.SESEQ" OrderNumber="4" Mandatory="Yes"/>
        <ItemRef ItemOID="IT.SE.ETCD" OrderNumber="5" Mandatory="Yes" KeySequence="3"/>
        <ItemRef ItemOID="IT.SE.ELEMENT" OrderNumber="6" Mandatory="No"/>
        <ItemRef ItemOID="IT.SE.SESTDTC" OrderNumber="7" Mandatory="Yes" KeySequence="4"/>
        <ItemRef ItemOID="IT.SE.SEENDTC" OrderNumber="8" Mandatory="No"/>
        <def:leaf ID="LF.SE" xlink:href="se.xpt">
          <def:title>se.xpt</def:title>
        </def:leaf>
      </ItemGroupDef>
      <ItemGroupDef OID="IG.EX" Domain="EX" Name="EX" Repeating="Yes" IsReferenceData="No" SASDatasetName="EX" Purpose="Tabulation" def:Structure="One record per constant dosing interval per treatment per subject" def:Class="INTERVENTIONS" def:ArchiveLocationID="LF.EX">
        <Description>
          <TranslatedText xml:lang="en">Exposure</TranslatedText>
        </Description>
        <ItemRef ItemOID="IT.EX.STUDYID" OrderNumber="1" Mandatory="Yes" KeySequence="1"/>
        <ItemRef ItemOID="IT.EX.DOMAIN" OrderNumber="2" Mandatory="Yes"/>
        <ItemRef ItemOID="IT.EX.USUBJID" OrderNumber="3" Mandatory="No" KeySequence="2" MethodOID="MT.COMPUSUBJID"/>
        <ItemRef ItemOID="IT.EX.FOCID" OrderNumber="4" Mandatory="No"/>
        <ItemRef ItemOID="IT.EX.EXSEQ" OrderNumber="5" Mandatory="Yes" MethodOID="MT.COMPSEQ"/>
        <ItemRef ItemOID="IT.EX.EXTRT" OrderNumber="6" Mandatory="Yes" KeySequence="3"/>
        <ItemRef ItemOID="IT.EX.EXDOSE" OrderNumber="7" Mandatory="No" MethodOID="MT.COMPDOSE"/>
        <ItemRef ItemOID="IT.EX.EXDOSTXT" OrderNumber="8" Mandatory="No"/>
        <ItemRef ItemOID="IT.EX.EXDOSU" OrderNumber="9" Mandatory="No"/>
        <ItemRef ItemOID="IT.EX.EXDOSFRM" OrderNumber="10" Mandatory="No"/>
        <ItemRef ItemOID="IT.EX.EXDOSFRQ" OrderNumber="11" Mandatory="Yes"/>
        <ItemRef ItemOID="IT.EX.EXROUTE" OrderNumber="12" Mandatory="Yes" KeySequence="4"/>
        <ItemRef ItemOID="IT.EX.EXLOT" OrderNumber="13" Mandatory="No"/>
        <ItemRef ItemOID="IT.EX.EXLOC" OrderNumber="14" Mandatory="No"/>
        <ItemRef ItemOID="IT.EX.EXMETHOD" OrderNumber="15" Mandatory="No"/>
        <ItemRef ItemOID="IT.EX.EXTRTV" OrderNumber="16" Mandatory="No"/>
        <ItemRef ItemOID="IT.EX.EXVAMT" OrderNumber="17" Mandatory="No"/>
        <ItemRef ItemOID="IT.EX.EXVAMTU" OrderNumber="18" Mandatory="No"/>
        <ItemRef ItemOID="IT.EX.EXSTDTC" OrderNumber="19" Mandatory="No" KeySequence="5"/>
        <ItemRef ItemOID="IT.EX.EXSTDY" OrderNumber="20" Mandatory="No" MethodOID="MT.COMPSTDY"/>
        <def:leaf ID="LF.EX" xlink:href="ex.xpt">
          <def:title>ex.xpt</def:title>
        </def:leaf>
      </ItemGroupDef>
      <ItemGroupDef OID="IG.DS" Domain="DS" Name="DS" Repeating="No" IsReferenceData="No" SASDatasetName="DS" Purpose="Tabulation" def:Structure="One record per subject" def:Class="EVENTS" def:ArchiveLocationID="LF.DS">
        <Description>
          <TranslatedText xml:lang="en">Disposition</TranslatedText>
        </Description>
        <ItemRef ItemOID="IT.DS.STUDYID" OrderNumber="1" Mandatory="Yes" KeySequence="1"/>
        <ItemRef ItemOID="IT.DS.DOMAIN" OrderNumber="2" Mandatory="Yes"/>
        <ItemRef ItemOID="IT.DS.USUBJID" OrderNumber="3" Mandatory="Yes" KeySequence="2" MethodOID="MT.COMPUSUBJID"/>
        <ItemRef ItemOID="IT.DS.DSSEQ" OrderNumber="4" Mandatory="Yes" MethodOID="MT.COMPSEQ"/>
        <ItemRef ItemOID="IT.DS.DSTERM" OrderNumber="5" Mandatory="Yes"/>
        <ItemRef ItemOID="IT.DS.DSDECOD" OrderNumber="6" Mandatory="Yes"/>
        <ItemRef ItemOID="IT.DS.DSUSCHFL" OrderNumber="7" Mandatory="No"/>
        <ItemRef ItemOID="IT.DS.DSSTDTC" OrderNumber="8" Mandatory="Yes"/>
        <ItemRef ItemOID="IT.DS.DSSTDY" OrderNumber="9" Mandatory="No" MethodOID="MT.COMPSTDY"/>
        <ItemRef ItemOID="IT.DS.DSNOMDY" OrderNumber="10" Mandatory="No"/>
        <ItemRef ItemOID="IT.DS.DSNOMLBL" OrderNumber="11" Mandatory="No"/>
        <def:leaf ID="LF.DS" xlink:href="ds.xpt">
          <def:title>ds.xpt</def:title>
        </def:leaf>
      </ItemGroupDef>
      <ItemGroupDef OID="IG.BW" Domain="BW" Name="BW" Repeating="Yes" IsReferenceData="No" SASDatasetName="BW" Purpose="Tabulation" def:Structure="One record per test per observation time per subject" def:Class="FINDINGS" def:ArchiveLocationID="LF.BW">
        <Description>
          <TranslatedText xml:lang="en">Body Weight</TranslatedText>
        </Description>
        <ItemRef ItemOID="IT.BW.STUDYID" OrderNumber="1" Mandatory="Yes" KeySequence="1"/>
        <ItemRef ItemOID="IT.BW.DOMAIN" OrderNumber="2" Mandatory="Yes"/>
        <ItemRef ItemOID="IT.BW.USUBJID" OrderNumber="3" Mandatory="Yes" KeySequence="2" MethodOID="MT.COMPUSUBJID"/>
        <ItemRef ItemOID="IT.BW.BWSEQ" OrderNumber="4" Mandatory="Yes" MethodOID="MT.COMPSEQ"/>
        <ItemRef ItemOID="IT.BW.BWTESTCD" OrderNumber="5" Mandatory="Yes" KeySequence="3"/>
        <ItemRef ItemOID="IT.BW.BWTEST" OrderNumber="6" Mandatory="Yes"/>
        <ItemRef ItemOID="IT.BW.BWORRES" OrderNumber="7" Mandatory="No"/>
        <ItemRef ItemOID="IT.BW.BWORRESU" OrderNumber="8" Mandatory="No"/>
        <ItemRef ItemOID="IT.BW.BWSTRESC" OrderNumber="9" Mandatory="No" MethodOID="MT.COMPSTRESC"/>
        <ItemRef ItemOID="IT.BW.BWSTRESN" OrderNumber="10" Mandatory="No" MethodOID="MT.COMPSTRESN"/>
        <ItemRef ItemOID="IT.BW.BWSTRESU" OrderNumber="11" Mandatory="No" MethodOID="MT.COMPSTRESU"/>
        <ItemRef ItemOID="IT.BW.BWBLFL" OrderNumber="12" Mandatory="No" MethodOID="MT.COMPBLFL"/>
        <ItemRef ItemOID="IT.BW.BWDTC" OrderNumber="13" Mandatory="No" KeySequence="4"/>
        <ItemRef ItemOID="IT.BW.BWDY" OrderNumber="14" Mandatory="No" MethodOID="MT.COMPDY"/>
        <ItemRef ItemOID="IT.BW.BWNOMDY" OrderNumber="15" Mandatory="No"/>
        <ItemRef ItemOID="IT.BW.BWNOMLBL" OrderNumber="16" Mandatory="No"/>
        <def:leaf ID="LF.BW" xlink:href="bw.xpt">
          <def:title>bw.xpt</def:title>
        </def:leaf>
      </ItemGroupDef>
      <ItemGroupDef OID="IG.CL" Domain="CL" Name="CL" Repeating="Yes" IsReferenceData="No" SASDatasetName="CL" Purpose="Tabulation" def:Structure="One record per finding per observation time per subject" def:Class="FINDINGS" def:ArchiveLocationID="LF.CL">
        <Description>
          <TranslatedText xml:lang="en">Clinical Observations</TranslatedText>
        </Description>
        <ItemRef ItemOID="IT.CL.STUDYID" OrderNumber="1" Mandatory="Yes" KeySequence="1"/>
        <ItemRef ItemOID="IT.CL.DOMAIN" OrderNumber="2" Mandatory="Yes"/>
        <ItemRef ItemOID="IT.CL.USUBJID" OrderNumber="3" Mandatory="No" KeySequence="2" MethodOID="MT.COMPUSUBJID"/>
        <ItemRef ItemOID="IT.CL.CLSEQ" OrderNumber="4" Mandatory="Yes" MethodOID="MT.COMPSEQ"/>
        <ItemRef ItemOID="IT.CL.CLTESTCD" OrderNumber="5" Mandatory="Yes" KeySequence="3"/>
        <ItemRef ItemOID="IT.CL.CLTEST" OrderNumber="6" Mandatory="Yes"/>
        <ItemRef ItemOID="IT.CL.CLCAT" OrderNumber="7" Mandatory="Yes" KeySequence="4"/>
        <ItemRef ItemOID="IT.CL.CLSCAT" OrderNumber="8" Mandatory="No" KeySequence="5"/>
        <ItemRef ItemOID="IT.CL.CLORRES" OrderNumber="9" Mandatory="No" KeySequence="6"/>
        <ItemRef ItemOID="IT.CL.CLSTRESC" OrderNumber="10" Mandatory="No"/>
        <ItemRef ItemOID="IT.CL.CLLOC" OrderNumber="11" Mandatory="No"/>
        <ItemRef ItemOID="IT.CL.CLSEV" OrderNumber="12" Mandatory="No"/>
        <ItemRef ItemOID="IT.CL.CLDTC" OrderNumber="13" Mandatory="No" KeySequence="7"/>
        <ItemRef ItemOID="IT.CL.CLDY" OrderNumber="14" Mandatory="No" MethodOID="MT.COMPDY"/>
        <ItemRef ItemOID="IT.CL.CLNOMDY" OrderNumber="15" Mandatory="No"/>
        <ItemRef ItemOID="IT.CL.CLNOMLBL" OrderNumber="16" Mandatory="No"/>
        <ItemRef ItemOID="IT.CL.CLTPT" OrderNumber="17" Mandatory="No"/>
        <ItemRef ItemOID="IT.CL.CLTPTNUM" OrderNumber="18" Mandatory="No" KeySequence="8" MethodOID="MT.COMPTPTNUM"/>
        <def:leaf ID="LF.CL" xlink:href="cl.xpt">
          <def:title>cl.xpt</def:title>
        </def:leaf>
      </ItemGroupDef>
      <ItemGroupDef OID="IG.FW" Domain="FW" Name="FW" Repeating="Yes" IsReferenceData="No" SASDatasetName="FW" Purpose="Tabulation" def:Structure="One record per test per interval per subject" def:Class="FINDINGS" def:ArchiveLocationID="LF.FW">
        <Description>
          <TranslatedText xml:lang="en">Food and Water Consumption</TranslatedText>
        </Description>
        <ItemRef ItemOID="IT.FW.STUDYID" OrderNumber="1" Mandatory="Yes" KeySequence="1"/>
        <ItemRef ItemOID="IT.FW.DOMAIN" OrderNumber="2" Mandatory="Yes"/>
        <ItemRef ItemOID="IT.FW.USUBJID" OrderNumber="3" Mandatory="No" KeySequence="2" MethodOID="MT.COMPUSUBJID"/>
        <ItemRef ItemOID="IT.FW.FWSEQ" OrderNumber="4" Mandatory="Yes" MethodOID="MT.COMPSEQ"/>
        <ItemRef ItemOID="IT.FW.FWTESTCD" OrderNumber="5" Mandatory="Yes" KeySequence="3"/>
        <ItemRef ItemOID="IT.FW.FWTEST" OrderNumber="6" Mandatory="Yes"/>
        <ItemRef ItemOID="IT.FW.FWORRES" OrderNumber="7" Mandatory="No"/>
        <ItemRef ItemOID="IT.FW.FWORRESU" OrderNumber="8" Mandatory="No"/>
        <ItemRef ItemOID="IT.FW.FWSTRESC" OrderNumber="9" Mandatory="No" MethodOID="MT.COMPFWPERDAY"/>
        <ItemRef ItemOID="IT.FW.FWSTRESN" OrderNumber="10" Mandatory="No" MethodOID="MT.COMPSTRESN"/>
        <ItemRef ItemOID="IT.FW.FWSTRESU" OrderNumber="11" Mandatory="No" MethodOID="MT.COMPSTRESU"/>
        <ItemRef ItemOID="IT.FW.FWDTC" OrderNumber="12" Mandatory="No" KeySequence="4"/>
        <ItemRef ItemOID="IT.FW.FWENDTC" OrderNumber="13" Mandatory="No" KeySequence="5"/>
        <ItemRef ItemOID="IT.FW.FWDY" OrderNumber="14" Mandatory="No" MethodOID="MT.COMPDY"/>
        <ItemRef ItemOID="IT.FW.FWENDY" OrderNumber="15" Mandatory="No"/>
        <def:leaf ID="LF.FW" xlink:href="fw.xpt">
          <def:title>fw.xpt</def:title>
        </def:leaf>
      </ItemGroupDef>
      <ItemGroupDef OID="IG.LB" Domain="LB" Name="LB" Repeating="Yes" IsReferenceData="No" SASDatasetName="LB" Purpose="Tabulation" def:Structure="One record per test per specimen per observation time per subject" def:Class="FINDINGS" def:ArchiveLocationID="LF.LB">
        <Description>
          <TranslatedText xml:lang="en">Laboratory Test Results</TranslatedText>
        </Description>
        <ItemRef ItemOID="IT.LB.STUDYID" OrderNumber="1" Mandatory="Yes" KeySequence="1"/>
        <ItemRef ItemOID="IT.LB.DOMAIN" OrderNumber="2" Mandatory="Yes"/>
        <ItemRef ItemOID="IT.LB.USUBJID" OrderNumber="3" Mandatory="No" KeySequence="2" MethodOID="MT.COMPUSUBJID"/>
        <ItemRef ItemOID="IT.LB.LBSEQ" OrderNumber="4" Mandatory="Yes" MethodOID="MT.COMPSEQ"/>
        <ItemRef ItemOID="IT.LB.LBTESTCD" OrderNumber="5" Mandatory="Yes" KeySequence="3"/>
        <ItemRef ItemOID="IT.LB.LBTEST" OrderNumber="6" Mandatory="Yes"/>
        <ItemRef ItemOID="IT.LB.LBCAT" OrderNumber="7" Mandatory="No" KeySequence="4"/>
        <ItemRef ItemOID="IT.LB.LBSCAT" OrderNumber="8" Mandatory="No" KeySequence="5"/>
        <ItemRef ItemOID="IT.LB.LBORRES" OrderNumber="9" Mandatory="No"/>
        <ItemRef ItemOID="IT.LB.LBORRESU" OrderNumber="10" Mandatory="No"/>
        <ItemRef ItemOID="IT.LB.LBSTRESC" OrderNumber="11" Mandatory="No" MethodOID="MT.COMPLBSTRESC"/>
        <ItemRef ItemOID="IT.LB.LBSTRESN" OrderNumber="12" Mandatory="No" MethodOID="MT.COMPSTRESN"/>
        <ItemRef ItemOID="IT.LB.LBSTRESU" OrderNumber="13" Mandatory="No" MethodOID="MT.COMPSTRESU"/>
        <ItemRef ItemOID="IT.LB.LBSTAT" OrderNumber="14" Mandatory="No"/>
        <ItemRef ItemOID="IT.LB.LBREASND" OrderNumber="15" Mandatory="No"/>
        <ItemRef ItemOID="IT.LB.LBSPEC" OrderNumber="16" Mandatory="No"/>
        <ItemRef ItemOID="IT.LB.LBMETHOD" OrderNumber="17" Mandatory="No"/>
        <ItemRef ItemOID="IT.LB.LBBLFL" OrderNumber="18" Mandatory="No" MethodOID="MT.COMPBLFL"/>
        <ItemRef ItemOID="IT.LB.LBEXCLFL" OrderNumber="19" Mandatory="No"/>
        <ItemRef ItemOID="IT.LB.LBREASEX" OrderNumber="20" Mandatory="No"/>
        <ItemRef ItemOID="IT.LB.LBUSCHFL" OrderNumber="21" Mandatory="No"/>
        <ItemRef ItemOID="IT.LB.LBDTC" OrderNumber="22" Mandatory="No" KeySequence="6"/>
        <ItemRef ItemOID="IT.LB.LBDY" OrderNumber="23" Mandatory="No" MethodOID="MT.COMPDY"/>
        <ItemRef ItemOID="IT.LB.LBNOMDY" OrderNumber="24" Mandatory="No"/>
        <ItemRef ItemOID="IT.LB.LBNOMLBL" OrderNumber="25" Mandatory="No"/>
        <def:leaf ID="LF.LB" xlink:href="lb.xpt">
          <def:title>lb.xpt</def:title>
        </def:leaf>
      </ItemGroupDef>
      <ItemGroupDef OID="IG.MA" Domain="MA" Name="MA" Repeating="Yes" IsReferenceData="No" SASDatasetName="MA" Purpose="Tabulation" def:Structure="One record per finding per specimen per subject" def:Class="FINDINGS" def:ArchiveLocationID="LF.MA">
        <Description>
          <TranslatedText xml:lang="en">Macroscopic Findings</TranslatedText>
        </Description>
        <ItemRef ItemOID="IT.MA.STUDYID" OrderNumber="1" Mandatory="Yes" KeySequence="1"/>
        <ItemRef ItemOID="IT.MA.DOMAIN" OrderNumber="2" Mandatory="Yes"/>
        <ItemRef ItemOID="IT.MA.USUBJID" OrderNumber="3" Mandatory="Yes" KeySequence="2" MethodOID="MT.COMPUSUBJID"/>
        <ItemRef ItemOID="IT.MA.FOCID" OrderNumber="4" Mandatory="No"/>
        <ItemRef ItemOID="IT.MA.MASEQ" OrderNumber="5" Mandatory="Yes" MethodOID="MT.COMPSEQ"/>
        <ItemRef ItemOID="IT.MA.MATESTCD" OrderNumber="6" Mandatory="Yes" KeySequence="3"/>
        <ItemRef ItemOID="IT.MA.MATEST" OrderNumber="7" Mandatory="Yes"/>
        <ItemRef ItemOID="IT.MA.MAORRES" OrderNumber="8" Mandatory="No" KeySequence="4"/>
        <ItemRef ItemOID="IT.MA.MASTRESC" OrderNumber="9" Mandatory="No" KeySequence="5"/>
        <ItemRef ItemOID="IT.MA.MASPEC" OrderNumber="10" Mandatory="No" KeySequence="6"/>
        <ItemRef ItemOID="IT.MA.MADTC" OrderNumber="11" Mandatory="No"/>
        <ItemRef ItemOID="IT.MA.MADY" OrderNumber="12" Mandatory="No" MethodOID="MT.COMPDY"/>
        <def:leaf ID="LF.MA" xlink:href="ma.xpt">
          <def:title>ma.xpt</def:title>
        </def:leaf>
      </ItemGroupDef>
      <ItemGroupDef OID="IG.MI" Domain="MI" Name="MI" Repeating="Yes" IsReferenceData="No" SASDatasetName="MI" Purpose="Tabulation" def:Structure="One record per finding per specimen per subject" def:Class="FINDINGS" def:ArchiveLocationID="LF.MI">
        <Description>
          <TranslatedText xml:lang="en">Microscopic Findings</TranslatedText>
        </Description>
        <ItemRef ItemOID="IT.MI.STUDYID" OrderNumber="1" Mandatory="Yes" KeySequence="1"/>
        <ItemRef ItemOID="IT.MI.DOMAIN" OrderNumber="2" Mandatory="Yes"/>
        <ItemRef ItemOID="IT.MI.USUBJID" OrderNumber="3" Mandatory="Yes" KeySequence="2" MethodOID="MT.COMPUSUBJID"/>
        <ItemRef ItemOID="IT.MI.FOCID" OrderNumber="4" Mandatory="No"/>
        <ItemRef ItemOID="IT.MI.MISEQ" OrderNumber="5" Mandatory="Yes" MethodOID="MT.COMPSEQ"/>
        <ItemRef ItemOID="IT.MI.MITESTCD" OrderNumber="6" Mandatory="Yes" KeySequence="3"/>
        <ItemRef ItemOID="IT.MI.MITEST" OrderNumber="7" Mandatory="Yes"/>
        <ItemRef ItemOID="IT.MI.MIORRES" OrderNumber="8" Mandatory="No" KeySequence="4"/>
        <ItemRef ItemOID="IT.MI.MISTRESC" OrderNumber="9" Mandatory="No" KeySequence="5"/>
        <ItemRef ItemOID="IT.MI.MIRESCAT" OrderNumber="10" Mandatory="No"/>
        <ItemRef ItemOID="IT.MI.MICHRON" OrderNumber="11" Mandatory="No"/>
        <ItemRef ItemOID="IT.MI.MIDISTR" OrderNumber="12" Mandatory="No"/>
        <ItemRef ItemOID="IT.MI.MISTAT" OrderNumber="13" Mandatory="No"/>
        <ItemRef ItemOID="IT.MI.MIREASND" OrderNumber="14" Mandatory="No"/>
        <ItemRef ItemOID="IT.MI.MISPEC" OrderNumber="15" Mandatory="Yes" KeySequence="6"/>
        <ItemRef ItemOID="IT.MI.MISPCCND" OrderNumber="16" Mandatory="No"/>
        <ItemRef ItemOID="IT.MI.MISPCUFL" OrderNumber="17" Mandatory="No"/>
        <ItemRef ItemOID="IT.MI.MISEV" OrderNumber="18" Mandatory="No"/>
        <ItemRef ItemOID="IT.MI.MIDTHREL" OrderNumber="19" Mandatory="No"/>
        <ItemRef ItemOID="IT.MI.MIDTC" OrderNumber="20" Mandatory="No"/>
        <ItemRef ItemOID="IT.MI.MIDY" OrderNumber="21" Mandatory="No" MethodOID="MT.COMPDY"/>
        <def:leaf ID="LF.MI" xlink:href="mi.xpt">
          <def:title>mi.xpt</def:title>
        </def:leaf>
      </ItemGroupDef>
      <ItemGroupDef OID="IG.OM" Domain="OM" Name="OM" Repeating="Yes" IsReferenceData="No" SASDatasetName="OM" Purpose="Tabulation" def:Structure="One record per test per specimen per subject" def:Class="FINDINGS" def:ArchiveLocationID="LF.OM">
        <Description>
          <TranslatedText xml:lang="en">Organ Measurements</TranslatedText>
        </Description>
        <ItemRef ItemOID="IT.OM.STUDYID" OrderNumber="1" Mandatory="Yes" KeySequence="1"/>
        <ItemRef ItemOID="IT.OM.DOMAIN" OrderNumber="2" Mandatory="Yes"/>
        <ItemRef ItemOID="IT.OM.USUBJID" OrderNumber="3" Mandatory="Yes" KeySequence="2" MethodOID="MT.COMPUSUBJID"/>
        <ItemRef ItemOID="IT.OM.OMSEQ" OrderNumber="4" Mandatory="Yes" MethodOID="MT.COMPSEQ"/>
        <ItemRef ItemOID="IT.OM.OMTESTCD" OrderNumber="5" Mandatory="Yes" KeySequence="3"/>
        <ItemRef ItemOID="IT.OM.OMTEST" OrderNumber="6" Mandatory="Yes"/>
        <ItemRef ItemOID="IT.OM.OMORRES" OrderNumber="7" Mandatory="No"/>
        <ItemRef ItemOID="IT.OM.OMORRESU" OrderNumber="8" Mandatory="No"/>
        <ItemRef ItemOID="IT.OM.OMSTRESC" OrderNumber="9" Mandatory="No" MethodOID="MT.COMPSTRESC"/>
        <ItemRef ItemOID="IT.OM.OMSTRESN" OrderNumber="10" Mandatory="No" MethodOID="MT.COMPSTRESN"/>
        <ItemRef ItemOID="IT.OM.OMSTRESU" OrderNumber="11" Mandatory="No" MethodOID="MT.COMPSTRESU"/>
        <ItemRef ItemOID="IT.OM.OMSPEC" OrderNumber="12" Mandatory="Yes" KeySequence="4"/>
        <ItemRef ItemOID="IT.OM.OMEXCLFL" OrderNumber="13" Mandatory="No"/>
        <ItemRef ItemOID="IT.OM.OMREASEX" OrderNumber="14" Mandatory="No"/>
        <ItemRef ItemOID="IT.OM.OMDTC" OrderNumber="15" Mandatory="No"/>
        <ItemRef ItemOID="IT.OM.OMDY" OrderNumber="16" Mandatory="No" MethodOID="MT.COMPDY"/>
        <ItemRef ItemOID="IT.OM.OMNOMDY" OrderNumber="17" Mandatory="No"/>
        <ItemRef ItemOID="IT.OM.OMNOMLBL" OrderNumber="18" Mandatory="No"/>
        <def:leaf ID="LF.OM" xlink:href="om.xpt">
          <def:title>om.xpt</def:title>
        </def:leaf>
      </ItemGroupDef>
      <ItemGroupDef OID="IG.VS" Domain="VS" Name="VS" Repeating="Yes" IsReferenceData="No" SASDatasetName="VS" Purpose="Tabulation" def:Structure="One record per measurement per observation time per subject" def:Class="FINDINGS" def:ArchiveLocationID="LF.VS">
        <Description>
          <TranslatedText xml:lang="en">Vital Signs</TranslatedText>
        </Description>
        <ItemRef ItemOID="IT.VS.STUDYID" OrderNumber="1" Mandatory="Yes" KeySequence="1"/>
        <ItemRef ItemOID="IT.VS.DOMAIN" OrderNumber="2" Mandatory="Yes"/>
        <ItemRef ItemOID="IT.VS.USUBJID" OrderNumber="3" Mandatory="Yes" KeySequence="2" MethodOID="MT.COMPUSUBJID"/>
        <ItemRef ItemOID="IT.VS.VSSEQ" OrderNumber="4" Mandatory="Yes" MethodOID="MT.COMPSEQ"/>
        <ItemRef ItemOID="IT.VS.VSTESTCD" OrderNumber="5" Mandatory="Yes" KeySequence="3"/>
        <ItemRef ItemOID="IT.VS.VSTEST" OrderNumber="6" Mandatory="Yes"/>
        <ItemRef ItemOID="IT.VS.VSORRES" OrderNumber="7" Mandatory="No"/>
        <ItemRef ItemOID="IT.VS.VSORRESU" OrderNumber="8" Mandatory="No"/>
        <ItemRef ItemOID="IT.VS.VSSTRESC" OrderNumber="9" Mandatory="No" MethodOID="MT.COMPSTRESC"/>
        <ItemRef ItemOID="IT.VS.VSSTRESN" OrderNumber="10" Mandatory="No" MethodOID="MT.COMPSTRESN"/>
        <ItemRef ItemOID="IT.VS.VSSTRESU" OrderNumber="11" Mandatory="No" MethodOID="MT.COMPSTRESU"/>
        <ItemRef ItemOID="IT.VS.VSBLFL" OrderNumber="12" Mandatory="No" MethodOID="MT.COMPBLFL"/>
        <ItemRef ItemOID="IT.VS.VSDTC" OrderNumber="13" Mandatory="No" KeySequence="4"/>
        <ItemRef ItemOID="IT.VS.VSDY" OrderNumber="14" Mandatory="No" MethodOID="MT.COMPDY"/>
        <ItemRef ItemOID="IT.VS.VSNOMDY" OrderNumber="15" Mandatory="No"/>
        <ItemRef ItemOID="IT.VS.VSNOMLBL" OrderNumber="16" Mandatory="No"/>
        <ItemRef ItemOID="IT.VS.VSTPT" OrderNumber="17" Mandatory="No"/>
        <ItemRef ItemOID="IT.VS.VSTPTNUM" OrderNumber="18" Mandatory="No" KeySequence="5" MethodOID="MT.COMPTPTNUM"/>
        <def:leaf ID="LF.VS" xlink:href="vs.xpt">
          <def:title>vs.xpt</def:title>
        </def:leaf>
      </ItemGroupDef>
      <ItemGroupDef OID="IG.RELREC" Domain="RELREC" Name="RELREC" Repeating="Yes" IsReferenceData="No" SASDatasetName="RELREC" Purpose="Tabulation" def:Structure="One record per related record, related group of records, or related dataset" def:Class="RELATIONSHIP" def:ArchiveLocationID="LF.RELREC">
        <Description>
          <TranslatedText xml:lang="en">Related Records</TranslatedText>
        </Description>
        <ItemRef ItemOID="IT.RELREC.STUDYID" OrderNumber="1" Mandatory="Yes" KeySequence="1"/>
        <ItemRef ItemOID="IT.RELREC.RDOMAIN" OrderNumber="2" Mandatory="Yes" KeySequence="2"/>
        <ItemRef ItemOID="IT.RELREC.USUBJID" OrderNumber="3" Mandatory="No" KeySequence="3" MethodOID="MT.COMPUSUBJID"/>
        <ItemRef ItemOID="IT.RELREC.IDVAR" OrderNumber="4" Mandatory="Yes" KeySequence="4"/>
        <ItemRef ItemOID="IT.RELREC.IDVARVAL" OrderNumber="5" Mandatory="No" KeySequence="5"/>
        <ItemRef ItemOID="IT.RELREC.RELID" OrderNumber="6" Mandatory="Yes" KeySequence="6"/>
        <def:leaf ID="LF.RELREC" xlink:href="relrec.xpt">
          <def:title>relrec.xpt</def:title>
        </def:leaf>
      </ItemGroupDef>
      <ItemGroupDef OID="IG.SUPPMA" Domain="SUPPMA" Name="SUPPMA" Repeating="Yes" IsReferenceData="No" SASDatasetName="SUPPMA" Purpose="Tabulation" def:Structure="One record per supplemental qualifier value per original domain record" def:Class="RELATIONSHIP" def:ArchiveLocationID="LF.SUPPMA">
        <Description>
          <TranslatedText xml:lang="en">Supplemental Qualifiers for MA</TranslatedText>
        </Description>
        <ItemRef ItemOID="IT.SUPPMA.STUDYID" OrderNumber="1" Mandatory="Yes" KeySequence="1"/>
        <ItemRef ItemOID="IT.SUPPMA.RDOMAIN" OrderNumber="2" Mandatory="Yes" KeySequence="2"/>
        <ItemRef ItemOID="IT.SUPPMA.USUBJID" OrderNumber="3" Mandatory="No" KeySequence="3" MethodOID="MT.COMPUSUBJID"/>
        <ItemRef ItemOID="IT.SUPPMA.IDVAR" OrderNumber="4" Mandatory="No" KeySequence="4"/>
        <ItemRef ItemOID="IT.SUPPMA.IDVARVAL" OrderNumber="5" Mandatory="No" KeySequence="5"/>
        <ItemRef ItemOID="IT.SUPPMA.QNAM" OrderNumber="6" Mandatory="Yes"/>
        <ItemRef ItemOID="IT.SUPPMA.QLABEL" OrderNumber="7" Mandatory="Yes"/>
        <ItemRef ItemOID="IT.SUPPMA.QVAL" OrderNumber="8" Mandatory="Yes"/>
        <ItemRef ItemOID="IT.SUPPMA.QORIG" OrderNumber="9" Mandatory="No"/>
        <def:leaf ID="LF.SUPPMA" xlink:href="suppma.xpt">
          <def:title>suppma.xpt</def:title>
        </def:leaf>
      </ItemGroupDef>
      <ItemGroupDef OID="IG.SUPPMI" Domain="SUPPMI" Name="SUPPMI" Repeating="Yes" IsReferenceData="No" SASDatasetName="SUPPMI" Purpose="Tabulation" def:Structure="One record per supplemental qualifier value per original domain record" def:Class="RELATIONSHIP" def:ArchiveLocationID="LF.SUPPMI">
        <Description>
          <TranslatedText xml:lang="en">Supplemental Qualifiers for MI</TranslatedText>
        </Description>
        <ItemRef ItemOID="IT.SUPPMI.STUDYID" OrderNumber="1" Mandatory="Yes" KeySequence="1"/>
        <ItemRef ItemOID="IT.SUPPMI.RDOMAIN" OrderNumber="2" Mandatory="Yes" KeySequence="2"/>
        <ItemRef ItemOID="IT.SUPPMI.USUBJID" OrderNumber="3" Mandatory="No" KeySequence="3" MethodOID="MT.COMPUSUBJID"/>
        <ItemRef ItemOID="IT.SUPPMI.IDVAR" OrderNumber="4" Mandatory="No" KeySequence="4"/>
        <ItemRef ItemOID="IT.SUPPMI.IDVARVAL" OrderNumber="5" Mandatory="No" KeySequence="5"/>
        <ItemRef ItemOID="IT.SUPPMI.QNAM" OrderNumber="6" Mandatory="Yes"/>
        <ItemRef ItemOID="IT.SUPPMI.QLABEL" OrderNumber="7" Mandatory="Yes"/>
        <ItemRef ItemOID="IT.SUPPMI.QVAL" OrderNumber="8" Mandatory="Yes"/>
        <ItemRef ItemOID="IT.SUPPMI.QORIG" OrderNumber="9" Mandatory="No"/>
        <def:leaf ID="LF.SUPPMI" xlink:href="suppmi.xpt">
          <def:title>suppmi.xpt</def:title>
        </def:leaf>
      </ItemGroupDef>
      <ItemDef OID="IT.TA.STUDYID" Name="STUDYID" DataType="text" Length="8" SASFieldName="STUDYID">
        <Description>
          <TranslatedText xml:lang="en">Study Identifier</TranslatedText>
        </Description>
        <def:Origin Type="OTHER"/>
      </ItemDef>
      <ItemDef OID="IT.TA.DOMAIN" Name="DOMAIN" DataType="text" Length="2" SASFieldName="DOMAIN">
        <Description>
          <TranslatedText xml:lang="en">Domain Abbreviation</TranslatedText>
        </Description>
        <def:Origin Type="OTHER"/>
      </ItemDef>
      <ItemDef OID="IT.TA.ARMCD" Name="ARMCD" DataType="text" Length="2" SASFieldName="ARMCD">
        <Description>
          <TranslatedText xml:lang="en">Planned Arm Code</TranslatedText>
        </Description>
        <CodeListRef CodeListOID="CL.ARMCD"/>
        <def:Origin Type="OTHER"/>
      </ItemDef>
      <ItemDef OID="IT.TA.ARM" Name="ARM" DataType="text" Length="29" SASFieldName="ARM">
        <Description>
          <TranslatedText xml:lang="en">Description of Planned Arm</TranslatedText>
        </Description>
        <CodeListRef CodeListOID="CL.ARM"/>
        <def:Origin Type="OTHER"/>
      </ItemDef>
      <ItemDef OID="IT.TA.TAETORD" Name="TAETORD" DataType="integer" Length="8" SASFieldName="TAETORD">
        <Description>
          <TranslatedText xml:lang="en">Order of Element within Arm</TranslatedText>
        </Description>
        <def:Origin Type="OTHER"/>
      </ItemDef>
      <ItemDef OID="IT.TA.ETCD" Name="ETCD" DataType="text" Length="8" SASFieldName="ETCD">
        <Description>
          <TranslatedText xml:lang="en">Element Code</TranslatedText>
        </Description>
        <CodeListRef CodeListOID="CL.ETCD"/>
        <def:Origin Type="OTHER"/>
      </ItemDef>
      <ItemDef OID="IT.TA.ELEMENT" Name="ELEMENT" DataType="text" Length="31" SASFieldName="ELEMENT">
        <Description>
          <TranslatedText xml:lang="en">Description of Element</TranslatedText>
        </Description>
        <CodeListRef CodeListOID="CL.ELEMENT"/>
        <def:Origin Type="OTHER"/>
      </ItemDef>
      <ItemDef OID="IT.TA.EPOCH" Name="EPOCH" DataType="text" Length="11" SASFieldName="EPOCH">
        <Description>
          <TranslatedText xml:lang="en">Trial Epoch</TranslatedText>
        </Description>
        <def:Origin Type="OTHER"/>
      </ItemDef>
      <ItemDef OID="IT.TE.STUDYID" Name="STUDYID" DataType="text" Length="8" SASFieldName="STUDYID">
        <Description>
          <TranslatedText xml:lang="en">Study Identifier</TranslatedText>
        </Description>
        <def:Origin Type="OTHER"/>
      </ItemDef>
      <ItemDef OID="IT.TE.DOMAIN" Name="DOMAIN" DataType="text" Length="2" SASFieldName="DOMAIN">
        <Description>
          <TranslatedText xml:lang="en">Domain Abbreviation</TranslatedText>
        </Description>
        <def:Origin Type="OTHER"/>
      </ItemDef>
      <ItemDef OID="IT.TE.ETCD" Name="ETCD" DataType="text" Length="8" SASFieldName="ETCD">
        <Description>
          <TranslatedText xml:lang="en">Element Code</TranslatedText>
        </Description>
        <CodeListRef CodeListOID="CL.ETCD"/>
        <def:Origin Type="OTHER"/>
      </ItemDef>
      <ItemDef OID="IT.TE.ELEMENT" Name="ELEMENT" DataType="text" Length="31" SASFieldName="ELEMENT">
        <Description>
          <TranslatedText xml:lang="en">Description of Element</TranslatedText>
        </Description>
        <CodeListRef CodeListOID="CL.ELEMENT"/>
        <def:Origin Type="OTHER"/>
      </ItemDef>
      <ItemDef OID="IT.TE.TESTRL" Name="TESTRL" DataType="text" Length="52" SASFieldName="TESTRL">
        <Description>
          <TranslatedText xml:lang="en">Rule for Start of Element</TranslatedText>
        </Description>
        <def:Origin Type="OTHER"/>
      </ItemDef>
      <ItemDef OID="IT.TE.TEENRL" Name="TEENRL" DataType="text" Length="25" SASFieldName="TEENRL">
        <Description>
          <TranslatedText xml:lang="en">Rule for End of Element</TranslatedText>
        </Description>
        <def:Origin Type="OTHER"/>
      </ItemDef>
      <ItemDef OID="IT.TE.TEDUR" Name="TEDUR" DataType="durationDatetime" SASFieldName="TEDUR">
        <Description>
          <TranslatedText xml:lang="en">Planned Duration of Element</TranslatedText>
        </Description>
        <def:Origin Type="OTHER"/>
      </ItemDef>
      <ItemDef OID="IT.TS.STUDYID" Name="STUDYID" DataType="text" Length="8" SASFieldName="STUDYID">
        <Description>
          <TranslatedText xml:lang="en">Study Identifier</TranslatedText>
        </Description>
        <def:Origin Type="OTHER"/>
      </ItemDef>
      <ItemDef OID="IT.TS.DOMAIN" Name="DOMAIN" DataType="text" Length="2" SASFieldName="DOMAIN">
        <Description>
          <TranslatedText xml:lang="en">Domain Abbreviation</TranslatedText>
        </Description>
        <def:Origin Type="OTHER"/>
      </ItemDef>
      <ItemDef OID="IT.TS.TSSEQ" Name="TSSEQ" DataType="integer" Length="8" SASFieldName="TSSEQ" def:CommentOID="COM.CMTTSSEQ">
        <Description>
          <TranslatedText xml:lang="en">Sequence Number</TranslatedText>
        </Description>
        <def:Origin Type="OTHER"/>
      </ItemDef>
      <ItemDef OID="IT.TS.TSGRPID" Name="TSGRPID" DataType="text" Length="1" SASFieldName="TSGRPID">
        <Description>
          <TranslatedText xml:lang="en">Group Identifier</TranslatedText>
        </Description>
        <def:Origin Type="OTHER"/>
      </ItemDef>
      <ItemDef OID="IT.TS.TSPARMCD" Name="TSPARMCD" DataType="text" Length="8" SASFieldName="TSPARMCD">
        <Description>
          <TranslatedText xml:lang="en">Trial Summary Parameter Short Name</TranslatedText>
        </Description>
        <CodeListRef CodeListOID="CL.STSPRMCD"/>
        <def:Origin Type="OTHER"/>
      </ItemDef>
      <ItemDef OID="IT.TS.TSPARM" Name="TSPARM" DataType="text" Length="38" SASFieldName="TSPARM">
        <Description>
          <TranslatedText xml:lang="en">Trial Summary Parameter</TranslatedText>
        </Description>
        <CodeListRef CodeListOID="CL.STSPRM"/>
        <def:Origin Type="OTHER"/>
      </ItemDef>
      <ItemDef OID="IT.TS.TSVAL" Name="TSVAL" DataType="text" Length="105" SASFieldName="TSVAL" def:CommentOID="COM.CMTTSVAL">
        <Description>
          <TranslatedText xml:lang="en">Parameter Value</TranslatedText>
        </Description>
        <def:Origin Type="OTHER"/>
        <def:ValueListRef ValueListOID="VL.TS.TSVAL"/>
      </ItemDef>
      <ItemDef OID="IT.TS.TSVALNF" Name="TSVALNF" DataType="text" Length="7" SASFieldName="TSVALNF">
        <Description>
          <TranslatedText xml:lang="en">Parameter Null Flavor</TranslatedText>
        </Description>
        <CodeListRef CodeListOID="CL.NULLFLAV"/>
        <def:Origin Type="OTHER"/>
      </ItemDef>
      <ItemDef OID="IT.TX.STUDYID" Name="STUDYID" DataType="text" Length="8" SASFieldName="STUDYID">
        <Description>
          <TranslatedText xml:lang="en">Study Identifier</TranslatedText>
        </Description>
        <def:Origin Type="OTHER"/>
      </ItemDef>
      <ItemDef OID="IT.TX.DOMAIN" Name="DOMAIN" DataType="text" Length="2" SASFieldName="DOMAIN">
        <Description>
          <TranslatedText xml:lang="en">Domain Abbreviation</TranslatedText>
        </Description>
        <def:Origin Type="OTHER"/>
      </ItemDef>
      <ItemDef OID="IT.TX.SETCD" Name="SETCD" DataType="text" Length="2" SASFieldName="SETCD">
        <Description>
          <TranslatedText xml:lang="en">Set Code</TranslatedText>
        </Description>
        <CodeListRef CodeListOID="CL.SETCD"/>
        <def:Origin Type="OTHER"/>
      </ItemDef>
      <ItemDef OID="IT.TX.SET" Name="SET" DataType="text" Length="29" SASFieldName="SET">
        <Description>
          <TranslatedText xml:lang="en">Set Description</TranslatedText>
        </Description>
        <CodeListRef CodeListOID="CL.SET"/>
        <def:Origin Type="OTHER"/>
      </ItemDef>
      <ItemDef OID="IT.TX.TXSEQ" Name="TXSEQ" DataType="integer" Length="8" SASFieldName="TXSEQ" def:CommentOID="COM.CMTTXSEQ">
        <Description>
          <TranslatedText xml:lang="en">Sequence Number</TranslatedText>
        </Description>
        <def:Origin Type="OTHER"/>
      </ItemDef>
      <ItemDef OID="IT.TX.TXPARMCD" Name="TXPARMCD" DataType="text" Length="8" SASFieldName="TXPARMCD">
        <Description>
          <TranslatedText xml:lang="en">Trial Set Parameter Short Name</TranslatedText>
        </Description>
        <CodeListRef CodeListOID="CL.STSPRMCD"/>
        <def:Origin Type="OTHER"/>
      </ItemDef>
      <ItemDef OID="IT.TX.TXPARM" Name="TXPARM" DataType="text" Length="33" SASFieldName="TXPARM">
        <Description>
          <TranslatedText xml:lang="en">Trial Set Parameter</TranslatedText>
        </Description>
        <CodeListRef CodeListOID="CL.STSPRM"/>
        <def:Origin Type="OTHER"/>
      </ItemDef>
      <ItemDef OID="IT.TX.TXVAL" Name="TXVAL" DataType="text" Length="39" SASFieldName="TXVAL" def:CommentOID="COM.CMTTXVAL">
        <Description>
          <TranslatedText xml:lang="en">Trial Set Parameter Value</TranslatedText>
        </Description>
        <def:Origin Type="OTHER"/>
        <def:ValueListRef ValueListOID="VL.TX.TXVAL"/>
      </ItemDef>
      <ItemDef OID="IT.CO.STUDYID" Name="STUDYID" DataType="text" Length="8" SASFieldName="STUDYID">
        <Description>
          <TranslatedText xml:lang="en">Study Identifier</TranslatedText>
        </Description>
        <def:Origin Type="OTHER"/>
      </ItemDef>
      <ItemDef OID="IT.CO.DOMAIN" Name="DOMAIN" DataType="text" Length="2" SASFieldName="DOMAIN">
        <Description>
          <TranslatedText xml:lang="en">Domain Abbreviation</TranslatedText>
        </Description>
        <def:Origin Type="OTHER"/>
      </ItemDef>
      <ItemDef OID="IT.CO.RDOMAIN" Name="RDOMAIN" DataType="text" Length="2" SASFieldName="RDOMAIN">
        <Description>
          <TranslatedText xml:lang="en">Related Domain Abbreviation</TranslatedText>
        </Description>
        <def:Origin Type="OTHER"/>
      </ItemDef>
      <ItemDef OID="IT.CO.USUBJID" Name="USUBJID" DataType="text" Length="13" SASFieldName="USUBJID">
        <Description>
          <TranslatedText xml:lang="en">Unique Subject Identifier</TranslatedText>
        </Description>
        <def:Origin Type="OTHER"/>
      </ItemDef>
      <ItemDef OID="IT.CO.COSEQ" Name="COSEQ" DataType="integer" Length="8" SASFieldName="COSEQ">
        <Description>
          <TranslatedText xml:lang="en">Sequence Number</TranslatedText>
        </Description>
        <def:Origin Type="OTHER"/>
      </ItemDef>
      <ItemDef OID="IT.CO.IDVAR" Name="IDVAR" DataType="text" Length="6" SASFieldName="IDVAR">
        <Description>
          <TranslatedText xml:lang="en">Identifying Variable</TranslatedText>
        </Description>
        <def:Origin Type="OTHER"/>
      </ItemDef>
      <ItemDef OID="IT.CO.IDVARVAL" Name="IDVARVAL" DataType="text" Length="22" SASFieldName="IDVARVAL">
        <Description>
          <TranslatedText xml:lang="en">Identifying Variable Value</TranslatedText>
        </Description>
        <def:Origin Type="OTHER"/>
      </ItemDef>
      <ItemDef OID="IT.CO.COVAL" Name="COVAL" DataType="text" Length="50" SASFieldName="COVAL">
        <Description>
          <TranslatedText xml:lang="en">Comment</TranslatedText>
        </Description>
        <def:Origin Type="COLLECTED"/>
      </ItemDef>
      <ItemDef OID="IT.CO.CODTC" Name="CODTC" DataType="datetime" SASFieldName="CODTC" def:CommentOID="COM.NODATA.CMTNOTPOPCODTC">
        <Description>
          <TranslatedText xml:lang="en">Date/Time of Comment</TranslatedText>
        </Description>
        <def:Origin Type="OTHER"/>
      </ItemDef>
      <ItemDef OID="IT.DM.STUDYID" Name="STUDYID" DataType="text" Length="8" SASFieldName="STUDYID">
        <Description>
          <TranslatedText xml:lang="en">Study Identifier</TranslatedText>
        </Description>
        <def:Origin Type="OTHER"/>
      </ItemDef>
      <ItemDef OID="IT.DM.DOMAIN" Name="DOMAIN" DataType="text" Length="2" SASFieldName="DOMAIN">
        <Description>
          <TranslatedText xml:lang="en">Domain Abbreviation</TranslatedText>
        </Description>
        <def:Origin Type="OTHER"/>
      </ItemDef>
      <ItemDef OID="IT.DM.USUBJID" Name="USUBJID" DataType="text" Length="13" SASFieldName="USUBJID">
        <Description>
          <TranslatedText xml:lang="en">Unique Subject Identifier</TranslatedText>
        </Description>
        <def:Origin Type="OTHER"/>
      </ItemDef>
      <ItemDef OID="IT.DM.SUBJID" Name="SUBJID" DataType="text" Length="4" SASFieldName="SUBJID">
        <Description>
          <TranslatedText xml:lang="en">Subject Identifier for the Study</TranslatedText>
        </Description>
        <def:Origin Type="OTHER"/>
      </ItemDef>
      <ItemDef OID="IT.DM.RFSTDTC" Name="RFSTDTC" DataType="datetime" SASFieldName="RFSTDTC" def:CommentOID="COM.CMTRFSTDTC">
        <Description>
          <TranslatedText xml:lang="en">Subject Reference Start Date/Time</TranslatedText>
        </Description>
        <def:Origin Type="COLLECTED"/>
      </ItemDef>
      <ItemDef OID="IT.DM.RFENDTC" Name="RFENDTC" DataType="datetime" SASFieldName="RFENDTC" def:CommentOID="COM.CMTRFENDTC">
        <Description>
          <TranslatedText xml:lang="en">Subject Reference End Date/Time</TranslatedText>
        </Description>
        <def:Origin Type="COLLECTED"/>
      </ItemDef>
      <ItemDef OID="IT.DM.RFXSTDTC" Name="RFXSTDTC" DataType="datetime" SASFieldName="RFXSTDTC">
        <Description>
          <TranslatedText xml:lang="en">Date/Time of First Study Treatment</TranslatedText>
        </Description>
        <def:Origin Type="OTHER"/>
      </ItemDef>
      <ItemDef OID="IT.DM.RFXENDTC" Name="RFXENDTC" DataType="datetime" SASFieldName="RFXENDTC">
        <Description>
          <TranslatedText xml:lang="en">Date/Time of Last Study Treatment</TranslatedText>
        </Description>
        <def:Origin Type="OTHER"/>
      </ItemDef>
      <ItemDef OID="IT.DM.AGETXT" Name="AGETXT" DataType="text" Length="5" SASFieldName="AGETXT" def:CommentOID="COM.CMTAGETXT">
        <Description>
          <TranslatedText xml:lang="en">Age Range</TranslatedText>
        </Description>
        <def:Origin Type="OTHER"/>
      </ItemDef>
      <ItemDef OID="IT.DM.AGEU" Name="AGEU" DataType="text" Length="5" SASFieldName="AGEU">
        <Description>
          <TranslatedText xml:lang="en">Age Unit</TranslatedText>
        </Description>
        <def:Origin Type="OTHER"/>
      </ItemDef>
      <ItemDef OID="IT.DM.SEX" Name="SEX" DataType="text" Length="1" SASFieldName="SEX">
        <Description>
          <TranslatedText xml:lang="en">Sex</TranslatedText>
        </Description>
        <def:Origin Type="COLLECTED"/>
      </ItemDef>
      <ItemDef OID="IT.DM.ARMCD" Name="ARMCD" DataType="text" Length="2" SASFieldName="ARMCD">
        <Description>
          <TranslatedText xml:lang="en">Planned Arm Code</TranslatedText>
        </Description>
        <def:Origin Type="OTHER"/>
      </ItemDef>
      <ItemDef OID="IT.DM.ARM" Name="ARM" DataType="text" Length="29" SASFieldName="ARM">
        <Description>
          <TranslatedText xml:lang="en">Description of Planned Arm</TranslatedText>
        </Description>
        <def:Origin Type="OTHER"/>
      </ItemDef>
      <ItemDef OID="IT.DM.SETCD" Name="SETCD" DataType="text" Length="2" SASFieldName="SETCD">
        <Description>
          <TranslatedText xml:lang="en">Set Code</TranslatedText>
        </Description>
        <def:Origin Type="OTHER"/>
      </ItemDef>
      <ItemDef OID="IT.SE.STUDYID" Name="STUDYID" DataType="text" Length="8" SASFieldName="STUDYID">
        <Description>
          <TranslatedText xml:lang="en">Study Identifier</TranslatedText>
        </Description>
        <def:Origin Type="OTHER"/>
      </ItemDef>
      <ItemDef OID="IT.SE.DOMAIN" Name="DOMAIN" DataType="text" Length="2" SASFieldName="DOMAIN">
        <Description>
          <TranslatedText xml:lang="en">Domain Abbreviation</TranslatedText>
        </Description>
        <def:Origin Type="OTHER"/>
      </ItemDef>
      <ItemDef OID="IT.SE.USUBJID" Name="USUBJID" DataType="text" Length="13" SASFieldName="USUBJID">
        <Description>
          <TranslatedText xml:lang="en">Unique Subject Identifier</TranslatedText>
        </Description>
        <def:Origin Type="OTHER"/>
      </ItemDef>
      <ItemDef OID="IT.SE.SESEQ" Name="SESEQ" DataType="integer" Length="8" SASFieldName="SESEQ" def:CommentOID="COM.CMTSEQ">
        <Description>
          <TranslatedText xml:lang="en">Sequence Number</TranslatedText>
        </Description>
        <def:Origin Type="OTHER"/>
      </ItemDef>
      <ItemDef OID="IT.SE.ETCD" Name="ETCD" DataType="text" Length="8" SASFieldName="ETCD">
        <Description>
          <TranslatedText xml:lang="en">Element Code</TranslatedText>
        </Description>
        <def:Origin Type="OTHER"/>
      </ItemDef>
      <ItemDef OID="IT.SE.ELEMENT" Name="ELEMENT" DataType="text" Length="31" SASFieldName="ELEMENT">
        <Description>
          <TranslatedText xml:lang="en">Description of Element</TranslatedText>
        </Description>
        <def:Origin Type="OTHER"/>
      </ItemDef>
      <ItemDef OID="IT.SE.SESTDTC" Name="SESTDTC" DataType="datetime" SASFieldName="SESTDTC">
        <Description>
          <TranslatedText xml:lang="en">Start Date/Time of Element</TranslatedText>
        </Description>
        <def:Origin Type="COLLECTED"/>
      </ItemDef>
      <ItemDef OID="IT.SE.SEENDTC" Name="SEENDTC" DataType="datetime" SASFieldName="SEENDTC">
        <Description>
          <TranslatedText xml:lang="en">End Date/Time of Element</TranslatedText>
        </Description>
        <def:Origin Type="OTHER"/>
      </ItemDef>
      <ItemDef OID="IT.EX.STUDYID" Name="STUDYID" DataType="text" Length="8" SASFieldName="STUDYID">
        <Description>
          <TranslatedText xml:lang="en">Study Identifier</TranslatedText>
        </Description>
        <def:Origin Type="OTHER"/>
      </ItemDef>
      <ItemDef OID="IT.EX.DOMAIN" Name="DOMAIN" DataType="text" Length="2" SASFieldName="DOMAIN">
        <Description>
          <TranslatedText xml:lang="en">Domain Abbreviation</TranslatedText>
        </Description>
        <def:Origin Type="OTHER"/>
      </ItemDef>
      <ItemDef OID="IT.EX.USUBJID" Name="USUBJID" DataType="text" Length="13" SASFieldName="USUBJID">
        <Description>
          <TranslatedText xml:lang="en">Unique Subject Identifier</TranslatedText>
        </Description>
        <def:Origin Type="OTHER"/>
      </ItemDef>
      <ItemDef OID="IT.EX.FOCID" Name="FOCID" DataType="text" Length="6" SASFieldName="FOCID">
        <Description>
          <TranslatedText xml:lang="en">Focus of Study-Specific Interest</TranslatedText>
        </Description>
        <def:Origin Type="OTHER"/>
      </ItemDef>
      <ItemDef OID="IT.EX.EXSEQ" Name="EXSEQ" DataType="integer" Length="8" SASFieldName="EXSEQ">
        <Description>
          <TranslatedText xml:lang="en">Sequence Number</TranslatedText>
        </Description>
        <def:Origin Type="OTHER"/>
      </ItemDef>
      <ItemDef OID="IT.EX.EXTRT" Name="EXTRT" DataType="text" Length="4" SASFieldName="EXTRT">
        <Description>
          <TranslatedText xml:lang="en">Name of Actual Treatment</TranslatedText>
        </Description>
        <CodeListRef CodeListOID="CL.EXTRT"/>
        <def:Origin Type="OTHER"/>
      </ItemDef>
      <ItemDef OID="IT.EX.EXDOSE" Name="EXDOSE" DataType="integer" Length="8" SASFieldName="EXDOSE">
        <Description>
          <TranslatedText xml:lang="en">Dose per Administration</TranslatedText>
        </Description>
        <def:Origin Type="COLLECTED"/>
      </ItemDef>
      <ItemDef OID="IT.EX.EXDOSTXT" Name="EXDOSTXT" DataType="text" Length="7" SASFieldName="EXDOSTXT">
        <Description>
          <TranslatedText xml:lang="en">Dose Description</TranslatedText>
        </Description>
        <def:Origin Type="OTHER"/>
      </ItemDef>
      <ItemDef OID="IT.EX.EXDOSU" Name="EXDOSU" DataType="text" Length="5" SASFieldName="EXDOSU">
        <Description>
          <TranslatedText xml:lang="en">Dose Units</TranslatedText>
        </Description>
        <CodeListRef CodeListOID="CL.UNIT"/>
        <def:Origin Type="COLLECTED"/>
      </ItemDef>
      <ItemDef OID="IT.EX.EXDOSFRM" Name="EXDOSFRM" DataType="text" Length="8" SASFieldName="EXDOSFRM">
        <Description>
          <TranslatedText xml:lang="en">Dose Form</TranslatedText>
        </Description>
        <CodeListRef CodeListOID="CL.FRM"/>
        <def:Origin Type="OTHER"/>
      </ItemDef>
      <ItemDef OID="IT.EX.EXDOSFRQ" Name="EXDOSFRQ" DataType="text" Length="13" SASFieldName="EXDOSFRQ">
        <Description>
          <TranslatedText xml:lang="en">Dosing Frequency Per Interval</TranslatedText>
        </Description>
        <CodeListRef CodeListOID="CL.FREQ"/>
        <def:Origin Type="OTHER"/>
      </ItemDef>
      <ItemDef OID="IT.EX.EXROUTE" Name="EXROUTE" DataType="text" Length="13" SASFieldName="EXROUTE">
        <Description>
          <TranslatedText xml:lang="en">Route of Administration</TranslatedText>
        </Description>
        <CodeListRef CodeListOID="CL.ROUTE"/>
        <def:Origin Type="OTHER"/>
      </ItemDef>
      <ItemDef OID="IT.EX.EXLOT" Name="EXLOT" DataType="text" Length="7" SASFieldName="EXLOT">
        <Description>
          <TranslatedText xml:lang="en">Lot Number</TranslatedText>
        </Description>
        <CodeListRef CodeListOID="CL.EXLOT"/>
        <def:Origin Type="COLLECTED"/>
      </ItemDef>
      <ItemDef OID="IT.EX.EXLOC" Name="EXLOC" DataType="text" Length="23" SASFieldName="EXLOC">
        <Description>
          <TranslatedText xml:lang="en">Location of Dose Administration</TranslatedText>
        </Description>
        <def:Origin Type="OTHER"/>
      </ItemDef>
      <ItemDef OID="IT.EX.EXMETHOD" Name="EXMETHOD" DataType="text" Length="9" SASFieldName="EXMETHOD">
        <Description>
          <TranslatedText xml:lang="en">Method of Administration</TranslatedText>
        </Description>
        <def:Origin Type="OTHER"/>
      </ItemDef>
      <ItemDef OID="IT.EX.EXTRTV" Name="EXTRTV" DataType="text" Length="6" SASFieldName="EXTRTV">
        <Description>
          <TranslatedText xml:lang="en">Treatment Vehicle</TranslatedText>
        </Description>
        <CodeListRef CodeListOID="CL.EXTRTV"/>
        <def:Origin Type="OTHER"/>
      </ItemDef>
      <ItemDef OID="IT.EX.EXVAMT" Name="EXVAMT" DataType="integer" Length="8" SASFieldName="EXVAMT">
        <Description>
          <TranslatedText xml:lang="en">Amount Administered</TranslatedText>
        </Description>
        <def:Origin Type="COLLECTED"/>
      </ItemDef>
      <ItemDef OID="IT.EX.EXVAMTU" Name="EXVAMTU" DataType="text" Length="2" SASFieldName="EXVAMTU">
        <Description>
          <TranslatedText xml:lang="en">Amount Administered Units</TranslatedText>
        </Description>
        <CodeListRef CodeListOID="CL.UNIT"/>
        <def:Origin Type="COLLECTED"/>
      </ItemDef>
      <ItemDef OID="IT.EX.EXSTDTC" Name="EXSTDTC" DataType="datetime" SASFieldName="EXSTDTC">
        <Description>
          <TranslatedText xml:lang="en">Start Date/Time of Treatment</TranslatedText>
        </Description>
        <def:Origin Type="COLLECTED"/>
      </ItemDef>
      <ItemDef OID="IT.EX.EXSTDY" Name="EXSTDY" DataType="integer" Length="8" SASFieldName="EXSTDY">
        <Description>
          <TranslatedText xml:lang="en">Study Day of Start of Treatment</TranslatedText>
        </Description>
        <def:Origin Type="DERIVED"/>
      </ItemDef>
      <ItemDef OID="IT.DS.STUDYID" Name="STUDYID" DataType="text" Length="8" SASFieldName="STUDYID">
        <Description>
          <TranslatedText xml:lang="en">Study Identifier</TranslatedText>
        </Description>
        <def:Origin Type="OTHER"/>
      </ItemDef>
      <ItemDef OID="IT.DS.DOMAIN" Name="DOMAIN" DataType="text" Length="2" SASFieldName="DOMAIN">
        <Description>
          <TranslatedText xml:lang="en">Domain Abbreviation</TranslatedText>
        </Description>
        <def:Origin Type="OTHER"/>
      </ItemDef>
      <ItemDef OID="IT.DS.USUBJID" Name="USUBJID" DataType="text" Length="13" SASFieldName="USUBJID">
        <Description>
          <TranslatedText xml:lang="en">Unique Subject Identifier</TranslatedText>
        </Description>
        <def:Origin Type="OTHER"/>
      </ItemDef>
      <ItemDef OID="IT.DS.DSSEQ" Name="DSSEQ" DataType="integer" Length="8" SASFieldName="DSSEQ">
        <Description>
          <TranslatedText xml:lang="en">Sequence Number</TranslatedText>
        </Description>
        <def:Origin Type="OTHER"/>
      </ItemDef>
      <ItemDef OID="IT.DS.DSTERM" Name="DSTERM" DataType="text" Length="19" SASFieldName="DSTERM">
        <Description>
          <TranslatedText xml:lang="en">Reported Term for the Disposition Event</TranslatedText>
        </Description>
        <CodeListRef CodeListOID="CL.DSTERM"/>
        <def:Origin Type="COLLECTED"/>
      </ItemDef>
      <ItemDef OID="IT.DS.DSDECOD" Name="DSDECOD" DataType="text" Length="18" SASFieldName="DSDECOD">
        <Description>
          <TranslatedText xml:lang="en">Standardized Disposition Term</TranslatedText>
        </Description>
        <CodeListRef CodeListOID="CL.DSDECOD"/>
        <def:Origin Type="OTHER"/>
      </ItemDef>
      <ItemDef OID="IT.DS.DSUSCHFL" Name="DSUSCHFL" DataType="text" Length="1" SASFieldName="DSUSCHFL" def:CommentOID="COM.NODATA">
        <Description>
          <TranslatedText xml:lang="en">Unscheduled Flag</TranslatedText>
        </Description>
        <def:Origin Type="OTHER"/>
      </ItemDef>
      <ItemDef OID="IT.DS.DSSTDTC" Name="DSSTDTC" DataType="datetime" SASFieldName="DSSTDTC">
        <Description>
          <TranslatedText xml:lang="en">Date/Time of Disposition</TranslatedText>
        </Description>
        <def:Origin Type="COLLECTED"/>
      </ItemDef>
      <ItemDef OID="IT.DS.DSSTDY" Name="DSSTDY" DataType="integer" Length="8" SASFieldName="DSSTDY">
        <Description>
          <TranslatedText xml:lang="en">Study Day of Disposition</TranslatedText>
        </Description>
        <def:Origin Type="DERIVED"/>
      </ItemDef>
      <ItemDef OID="IT.DS.DSNOMDY" Name="DSNOMDY" DataType="integer" Length="8" SASFieldName="DSNOMDY">
        <Description>
          <TranslatedText xml:lang="en">Nominal Study Day for Tabulations</TranslatedText>
        </Description>
        <def:Origin Type="OTHER"/>
      </ItemDef>
      <ItemDef OID="IT.DS.DSNOMLBL" Name="DSNOMLBL" DataType="text" Length="6" SASFieldName="DSNOMLBL">
        <Description>
          <TranslatedText xml:lang="en">Label for Nominal Study Day</TranslatedText>
        </Description>
        <def:Origin Type="OTHER"/>
      </ItemDef>
      <ItemDef OID="IT.BW.STUDYID" Name="STUDYID" DataType="text" Length="8" SASFieldName="STUDYID">
        <Description>
          <TranslatedText xml:lang="en">Study Identifier</TranslatedText>
        </Description>
        <def:Origin Type="OTHER"/>
      </ItemDef>
      <ItemDef OID="IT.BW.DOMAIN" Name="DOMAIN" DataType="text" Length="2" SASFieldName="DOMAIN">
        <Description>
          <TranslatedText xml:lang="en">Domain Abbreviation</TranslatedText>
        </Description>
        <def:Origin Type="OTHER"/>
      </ItemDef>
      <ItemDef OID="IT.BW.USUBJID" Name="USUBJID" DataType="text" Length="13" SASFieldName="USUBJID">
        <Description>
          <TranslatedText xml:lang="en">Unique Subject Identifier</TranslatedText>
        </Description>
        <def:Origin Type="OTHER"/>
      </ItemDef>
      <ItemDef OID="IT.BW.BWSEQ" Name="BWSEQ" DataType="integer" Length="8" SASFieldName="BWSEQ">
        <Description>
          <TranslatedText xml:lang="en">Sequence Number</TranslatedText>
        </Description>
        <def:Origin Type="OTHER"/>
      </ItemDef>
      <ItemDef OID="IT.BW.BWTESTCD" Name="BWTESTCD" DataType="text" Length="6" SASFieldName="BWTESTCD">
        <Description>
          <TranslatedText xml:lang="en">Test Short Name</TranslatedText>
        </Description>
        <CodeListRef CodeListOID="CL.BWTESTCD"/>
        <def:Origin Type="OTHER"/>
      </ItemDef>
      <ItemDef OID="IT.BW.BWTEST" Name="BWTEST" DataType="text" Length="20" SASFieldName="BWTEST">
        <Description>
          <TranslatedText xml:lang="en">Test Name</TranslatedText>
        </Description>
        <CodeListRef CodeListOID="CL.BWTEST"/>
        <def:Origin Type="OTHER"/>
      </ItemDef>
      <ItemDef OID="IT.BW.BWORRES" Name="BWORRES" DataType="text" Length="6" SASFieldName="BWORRES">
        <Description>
          <TranslatedText xml:lang="en">Result or Findings as Collected</TranslatedText>
        </Description>
        <def:Origin Type="COLLECTED"/>
        <def:ValueListRef ValueListOID="VL.BW.BWORRES"/>
      </ItemDef>
      <ItemDef OID="IT.BW.BWORRESU" Name="BWORRESU" DataType="text" Length="2" SASFieldName="BWORRESU">
        <Description>
          <TranslatedText xml:lang="en">Unit of the Original Result</TranslatedText>
        </Description>
        <CodeListRef CodeListOID="CL.BW.UNIT"/>
        <def:Origin Type="COLLECTED"/>
      </ItemDef>
      <ItemDef OID="IT.BW.BWSTRESC" Name="BWSTRESC" DataType="text" Length="6" SASFieldName="BWSTRESC">
        <Description>
          <TranslatedText xml:lang="en">Standardized Result in Character Format</TranslatedText>
        </Description>
        <def:Origin Type="DERIVED"/>
      </ItemDef>
      <ItemDef OID="IT.BW.BWSTRESN" Name="BWSTRESN" DataType="float" Length="8" SASFieldName="BWSTRESN" SignificantDigits="1" def:DisplayFormat="6.1">
        <Description>
          <TranslatedText xml:lang="en">Standardized Result in Numeric Format</TranslatedText>
        </Description>
        <def:Origin Type="DERIVED"/>
      </ItemDef>
      <ItemDef OID="IT.BW.BWSTRESU" Name="BWSTRESU" DataType="text" Length="2" SASFieldName="BWSTRESU">
        <Description>
          <TranslatedText xml:lang="en">Unit of the Standardized Result</TranslatedText>
        </Description>
        <CodeListRef CodeListOID="CL.BW.UNIT"/>
        <def:Origin Type="DERIVED"/>
      </ItemDef>
      <ItemDef OID="IT.BW.BWBLFL" Name="BWBLFL" DataType="text" Length="1" SASFieldName="BWBLFL">
        <Description>
          <TranslatedText xml:lang="en">Baseline Flag</TranslatedText>
        </Description>
        <CodeListRef CodeListOID="CL.BW.BWBLFL.NY"/>
        <def:Origin Type="DERIVED"/>
      </ItemDef>
      <ItemDef OID="IT.BW.BWDTC" Name="BWDTC" DataType="datetime" SASFieldName="BWDTC">
        <Description>
          <TranslatedText xml:lang="en">Date/Time Animal Weighed</TranslatedText>
        </Description>
        <def:Origin Type="COLLECTED"/>
      </ItemDef>
      <ItemDef OID="IT.BW.BWDY" Name="BWDY" DataType="integer" Length="8" SASFieldName="BWDY">
        <Description>
          <TranslatedText xml:lang="en">Study Day Animal Weighed</TranslatedText>
        </Description>
        <def:Origin Type="DERIVED"/>
      </ItemDef>
      <ItemDef OID="IT.BW.BWNOMDY" Name="BWNOMDY" DataType="integer" Length="8" SASFieldName="BWNOMDY">
        <Description>
          <TranslatedText xml:lang="en">Nominal Study Day for Tabulations</TranslatedText>
        </Description>
        <def:Origin Type="OTHER"/>
      </ItemDef>
      <ItemDef OID="IT.BW.BWNOMLBL" Name="BWNOMLBL" DataType="text" Length="6" SASFieldName="BWNOMLBL">
        <Description>
          <TranslatedText xml:lang="en">Label for Nominal Study Day</TranslatedText>
        </Description>
        <def:Origin Type="OTHER"/>
      </ItemDef>
      <ItemDef OID="IT.CL.STUDYID" Name="STUDYID" DataType="text" Length="8" SASFieldName="STUDYID">
        <Description>
          <TranslatedText xml:lang="en">Study Identifier</TranslatedText>
        </Description>
        <def:Origin Type="OTHER"/>
      </ItemDef>
      <ItemDef OID="IT.CL.DOMAIN" Name="DOMAIN" DataType="text" Length="2" SASFieldName="DOMAIN">
        <Description>
          <TranslatedText xml:lang="en">Domain Abbreviation</TranslatedText>
        </Description>
        <def:Origin Type="OTHER"/>
      </ItemDef>
      <ItemDef OID="IT.CL.USUBJID" Name="USUBJID" DataType="text" Length="13" SASFieldName="USUBJID">
        <Description>
          <TranslatedText xml:lang="en">Unique Subject Identifier</TranslatedText>
        </Description>
        <def:Origin Type="OTHER"/>
      </ItemDef>
      <ItemDef OID="IT.CL.CLSEQ" Name="CLSEQ" DataType="integer" Length="8" SASFieldName="CLSEQ">
        <Description>
          <TranslatedText xml:lang="en">Sequence Number</TranslatedText>
        </Description>
        <def:Origin Type="OTHER"/>
      </ItemDef>
      <ItemDef OID="IT.CL.CLTESTCD" Name="CLTESTCD" DataType="text" Length="2" SASFieldName="CLTESTCD">
        <Description>
          <TranslatedText xml:lang="en">Test Short Name</TranslatedText>
        </Description>
        <CodeListRef CodeListOID="CL.CLTESTCD"/>
        <def:Origin Type="OTHER"/>
      </ItemDef>
      <ItemDef OID="IT.CL.CLTEST" Name="CLTEST" DataType="text" Length="14" SASFieldName="CLTEST">
        <Description>
          <TranslatedText xml:lang="en">Test Name</TranslatedText>
        </Description>
        <CodeListRef CodeListOID="CL.CLTEST"/>
        <def:Origin Type="OTHER"/>
      </ItemDef>
      <ItemDef OID="IT.CL.CLCAT" Name="CLCAT" DataType="text" Length="14" SASFieldName="CLCAT">
        <Description>
          <TranslatedText xml:lang="en">Category for Clinical Observations</TranslatedText>
        </Description>
        <CodeListRef CodeListOID="CL.CLCAT"/>
        <def:Origin Type="OTHER"/>
      </ItemDef>
      <ItemDef OID="IT.CL.CLSCAT" Name="CLSCAT" DataType="text" Length="62" SASFieldName="CLSCAT">
        <Description>
          <TranslatedText xml:lang="en">Subcategory for Clinical Observations</TranslatedText>
        </Description>
        <CodeListRef CodeListOID="CL.CLSCAT"/>
        <def:Origin Type="OTHER"/>
      </ItemDef>
      <ItemDef OID="IT.CL.CLORRES" Name="CLORRES" DataType="text" Length="70" SASFieldName="CLORRES" def:CommentOID="COM.CMTCLORRES">
        <Description>
          <TranslatedText xml:lang="en">Result or Findings as Collected</TranslatedText>
        </Description>
        <def:Origin Type="COLLECTED"/>
      </ItemDef>
      <ItemDef OID="IT.CL.CLSTRESC" Name="CLSTRESC" DataType="text" Length="43" SASFieldName="CLSTRESC">
        <Description>
          <TranslatedText xml:lang="en">Standardized Result in Character Format</TranslatedText>
        </Description>
        <def:Origin Type="COLLECTED"/>
      </ItemDef>
      <ItemDef OID="IT.CL.CLLOC" Name="CLLOC" DataType="text" Length="21" SASFieldName="CLLOC">
        <Description>
          <TranslatedText xml:lang="en">Location of a Finding</TranslatedText>
        </Description>
        <def:Origin Type="COLLECTED"/>
      </ItemDef>
      <ItemDef OID="IT.CL.CLSEV" Name="CLSEV" DataType="text" Length="11" SASFieldName="CLSEV" def:CommentOID="COM.CMTCLSEV">
        <Description>
          <TranslatedText xml:lang="en">Severity</TranslatedText>
        </Description>
        <def:Origin Type="COLLECTED"/>
      </ItemDef>
      <ItemDef OID="IT.CL.CLDTC" Name="CLDTC" DataType="datetime" SASFieldName="CLDTC">
        <Description>
          <TranslatedText xml:lang="en">Date/Time of Observation</TranslatedText>
        </Description>
        <def:Origin Type="COLLECTED"/>
      </ItemDef>
      <ItemDef OID="IT.CL.CLDY" Name="CLDY" DataType="integer" Length="8" SASFieldName="CLDY">
        <Description>
          <TranslatedText xml:lang="en">Study Day of Observation</TranslatedText>
        </Description>
        <def:Origin Type="DERIVED"/>
      </ItemDef>
      <ItemDef OID="IT.CL.CLNOMDY" Name="CLNOMDY" DataType="integer" Length="8" SASFieldName="CLNOMDY">
        <Description>
          <TranslatedText xml:lang="en">Nominal Study Day for Tabulations</TranslatedText>
        </Description>
        <def:Origin Type="OTHER"/>
      </ItemDef>
      <ItemDef OID="IT.CL.CLNOMLBL" Name="CLNOMLBL" DataType="text" Length="14" SASFieldName="CLNOMLBL">
        <Description>
          <TranslatedText xml:lang="en">Label for Nominal Study Day</TranslatedText>
        </Description>
        <def:Origin Type="OTHER"/>
      </ItemDef>
      <ItemDef OID="IT.CL.CLTPT" Name="CLTPT" DataType="text" Length="7" SASFieldName="CLTPT">
        <Description>
          <TranslatedText xml:lang="en">Planned Time Point Name</TranslatedText>
        </Description>
        <def:Origin Type="COLLECTED"/>
      </ItemDef>
      <ItemDef OID="IT.CL.CLTPTNUM" Name="CLTPTNUM" DataType="integer" Length="8" SASFieldName="CLTPTNUM">
        <Description>
          <TranslatedText xml:lang="en">Planned Time Point Number</TranslatedText>
        </Description>
        <def:Origin Type="OTHER"/>
      </ItemDef>
      <ItemDef OID="IT.FW.STUDYID" Name="STUDYID" DataType="text" Length="8" SASFieldName="STUDYID">
        <Description>
          <TranslatedText xml:lang="en">Study Identifier</TranslatedText>
        </Description>
        <def:Origin Type="OTHER"/>
      </ItemDef>
      <ItemDef OID="IT.FW.DOMAIN" Name="DOMAIN" DataType="text" Length="2" SASFieldName="DOMAIN">
        <Description>
          <TranslatedText xml:lang="en">Domain Abbreviation</TranslatedText>
        </Description>
        <def:Origin Type="OTHER"/>
      </ItemDef>
      <ItemDef OID="IT.FW.USUBJID" Name="USUBJID" DataType="text" Length="13" SASFieldName="USUBJID">
        <Description>
          <TranslatedText xml:lang="en">Unique Subject Identifier</TranslatedText>
        </Description>
        <def:Origin Type="OTHER"/>
      </ItemDef>
      <ItemDef OID="IT.FW.FWSEQ" Name="FWSEQ" DataType="integer" Length="8" SASFieldName="FWSEQ">
        <Description>
          <TranslatedText xml:lang="en">Sequence Number</TranslatedText>
        </Description>
        <def:Origin Type="OTHER"/>
      </ItemDef>
      <ItemDef OID="IT.FW.FWTESTCD" Name="FWTESTCD" DataType="text" Length="2" SASFieldName="FWTESTCD">
        <Description>
          <TranslatedText xml:lang="en">Food/Water Consumption Short Name</TranslatedText>
        </Description>
        <CodeListRef CodeListOID="CL.FWTESTCD"/>
        <def:Origin Type="OTHER"/>
      </ItemDef>
      <ItemDef OID="IT.FW.FWTEST" Name="FWTEST" DataType="text" Length="16" SASFieldName="FWTEST">
        <Description>
          <TranslatedText xml:lang="en">Food/Water Consumption Name</TranslatedText>
        </Description>
        <CodeListRef CodeListOID="CL.FWTEST"/>
        <def:Origin Type="OTHER"/>
      </ItemDef>
      <ItemDef OID="IT.FW.FWORRES" Name="FWORRES" DataType="text" Length="4" SASFieldName="FWORRES">
        <Description>
          <TranslatedText xml:lang="en">Result or Findings as Collected</TranslatedText>
        </Description>
        <def:Origin Type="COLLECTED"/>
        <def:ValueListRef ValueListOID="VL.FW.FWORRES"/>
      </ItemDef>
      <ItemDef OID="IT.FW.FWORRESU" Name="FWORRESU" DataType="text" Length="1" SASFieldName="FWORRESU">
        <Description>
          <TranslatedText xml:lang="en">Unit of the Original Result</TranslatedText>
        </Description>
        <CodeListRef CodeListOID="CL.FW.UNIT"/>
        <def:Origin Type="COLLECTED"/>
      </ItemDef>
      <ItemDef OID="IT.FW.FWSTRESC" Name="FWSTRESC" DataType="text" Length="5" SASFieldName="FWSTRESC">
        <Description>
          <TranslatedText xml:lang="en">Standardized Result in Character Format</TranslatedText>
        </Description>
        <def:Origin Type="DERIVED"/>
      </ItemDef>
      <ItemDef OID="IT.FW.FWSTRESN" Name="FWSTRESN" DataType="float" Length="8" SASFieldName="FWSTRESN" SignificantDigits="1" def:DisplayFormat="5.1">
        <Description>
          <TranslatedText xml:lang="en">Standardized Result in Numeric Format</TranslatedText>
        </Description>
        <def:Origin Type="DERIVED"/>
      </ItemDef>
      <ItemDef OID="IT.FW.FWSTRESU" Name="FWSTRESU" DataType="text" Length="12" SASFieldName="FWSTRESU">
        <Description>
          <TranslatedText xml:lang="en">Unit of the Standardized Result</TranslatedText>
        </Description>
        <CodeListRef CodeListOID="CL.FW.UNIT"/>
        <def:Origin Type="DERIVED"/>
      </ItemDef>
      <ItemDef OID="IT.FW.FWDTC" Name="FWDTC" DataType="datetime" SASFieldName="FWDTC">
        <Description>
          <TranslatedText xml:lang="en">Start Date/Time of Observation</TranslatedText>
        </Description>
        <def:Origin Type="COLLECTED"/>
      </ItemDef>
      <ItemDef OID="IT.FW.FWENDTC" Name="FWENDTC" DataType="datetime" SASFieldName="FWENDTC">
        <Description>
          <TranslatedText xml:lang="en">End Date/Time of Observation</TranslatedText>
        </Description>
        <def:Origin Type="OTHER"/>
      </ItemDef>
      <ItemDef OID="IT.FW.FWDY" Name="FWDY" DataType="integer" Length="8" SASFieldName="FWDY">
        <Description>
          <TranslatedText xml:lang="en">Study Day of Start of Observation</TranslatedText>
        </Description>
        <def:Origin Type="DERIVED"/>
      </ItemDef>
      <ItemDef OID="IT.FW.FWENDY" Name="FWENDY" DataType="integer" Length="8" SASFieldName="FWENDY">
        <Description>
          <TranslatedText xml:lang="en">Study Day of End of Observation</TranslatedText>
        </Description>
        <def:Origin Type="OTHER"/>
      </ItemDef>
      <ItemDef OID="IT.LB.STUDYID" Name="STUDYID" DataType="text" Length="8" SASFieldName="STUDYID">
        <Description>
          <TranslatedText xml:lang="en">Study Identifier</TranslatedText>
        </Description>
        <def:Origin Type="OTHER"/>
      </ItemDef>
      <ItemDef OID="IT.LB.DOMAIN" Name="DOMAIN" DataType="text" Length="2" SASFieldName="DOMAIN">
        <Description>
          <TranslatedText xml:lang="en">Domain Abbreviation</TranslatedText>
        </Description>
        <def:Origin Type="OTHER"/>
      </ItemDef>
      <ItemDef OID="IT.LB.USUBJID" Name="USUBJID" DataType="text" Length="13" SASFieldName="USUBJID">
        <Description>
          <TranslatedText xml:lang="en">Unique Subject Identifier</TranslatedText>
        </Description>
        <def:Origin Type="OTHER"/>
      </ItemDef>
      <ItemDef OID="IT.LB.LBSEQ" Name="LBSEQ" DataType="integer" Length="8" SASFieldName="LBSEQ">
        <Description>
          <TranslatedText xml:lang="en">Sequence Number</TranslatedText>
        </Description>
        <def:Origin Type="OTHER"/>
      </ItemDef>
      <ItemDef OID="IT.LB.LBTESTCD" Name="LBTESTCD" DataType="text" Length="8" SASFieldName="LBTESTCD">
        <Description>
          <TranslatedText xml:lang="en">Lab Test or Examination Short Name</TranslatedText>
        </Description>
        <CodeListRef CodeListOID="CL.LBTESTCD"/>
        <def:Origin Type="OTHER"/>
      </ItemDef>
      <ItemDef OID="IT.LB.LBTEST" Name="LBTEST" DataType="text" Length="39" SASFieldName="LBTEST">
        <Description>
          <TranslatedText xml:lang="en">Lab Test or Examination Name</TranslatedText>
        </Description>
        <CodeListRef CodeListOID="CL.LBTEST"/>
        <def:Origin Type="OTHER"/>
      </ItemDef>
      <ItemDef OID="IT.LB.LBCAT" Name="LBCAT" DataType="text" Length="18" SASFieldName="LBCAT">
        <Description>
          <TranslatedText xml:lang="en">Category for Lab Test</TranslatedText>
        </Description>
        <CodeListRef CodeListOID="CL.LBCAT"/>
        <def:Origin Type="OTHER"/>
      </ItemDef>
      <ItemDef OID="IT.LB.LBSCAT" Name="LBSCAT" DataType="text" Length="10" SASFieldName="LBSCAT">
        <Description>
          <TranslatedText xml:lang="en">Subcategory for Lab Test</TranslatedText>
        </Description>
        <CodeListRef CodeListOID="CL.LBSCAT"/>
        <def:Origin Type="OTHER"/>
      </ItemDef>
      <ItemDef OID="IT.LB.LBORRES" Name="LBORRES" DataType="text" Length="6" SASFieldName="LBORRES">
        <Description>
          <TranslatedText xml:lang="en">Result or Findings as Collected</TranslatedText>
        </Description>
        <def:Origin Type="COLLECTED"/>
        <def:ValueListRef ValueListOID="VL.LB.LBORRES"/>
      </ItemDef>
      <ItemDef OID="IT.LB.LBORRESU" Name="LBORRESU" DataType="text" Length="8" SASFieldName="LBORRESU">
        <Description>
          <TranslatedText xml:lang="en">Unit of the Original Result</TranslatedText>
        </Description>
        <CodeListRef CodeListOID="CL.LB.UNIT"/>
        <def:Origin Type="COLLECTED"/>
      </ItemDef>
      <ItemDef OID="IT.LB.LBSTRESC" Name="LBSTRESC" DataType="text" Length="20" SASFieldName="LBSTRESC">
        <Description>
          <TranslatedText xml:lang="en">Standardized Result in Character Format</TranslatedText>
        </Description>
        <def:Origin Type="DERIVED"/>
      </ItemDef>
      <ItemDef OID="IT.LB.LBSTRESN" Name="LBSTRESN" DataType="float" Length="8" SASFieldName="LBSTRESN" SignificantDigits="3" def:DisplayFormat="8.3">
        <Description>
          <TranslatedText xml:lang="en">Standardized Result in Numeric Format</TranslatedText>
        </Description>
        <def:Origin Type="DERIVED"/>
      </ItemDef>
      <ItemDef OID="IT.LB.LBSTRESU" Name="LBSTRESU" DataType="text" Length="8" SASFieldName="LBSTRESU">
        <Description>
          <TranslatedText xml:lang="en">Unit of the Standardized Result</TranslatedText>
        </Description>
        <CodeListRef CodeListOID="CL.LB.UNIT"/>
        <def:Origin Type="DERIVED"/>
      </ItemDef>
      <ItemDef OID="IT.LB.LBSTAT" Name="LBSTAT" DataType="text" Length="8" SASFieldName="LBSTAT">
        <Description>
          <TranslatedText xml:lang="en">Completion Status</TranslatedText>
        </Description>
        <CodeListRef CodeListOID="CL.ND"/>
        <def:Origin Type="COLLECTED"/>
      </ItemDef>
      <ItemDef OID="IT.LB.LBREASND" Name="LBREASND" DataType="text" Length="48" SASFieldName="LBREASND">
        <Description>
          <TranslatedText xml:lang="en">Reason Not Done</TranslatedText>
        </Description>
        <def:Origin Type="COLLECTED"/>
      </ItemDef>
      <ItemDef OID="IT.LB.LBSPEC" Name="LBSPEC" DataType="text" Length="11" SASFieldName="LBSPEC" def:CommentOID="COM.CMTLBSPEC">
        <Description>
          <TranslatedText xml:lang="en">Specimen Material Type</TranslatedText>
        </Description>
        <CodeListRef CodeListOID="CL.LB.SPEC"/>
        <def:Origin Type="OTHER"/>
      </ItemDef>
      <ItemDef OID="IT.LB.LBMETHOD" Name="LBMETHOD" DataType="text" Length="29" SASFieldName="LBMETHOD">
        <Description>
          <TranslatedText xml:lang="en">Method of Test or Examination</TranslatedText>
        </Description>
        <def:Origin Type="OTHER"/>
      </ItemDef>
      <ItemDef OID="IT.LB.LBBLFL" Name="LBBLFL" DataType="text" Length="1" SASFieldName="LBBLFL">
        <Description>
          <TranslatedText xml:lang="en">Baseline Flag</TranslatedText>
        </Description>
        <CodeListRef CodeListOID="CL.LB.LBBLFL.NY"/>
        <def:Origin Type="DERIVED"/>
      </ItemDef>
      <ItemDef OID="IT.LB.LBEXCLFL" Name="LBEXCLFL" DataType="text" Length="1" SASFieldName="LBEXCLFL">
        <Description>
          <TranslatedText xml:lang="en">Exclusion Flag</TranslatedText>
        </Description>
        <CodeListRef CodeListOID="CL.LB.LBEXCLFL.NY"/>
        <def:Origin Type="COLLECTED"/>
      </ItemDef>
      <ItemDef OID="IT.LB.LBREASEX" Name="LBREASEX" DataType="text" Length="38" SASFieldName="LBREASEX">
        <Description>
          <TranslatedText xml:lang="en">Reason for Exclusion</TranslatedText>
        </Description>
        <def:Origin Type="COLLECTED"/>
      </ItemDef>
      <ItemDef OID="IT.LB.LBUSCHFL" Name="LBUSCHFL" DataType="text" Length="1" SASFieldName="LBUSCHFL" def:CommentOID="COM.NODATA">
        <Description>
          <TranslatedText xml:lang="en">Unscheduled Flag</TranslatedText>
        </Description>
        <def:Origin Type="OTHER"/>
      </ItemDef>
      <ItemDef OID="IT.LB.LBDTC" Name="LBDTC" DataType="datetime" SASFieldName="LBDTC" def:CommentOID="COM.CMTLBDTC">
        <Description>
          <TranslatedText xml:lang="en">Date/Time of Specimen Collection</TranslatedText>
        </Description>
        <def:Origin Type="COLLECTED"/>
      </ItemDef>
      <ItemDef OID="IT.LB.LBDY" Name="LBDY" DataType="integer" Length="8" SASFieldName="LBDY">
        <Description>
          <TranslatedText xml:lang="en">Study Day of Specimen Collection</TranslatedText>
        </Description>
        <def:Origin Type="DERIVED"/>
      </ItemDef>
      <ItemDef OID="IT.LB.LBNOMDY" Name="LBNOMDY" DataType="integer" Length="8" SASFieldName="LBNOMDY">
        <Description>
          <TranslatedText xml:lang="en">Nominal Study Day for Tabulations</TranslatedText>
        </Description>
        <def:Origin Type="OTHER"/>
      </ItemDef>
      <ItemDef OID="IT.LB.LBNOMLBL" Name="LBNOMLBL" DataType="text" Length="26" SASFieldName="LBNOMLBL">
        <Description>
          <TranslatedText xml:lang="en">Label for Nominal Study Day</TranslatedText>
        </Description>
        <def:Origin Type="OTHER"/>
      </ItemDef>
      <ItemDef OID="IT.MA.STUDYID" Name="STUDYID" DataType="text" Length="8" SASFieldName="STUDYID">
        <Description>
          <TranslatedText xml:lang="en">Study Identifier</TranslatedText>
        </Description>
        <def:Origin Type="OTHER"/>
      </ItemDef>
      <ItemDef OID="IT.MA.DOMAIN" Name="DOMAIN" DataType="text" Length="2" SASFieldName="DOMAIN">
        <Description>
          <TranslatedText xml:lang="en">Domain Abbreviation</TranslatedText>
        </Description>
        <def:Origin Type="OTHER"/>
      </ItemDef>
      <ItemDef OID="IT.MA.USUBJID" Name="USUBJID" DataType="text" Length="13" SASFieldName="USUBJID">
        <Description>
          <TranslatedText xml:lang="en">Unique Subject Identifier</TranslatedText>
        </Description>
        <def:Origin Type="OTHER"/>
      </ItemDef>
      <ItemDef OID="IT.MA.FOCID" Name="FOCID" DataType="text" Length="6" SASFieldName="FOCID">
        <Description>
          <TranslatedText xml:lang="en">Focus of Study-Specific Interest</TranslatedText>
        </Description>
        <def:Origin Type="OTHER"/>
      </ItemDef>
      <ItemDef OID="IT.MA.MASEQ" Name="MASEQ" DataType="integer" Length="8" SASFieldName="MASEQ">
        <Description>
          <TranslatedText xml:lang="en">Sequence Number</TranslatedText>
        </Description>
        <def:Origin Type="OTHER"/>
      </ItemDef>
      <ItemDef OID="IT.MA.MATESTCD" Name="MATESTCD" DataType="text" Length="8" SASFieldName="MATESTCD">
        <Description>
          <TranslatedText xml:lang="en">Macroscopic Examination Short Name</TranslatedText>
        </Description>
        <CodeListRef CodeListOID="CL.MATESTCD"/>
        <def:Origin Type="OTHER"/>
      </ItemDef>
      <ItemDef OID="IT.MA.MATEST" Name="MATEST" DataType="text" Length="30" SASFieldName="MATEST">
        <Description>
          <TranslatedText xml:lang="en">Macroscopic Examination Name</TranslatedText>
        </Description>
        <CodeListRef CodeListOID="CL.MATEST"/>
        <def:Origin Type="OTHER"/>
      </ItemDef>
      <ItemDef OID="IT.MA.MAORRES" Name="MAORRES" DataType="text" Length="83" SASFieldName="MAORRES" def:CommentOID="COM.CMTMAORRES">
        <Description>
          <TranslatedText xml:lang="en">Result or Findings as Collected</TranslatedText>
        </Description>
        <def:Origin Type="COLLECTED"/>
      </ItemDef>
      <ItemDef OID="IT.MA.MASTRESC" Name="MASTRESC" DataType="text" Length="20" SASFieldName="MASTRESC">
        <Description>
          <TranslatedText xml:lang="en">Standardized Result in Character Format</TranslatedText>
        </Description>
        <def:Origin Type="COLLECTED"/>
      </ItemDef>
      <ItemDef OID="IT.MA.MASPEC" Name="MASPEC" DataType="text" Length="34" SASFieldName="MASPEC" def:CommentOID="COM.CMTSPECANT">
        <Description>
          <TranslatedText xml:lang="en">Specimen Material Type</TranslatedText>
        </Description>
        <CodeListRef CodeListOID="CL.MA.SPEC"/>
        <def:Origin Type="OTHER"/>
      </ItemDef>
      <ItemDef OID="IT.MA.MADTC" Name="MADTC" DataType="datetime" SASFieldName="MADTC">
        <Description>
          <TranslatedText xml:lang="en">Date/Time</TranslatedText>
        </Description>
        <def:Origin Type="COLLECTED"/>
      </ItemDef>
      <ItemDef OID="IT.MA.MADY" Name="MADY" DataType="integer" Length="8" SASFieldName="MADY">
        <Description>
          <TranslatedText xml:lang="en">Study Day</TranslatedText>
        </Description>
        <def:Origin Type="DERIVED"/>
      </ItemDef>
      <ItemDef OID="IT.MI.STUDYID" Name="STUDYID" DataType="text" Length="8" SASFieldName="STUDYID">
        <Description>
          <TranslatedText xml:lang="en">Study Identifier</TranslatedText>
        </Description>
        <def:Origin Type="OTHER"/>
      </ItemDef>
      <ItemDef OID="IT.MI.DOMAIN" Name="DOMAIN" DataType="text" Length="2" SASFieldName="DOMAIN">
        <Description>
          <TranslatedText xml:lang="en">Domain Abbreviation</TranslatedText>
        </Description>
        <def:Origin Type="OTHER"/>
      </ItemDef>
      <ItemDef OID="IT.MI.USUBJID" Name="USUBJID" DataType="text" Length="13" SASFieldName="USUBJID">
        <Description>
          <TranslatedText xml:lang="en">Unique Subject Identifier</TranslatedText>
        </Description>
        <def:Origin Type="OTHER"/>
      </ItemDef>
      <ItemDef OID="IT.MI.FOCID" Name="FOCID" DataType="text" Length="6" SASFieldName="FOCID">
        <Description>
          <TranslatedText xml:lang="en">Focus of Study-Specific Interest</TranslatedText>
        </Description>
        <def:Origin Type="OTHER"/>
      </ItemDef>
      <ItemDef OID="IT.MI.MISEQ" Name="MISEQ" DataType="integer" Length="8" SASFieldName="MISEQ">
        <Description>
          <TranslatedText xml:lang="en">Sequence Number</TranslatedText>
        </Description>
        <def:Origin Type="OTHER"/>
      </ItemDef>
      <ItemDef OID="IT.MI.MITESTCD" Name="MITESTCD" DataType="text" Length="8" SASFieldName="MITESTCD">
        <Description>
          <TranslatedText xml:lang="en">Microscopic Examination Short Name</TranslatedText>
        </Description>
        <CodeListRef CodeListOID="CL.MITESTCD"/>
        <def:Origin Type="OTHER"/>
      </ItemDef>
      <ItemDef OID="IT.MI.MITEST" Name="MITEST" DataType="text" Length="34" SASFieldName="MITEST">
        <Description>
          <TranslatedText xml:lang="en">Microscopic Examination Name</TranslatedText>
        </Description>
        <CodeListRef CodeListOID="CL.MITEST"/>
        <def:Origin Type="OTHER"/>
      </ItemDef>
      <ItemDef OID="IT.MI.MIORRES" Name="MIORRES" DataType="text" Length="112" SASFieldName="MIORRES" def:CommentOID="COM.CMTMIORRES">
        <Description>
          <TranslatedText xml:lang="en">Result or Findings as Collected</TranslatedText>
        </Description>
        <def:Origin Type="COLLECTED"/>
      </ItemDef>
      <ItemDef OID="IT.MI.MISTRESC" Name="MISTRESC" DataType="text" Length="30" SASFieldName="MISTRESC">
        <Description>
          <TranslatedText xml:lang="en">Standardized Result in Character Format</TranslatedText>
        </Description>
        <def:Origin Type="COLLECTED"/>
      </ItemDef>
      <ItemDef OID="IT.MI.MIRESCAT" Name="MIRESCAT" DataType="text" Length="14" SASFieldName="MIRESCAT">
        <Description>
          <TranslatedText xml:lang="en">Result Category</TranslatedText>
        </Description>
        <CodeListRef CodeListOID="CL.MIRESCAT"/>
        <def:Origin Type="COLLECTED"/>
      </ItemDef>
      <ItemDef OID="IT.MI.MICHRON" Name="MICHRON" DataType="text" Length="1" SASFieldName="MICHRON" def:CommentOID="COM.NODATA">
        <Description>
          <TranslatedText xml:lang="en">Chronicity of Finding</TranslatedText>
        </Description>
        <def:Origin Type="OTHER"/>
      </ItemDef>
      <ItemDef OID="IT.MI.MIDISTR" Name="MIDISTR" DataType="text" Length="10" SASFieldName="MIDISTR">
        <Description>
          <TranslatedText xml:lang="en">Distribution Pattern of Finding</TranslatedText>
        </Description>
        <def:Origin Type="OTHER"/>
      </ItemDef>
      <ItemDef OID="IT.MI.MISTAT" Name="MISTAT" DataType="text" Length="8" SASFieldName="MISTAT">
        <Description>
          <TranslatedText xml:lang="en">Completion Status</TranslatedText>
        </Description>
        <CodeListRef CodeListOID="CL.ND"/>
        <def:Origin Type="COLLECTED"/>
      </ItemDef>
      <ItemDef OID="IT.MI.MIREASND" Name="MIREASND" DataType="text" Length="45" SASFieldName="MIREASND">
        <Description>
          <TranslatedText xml:lang="en">Reason Not Done</TranslatedText>
        </Description>
        <def:Origin Type="COLLECTED"/>
      </ItemDef>
      <ItemDef OID="IT.MI.MISPEC" Name="MISPEC" DataType="text" Length="34" SASFieldName="MISPEC" def:CommentOID="COM.CMTSPECANT">
        <Description>
          <TranslatedText xml:lang="en">Specimen Material Type</TranslatedText>
        </Description>
        <CodeListRef CodeListOID="CL.MI.SPEC"/>
        <def:Origin Type="OTHER"/>
      </ItemDef>
      <ItemDef OID="IT.MI.MISPCCND" Name="MISPCCND" DataType="text" Length="1" SASFieldName="MISPCCND" def:CommentOID="COM.NODATA.CMTNOTPOPNC">
        <Description>
          <TranslatedText xml:lang="en">Specimen Condition</TranslatedText>
        </Description>
        <def:Origin Type="OTHER"/>
      </ItemDef>
      <ItemDef OID="IT.MI.MISPCUFL" Name="MISPCUFL" DataType="text" Length="1" SASFieldName="MISPCUFL">
        <Description>
          <TranslatedText xml:lang="en">Specimen Usability for the Test</TranslatedText>
        </Description>
        <CodeListRef CodeListOID="CL.MI.MISPCUFL.NY"/>
        <def:Origin Type="COLLECTED"/>
      </ItemDef>
      <ItemDef OID="IT.MI.MISEV" Name="MISEV" DataType="text" Length="6" SASFieldName="MISEV" def:CommentOID="COM.CMTMISEV">
        <Description>
          <TranslatedText xml:lang="en">Severity</TranslatedText>
        </Description>
        <CodeListRef CodeListOID="CL.SEV"/>
        <def:Origin Type="COLLECTED"/>
      </ItemDef>
      <ItemDef OID="IT.MI.MIDTHREL" Name="MIDTHREL" DataType="text" Length="1" SASFieldName="MIDTHREL">
        <Description>
          <TranslatedText xml:lang="en">Relationship to Death</TranslatedText>
        </Description>
        <CodeListRef CodeListOID="CL.MI.MIDTHREL.NY"/>
        <def:Origin Type="COLLECTED"/>
      </ItemDef>
      <ItemDef OID="IT.MI.MIDTC" Name="MIDTC" DataType="datetime" SASFieldName="MIDTC">
        <Description>
          <TranslatedText xml:lang="en">Date/Time</TranslatedText>
        </Description>
        <def:Origin Type="COLLECTED"/>
      </ItemDef>
      <ItemDef OID="IT.MI.MIDY" Name="MIDY" DataType="integer" Length="8" SASFieldName="MIDY">
        <Description>
          <TranslatedText xml:lang="en">Study Day</TranslatedText>
        </Description>
        <def:Origin Type="DERIVED"/>
      </ItemDef>
      <ItemDef OID="IT.OM.STUDYID" Name="STUDYID" DataType="text" Length="8" SASFieldName="STUDYID">
        <Description>
          <TranslatedText xml:lang="en">Study Identifier</TranslatedText>
        </Description>
        <def:Origin Type="OTHER"/>
      </ItemDef>
      <ItemDef OID="IT.OM.DOMAIN" Name="DOMAIN" DataType="text" Length="2" SASFieldName="DOMAIN">
        <Description>
          <TranslatedText xml:lang="en">Domain Abbreviation</TranslatedText>
        </Description>
        <def:Origin Type="OTHER"/>
      </ItemDef>
      <ItemDef OID="IT.OM.USUBJID" Name="USUBJID" DataType="text" Length="13" SASFieldName="USUBJID">
        <Description>
          <TranslatedText xml:lang="en">Unique Subject Identifier</TranslatedText>
        </Description>
        <def:Origin Type="OTHER"/>
      </ItemDef>
      <ItemDef OID="IT.OM.OMSEQ" Name="OMSEQ" DataType="integer" Length="8" SASFieldName="OMSEQ">
        <Description>
          <TranslatedText xml:lang="en">Sequence Number</TranslatedText>
        </Description>
        <def:Origin Type="OTHER"/>
      </ItemDef>
      <ItemDef OID="IT.OM.OMTESTCD" Name="OMTESTCD" DataType="text" Length="6" SASFieldName="OMTESTCD">
        <Description>
          <TranslatedText xml:lang="en">Test Short Name</TranslatedText>
        </Description>
        <CodeListRef CodeListOID="CL.OMTESTCD"/>
        <def:Origin Type="OTHER"/>
      </ItemDef>
      <ItemDef OID="IT.OM.OMTEST" Name="OMTEST" DataType="text" Length="27" SASFieldName="OMTEST">
        <Description>
          <TranslatedText xml:lang="en">Test Name</TranslatedText>
        </Description>
        <CodeListRef CodeListOID="CL.OMTEST"/>
        <def:Origin Type="OTHER"/>
      </ItemDef>
      <ItemDef OID="IT.OM.OMORRES" Name="OMORRES" DataType="text" Length="10" SASFieldName="OMORRES">
        <Description>
          <TranslatedText xml:lang="en">Result or Findings as Collected</TranslatedText>
        </Description>
        <def:Origin Type=""/>
        <def:ValueListRef ValueListOID="VL.OM.OMORRES"/>
      </ItemDef>
      <ItemDef OID="IT.OM.OMORRESU" Name="OMORRESU" DataType="text" Length="1" SASFieldName="OMORRESU">
        <Description>
          <TranslatedText xml:lang="en">Unit of the Original Result</TranslatedText>
        </Description>
        <CodeListRef CodeListOID="CL.OM.UNIT"/>
        <def:Origin Type="OTHER"/>
      </ItemDef>
      <ItemDef OID="IT.OM.OMSTRESC" Name="OMSTRESC" DataType="text" Length="10" SASFieldName="OMSTRESC">
        <Description>
          <TranslatedText xml:lang="en">Standardized Result in Character Format</TranslatedText>
        </Description>
        <def:Origin Type="DERIVED"/>
      </ItemDef>
      <ItemDef OID="IT.OM.OMSTRESN" Name="OMSTRESN" DataType="float" Length="8" SASFieldName="OMSTRESN" SignificantDigits="5" def:DisplayFormat="10.5">
        <Description>
          <TranslatedText xml:lang="en">Standardized Result in Numeric Format</TranslatedText>
        </Description>
        <def:Origin Type="DERIVED"/>
      </ItemDef>
      <ItemDef OID="IT.OM.OMSTRESU" Name="OMSTRESU" DataType="text" Length="1" SASFieldName="OMSTRESU">
        <Description>
          <TranslatedText xml:lang="en">Unit of the Standardized Result</TranslatedText>
        </Description>
        <CodeListRef CodeListOID="CL.OM.UNIT"/>
        <def:Origin Type="DERIVED"/>
      </ItemDef>
      <ItemDef OID="IT.OM.OMSPEC" Name="OMSPEC" DataType="text" Length="16" SASFieldName="OMSPEC" def:CommentOID="COM.CMTSPECANT">
        <Description>
          <TranslatedText xml:lang="en">Specimen Material Type</TranslatedText>
        </Description>
        <CodeListRef CodeListOID="CL.OM.SPEC"/>
        <def:Origin Type="OTHER"/>
      </ItemDef>
      <ItemDef OID="IT.OM.OMEXCLFL" Name="OMEXCLFL" DataType="text" Length="1" SASFieldName="OMEXCLFL">
        <Description>
          <TranslatedText xml:lang="en">Exclusion Flag</TranslatedText>
        </Description>
        <CodeListRef CodeListOID="CL.OM.OMEXCLFL.NY"/>
        <def:Origin Type="COLLECTED"/>
      </ItemDef>
      <ItemDef OID="IT.OM.OMREASEX" Name="OMREASEX" DataType="text" Length="69" SASFieldName="OMREASEX">
        <Description>
          <TranslatedText xml:lang="en">Reason for Exclusion</TranslatedText>
        </Description>
        <def:Origin Type="COLLECTED"/>
      </ItemDef>
      <ItemDef OID="IT.OM.OMDTC" Name="OMDTC" DataType="datetime" SASFieldName="OMDTC">
        <Description>
          <TranslatedText xml:lang="en">Date/Time Organ Measured</TranslatedText>
        </Description>
        <def:Origin Type="COLLECTED"/>
      </ItemDef>
      <ItemDef OID="IT.OM.OMDY" Name="OMDY" DataType="integer" Length="8" SASFieldName="OMDY">
        <Description>
          <TranslatedText xml:lang="en">Study Day of Measurement</TranslatedText>
        </Description>
        <def:Origin Type="DERIVED"/>
      </ItemDef>
      <ItemDef OID="IT.OM.OMNOMDY" Name="OMNOMDY" DataType="integer" Length="8" SASFieldName="OMNOMDY">
        <Description>
          <TranslatedText xml:lang="en">Nominal Study Day for Tabulations</TranslatedText>
        </Description>
        <def:Origin Type="OTHER"/>
      </ItemDef>
      <ItemDef OID="IT.OM.OMNOMLBL" Name="OMNOMLBL" DataType="text" Length="6" SASFieldName="OMNOMLBL">
        <Description>
          <TranslatedText xml:lang="en">Label for Nominal Study Day</TranslatedText>
        </Description>
        <def:Origin Type="OTHER"/>
      </ItemDef>
      <ItemDef OID="IT.VS.STUDYID" Name="STUDYID" DataType="text" Length="8" SASFieldName="STUDYID">
        <Description>
          <TranslatedText xml:lang="en">Study Identifier</TranslatedText>
        </Description>
        <def:Origin Type="OTHER"/>
      </ItemDef>
      <ItemDef OID="IT.VS.DOMAIN" Name="DOMAIN" DataType="text" Length="2" SASFieldName="DOMAIN">
        <Description>
          <TranslatedText xml:lang="en">Domain Abbreviation</TranslatedText>
        </Description>
        <def:Origin Type="OTHER"/>
      </ItemDef>
      <ItemDef OID="IT.VS.USUBJID" Name="USUBJID" DataType="text" Length="13" SASFieldName="USUBJID">
        <Description>
          <TranslatedText xml:lang="en">Unique Subject Identifier</TranslatedText>
        </Description>
        <def:Origin Type="OTHER"/>
      </ItemDef>
      <ItemDef OID="IT.VS.VSSEQ" Name="VSSEQ" DataType="integer" Length="8" SASFieldName="VSSEQ">
        <Description>
          <TranslatedText xml:lang="en">Sequence Number</TranslatedText>
        </Description>
        <def:Origin Type="OTHER"/>
      </ItemDef>
      <ItemDef OID="IT.VS.VSTESTCD" Name="VSTESTCD" DataType="text" Length="4" SASFieldName="VSTESTCD">
        <Description>
          <TranslatedText xml:lang="en">Vital Signs Test Short Name</TranslatedText>
        </Description>
        <CodeListRef CodeListOID="CL.VSTESTCD"/>
        <def:Origin Type="OTHER"/>
      </ItemDef>
      <ItemDef OID="IT.VS.VSTEST" Name="VSTEST" DataType="text" Length="11" SASFieldName="VSTEST">
        <Description>
          <TranslatedText xml:lang="en">Vital Signs Test Name</TranslatedText>
        </Description>
        <CodeListRef CodeListOID="CL.VSTEST"/>
        <def:Origin Type="OTHER"/>
      </ItemDef>
      <ItemDef OID="IT.VS.VSORRES" Name="VSORRES" DataType="text" Length="4" SASFieldName="VSORRES">
        <Description>
          <TranslatedText xml:lang="en">Result or Findings as Collected</TranslatedText>
        </Description>
        <def:Origin Type="COLLECTED"/>
        <def:ValueListRef ValueListOID="VL.VS.VSORRES"/>
      </ItemDef>
      <ItemDef OID="IT.VS.VSORRESU" Name="VSORRESU" DataType="text" Length="1" SASFieldName="VSORRESU">
        <Description>
          <TranslatedText xml:lang="en">Unit of the Original Result</TranslatedText>
        </Description>
        <CodeListRef CodeListOID="CL.VS.UNIT"/>
        <def:Origin Type="COLLECTED"/>
      </ItemDef>
      <ItemDef OID="IT.VS.VSSTRESC" Name="VSSTRESC" DataType="text" Length="4" SASFieldName="VSSTRESC">
        <Description>
          <TranslatedText xml:lang="en">Standardized Result in Character Format</TranslatedText>
        </Description>
        <def:Origin Type="DERIVED"/>
      </ItemDef>
      <ItemDef OID="IT.VS.VSSTRESN" Name="VSSTRESN" DataType="float" Length="8" SASFieldName="VSSTRESN" SignificantDigits="1" def:DisplayFormat="4.1">
        <Description>
          <TranslatedText xml:lang="en">Standardized Result in Numeric Format</TranslatedText>
        </Description>
        <def:Origin Type="DERIVED"/>
      </ItemDef>
      <ItemDef OID="IT.VS.VSSTRESU" Name="VSSTRESU" DataType="text" Length="1" SASFieldName="VSSTRESU">
        <Description>
          <TranslatedText xml:lang="en">Unit of the Standardized Result</TranslatedText>
        </Description>
        <CodeListRef CodeListOID="CL.VS.UNIT"/>
        <def:Origin Type="DERIVED"/>
      </ItemDef>
      <ItemDef OID="IT.VS.VSBLFL" Name="VSBLFL" DataType="text" Length="1" SASFieldName="VSBLFL">
        <Description>
          <TranslatedText xml:lang="en">Baseline Flag</TranslatedText>
        </Description>
        <CodeListRef CodeListOID="CL.VS.VSBLFL.NY"/>
        <def:Origin Type="DERIVED"/>
      </ItemDef>
      <ItemDef OID="IT.VS.VSDTC" Name="VSDTC" DataType="datetime" SASFieldName="VSDTC">
        <Description>
          <TranslatedText xml:lang="en">Date/Time of Measurement</TranslatedText>
        </Description>
        <def:Origin Type="OTHER"/>
      </ItemDef>
      <ItemDef OID="IT.VS.VSDY" Name="VSDY" DataType="integer" Length="8" SASFieldName="VSDY">
        <Description>
          <TranslatedText xml:lang="en">Study Day of Vital Signs Measurement</TranslatedText>
        </Description>
        <def:Origin Type="OTHER"/>
      </ItemDef>
      <ItemDef OID="IT.VS.VSNOMDY" Name="VSNOMDY" DataType="integer" Length="8" SASFieldName="VSNOMDY">
        <Description>
          <TranslatedText xml:lang="en">Nominal Study Day for Tabulations</TranslatedText>
        </Description>
        <def:Origin Type="OTHER"/>
      </ItemDef>
      <ItemDef OID="IT.VS.VSNOMLBL" Name="VSNOMLBL" DataType="text" Length="9" SASFieldName="VSNOMLBL">
        <Description>
          <TranslatedText xml:lang="en">Label for Nominal Study Day</TranslatedText>
        </Description>
        <def:Origin Type="OTHER"/>
      </ItemDef>
      <ItemDef OID="IT.VS.VSTPT" Name="VSTPT" DataType="text" Length="7" SASFieldName="VSTPT">
        <Description>
          <TranslatedText xml:lang="en">Planned Time Point Name</TranslatedText>
        </Description>
        <def:Origin Type="COLLECTED"/>
      </ItemDef>
      <ItemDef OID="IT.VS.VSTPTNUM" Name="VSTPTNUM" DataType="integer" Length="8" SASFieldName="VSTPTNUM">
        <Description>
          <TranslatedText xml:lang="en">Planned Time Point Number</TranslatedText>
        </Description>
        <def:Origin Type="OTHER"/>
      </ItemDef>
      <ItemDef OID="IT.RELREC.STUDYID" Name="STUDYID" DataType="text" Length="8" SASFieldName="STUDYID">
        <Description>
          <TranslatedText xml:lang="en">Study Identifier</TranslatedText>
        </Description>
        <def:Origin Type="OTHER"/>
      </ItemDef>
      <ItemDef OID="IT.RELREC.RDOMAIN" Name="RDOMAIN" DataType="text" Length="2" SASFieldName="RDOMAIN">
        <Description>
          <TranslatedText xml:lang="en">Related Domain Abbreviation</TranslatedText>
        </Description>
        <def:Origin Type="OTHER"/>
      </ItemDef>
      <ItemDef OID="IT.RELREC.USUBJID" Name="USUBJID" DataType="text" Length="13" SASFieldName="USUBJID">
        <Description>
          <TranslatedText xml:lang="en">Unique Subject Identifier</TranslatedText>
        </Description>
        <def:Origin Type="OTHER"/>
      </ItemDef>
      <ItemDef OID="IT.RELREC.IDVAR" Name="IDVAR" DataType="text" Length="5" SASFieldName="IDVAR">
        <Description>
          <TranslatedText xml:lang="en">Identifying Variable</TranslatedText>
        </Description>
        <def:Origin Type="OTHER"/>
      </ItemDef>
      <ItemDef OID="IT.RELREC.IDVARVAL" Name="IDVARVAL" DataType="text" Length="4" SASFieldName="IDVARVAL">
        <Description>
          <TranslatedText xml:lang="en">Identifying Variable Value</TranslatedText>
        </Description>
        <def:Origin Type="OTHER"/>
      </ItemDef>
      <ItemDef OID="IT.RELREC.RELID" Name="RELID" DataType="text" Length="2" SASFieldName="RELID">
        <Description>
          <TranslatedText xml:lang="en">Relationship Identifier</TranslatedText>
        </Description>
        <def:Origin Type="OTHER"/>
      </ItemDef>
      <ItemDef OID="IT.SUPPMA.STUDYID" Name="STUDYID" DataType="text" Length="8" SASFieldName="STUDYID">
        <Description>
          <TranslatedText xml:lang="en">Study Identifier</TranslatedText>
        </Description>
        <def:Origin Type="OTHER"/>
      </ItemDef>
      <ItemDef OID="IT.SUPPMA.RDOMAIN" Name="RDOMAIN" DataType="text" Length="2" SASFieldName="RDOMAIN">
        <Description>
          <TranslatedText xml:lang="en">Related Domain Abbreviation</TranslatedText>
        </Description>
        <def:Origin Type="OTHER"/>
      </ItemDef>
      <ItemDef OID="IT.SUPPMA.USUBJID" Name="USUBJID" DataType="text" Length="13" SASFieldName="USUBJID">
        <Description>
          <TranslatedText xml:lang="en">Unique Subject Identifier</TranslatedText>
        </Description>
        <def:Origin Type="OTHER"/>
      </ItemDef>
      <ItemDef OID="IT.SUPPMA.IDVAR" Name="IDVAR" DataType="text" Length="5" SASFieldName="IDVAR">
        <Description>
          <TranslatedText xml:lang="en">Identifying Variable</TranslatedText>
        </Description>
        <def:Origin Type="OTHER"/>
      </ItemDef>
      <ItemDef OID="IT.SUPPMA.IDVARVAL" Name="IDVARVAL" DataType="text" Length="4" SASFieldName="IDVARVAL">
        <Description>
          <TranslatedText xml:lang="en">Identifying Variable Value</TranslatedText>
        </Description>
        <def:Origin Type="OTHER"/>
      </ItemDef>
      <ItemDef OID="IT.SUPPMA.QNAM" Name="QNAM" DataType="text" Length="8" SASFieldName="QNAM">
        <Description>
          <TranslatedText xml:lang="en">Qualifier Variable Name</TranslatedText>
        </Description>
        <def:Origin Type="OTHER"/>
      </ItemDef>
      <ItemDef OID="IT.SUPPMA.QLABEL" Name="QLABEL" DataType="text" Length="16" SASFieldName="QLABEL">
        <Description>
          <TranslatedText xml:lang="en">Qualifier Variable Label</TranslatedText>
        </Description>
        <def:Origin Type="OTHER"/>
      </ItemDef>
      <ItemDef OID="IT.SUPPMA.QVAL" Name="QVAL" DataType="text" Length="7" SASFieldName="QVAL">
        <Description>
          <TranslatedText xml:lang="en">Data Value</TranslatedText>
        </Description>
        <def:Origin Type="COLLECTED"/>
        <def:ValueListRef ValueListOID="VL.SUPPMA.QVAL"/>
      </ItemDef>
      <ItemDef OID="IT.SUPPMA.QORIG" Name="QORIG" DataType="text" Length="9" SASFieldName="QORIG">
        <Description>
          <TranslatedText xml:lang="en">Origin</TranslatedText>
        </Description>
        <def:Origin Type="OTHER"/>
      </ItemDef>
      <ItemDef OID="IT.SUPPMI.STUDYID" Name="STUDYID" DataType="text" Length="8" SASFieldName="STUDYID">
        <Description>
          <TranslatedText xml:lang="en">Study Identifier</TranslatedText>
        </Description>
        <def:Origin Type="OTHER"/>
      </ItemDef>
      <ItemDef OID="IT.SUPPMI.RDOMAIN" Name="RDOMAIN" DataType="text" Length="2" SASFieldName="RDOMAIN">
        <Description>
          <TranslatedText xml:lang="en">Related Domain Abbreviation</TranslatedText>
        </Description>
        <def:Origin Type="OTHER"/>
      </ItemDef>
      <ItemDef OID="IT.SUPPMI.USUBJID" Name="USUBJID" DataType="text" Length="13" SASFieldName="USUBJID">
        <Description>
          <TranslatedText xml:lang="en">Unique Subject Identifier</TranslatedText>
        </Description>
        <def:Origin Type="OTHER"/>
      </ItemDef>
      <ItemDef OID="IT.SUPPMI.IDVAR" Name="IDVAR" DataType="text" Length="5" SASFieldName="IDVAR">
        <Description>
          <TranslatedText xml:lang="en">Identifying Variable</TranslatedText>
        </Description>
        <def:Origin Type="OTHER"/>
      </ItemDef>
      <ItemDef OID="IT.SUPPMI.IDVARVAL" Name="IDVARVAL" DataType="text" Length="4" SASFieldName="IDVARVAL">
        <Description>
          <TranslatedText xml:lang="en">Identifying Variable Value</TranslatedText>
        </Description>
        <def:Origin Type="OTHER"/>
      </ItemDef>
      <ItemDef OID="IT.SUPPMI.QNAM" Name="QNAM" DataType="text" Length="8" SASFieldName="QNAM">
        <Description>
          <TranslatedText xml:lang="en">Qualifier Variable Name</TranslatedText>
        </Description>
        <def:Origin Type="OTHER"/>
      </ItemDef>
      <ItemDef OID="IT.SUPPMI.QLABEL" Name="QLABEL" DataType="text" Length="16" SASFieldName="QLABEL">
        <Description>
          <TranslatedText xml:lang="en">Qualifier Variable Label</TranslatedText>
        </Description>
        <def:Origin Type="OTHER"/>
      </ItemDef>
      <ItemDef OID="IT.SUPPMI.QVAL" Name="QVAL" DataType="text" Length="25" SASFieldName="QVAL">
        <Description>
          <TranslatedText xml:lang="en">Data Value</TranslatedText>
        </Description>
        <def:Origin Type="COLLECTED"/>
        <def:ValueListRef ValueListOID="VL.SUPPMI.QVAL"/>
      </ItemDef>
      <ItemDef OID="IT.SUPPMI.QORIG" Name="QORIG" DataType="text" Length="9" SASFieldName="QORIG">
        <Description>
          <TranslatedText xml:lang="en">Origin</TranslatedText>
        </Description>
        <def:Origin Type="OTHER"/>
      </ItemDef>
      <ItemDef OID="IT.BW.BWORRES.BW" Name="BW" DataType="float" Length="6" SASFieldName="BW" SignificantDigits="1" def:DisplayFormat="6.1">
        <Description>
          <TranslatedText xml:lang="en">Body Weight</TranslatedText>
        </Description>
        <def:Origin Type="COLLECTED"/>
      </ItemDef>
      <ItemDef OID="IT.BW.BWORRES.TERMBW" Name="TERMBW" DataType="float" Length="3" SASFieldName="TERMBW" SignificantDigits="1" def:DisplayFormat="3.1">
        <Description>
          <TranslatedText xml:lang="en">Terminal Body Weight</TranslatedText>
        </Description>
        <def:Origin Type="COLLECTED"/>
      </ItemDef>
      <ItemDef OID="IT.FW.FWORRES.FC" Name="FC" DataType="integer" Length="4" SASFieldName="FC">
        <Description>
          <TranslatedText xml:lang="en">Food Consumption</TranslatedText>
        </Description>
        <def:Origin Type="COLLECTED"/>
      </ItemDef>
      <ItemDef OID="IT.LB.LBORRES.ALB" Name="ALB" DataType="integer" Length="2" SASFieldName="ALB">
        <Description>
          <TranslatedText xml:lang="en">Albumin</TranslatedText>
        </Description>
        <def:Origin Type="COLLECTED"/>
      </ItemDef>
      <ItemDef OID="IT.LB.LBORRES.ALBGLOB" Name="ALBGLOB" DataType="float" Length="3" SASFieldName="ALBGLOB" SignificantDigits="1" def:DisplayFormat="3.1">
        <Description>
          <TranslatedText xml:lang="en">Albumin/Globulin</TranslatedText>
        </Description>
        <def:Origin Type="COLLECTED"/>
      </ItemDef>
      <ItemDef OID="IT.LB.LBORRES.ALP" Name="ALP" DataType="integer" Length="3" SASFieldName="ALP">
        <Description>
          <TranslatedText xml:lang="en">Alkaline Phosphatase</TranslatedText>
        </Description>
        <def:Origin Type="COLLECTED"/>
      </ItemDef>
      <ItemDef OID="IT.LB.LBORRES.ALT" Name="ALT" DataType="integer" Length="2" SASFieldName="ALT">
        <Description>
          <TranslatedText xml:lang="en">Alanine Aminotransferase</TranslatedText>
        </Description>
        <def:Origin Type="COLLECTED"/>
      </ItemDef>
      <ItemDef OID="IT.LB.LBORRES.ANISO" Name="ANISO" DataType="text" Length="2" SASFieldName="ANISO">
        <Description>
          <TranslatedText xml:lang="en">Anisocytes</TranslatedText>
        </Description>
        <def:Origin Type="COLLECTED"/>
      </ItemDef>
      <ItemDef OID="IT.LB.LBORRES.APPEAR" Name="APPEAR" DataType="text" Length="1" SASFieldName="APPEAR">
        <Description>
          <TranslatedText xml:lang="en">Specimen Appearance</TranslatedText>
        </Description>
        <def:Origin Type="COLLECTED"/>
      </ItemDef>
      <ItemDef OID="IT.LB.LBORRES.APTT" Name="APTT" DataType="float" Length="4" SASFieldName="APTT" SignificantDigits="1" def:DisplayFormat="4.1">
        <Description>
          <TranslatedText xml:lang="en">Activated Partial Thromboplastin Time</TranslatedText>
        </Description>
        <def:Origin Type="COLLECTED"/>
      </ItemDef>
      <ItemDef OID="IT.LB.LBORRES.AST" Name="AST" DataType="integer" Length="2" SASFieldName="AST">
        <Description>
          <TranslatedText xml:lang="en">Aspartate Aminotransferase</TranslatedText>
        </Description>
        <def:Origin Type="COLLECTED"/>
      </ItemDef>
      <ItemDef OID="IT.LB.LBORRES.BASO" Name="BASO" DataType="float" Length="4" SASFieldName="BASO" SignificantDigits="2" def:DisplayFormat="4.2">
        <Description>
          <TranslatedText xml:lang="en">Basophils</TranslatedText>
        </Description>
        <def:Origin Type="COLLECTED"/>
      </ItemDef>
      <ItemDef OID="IT.LB.LBORRES.BILI" Name="BILI" DataType="float" Length="3" SASFieldName="BILI" SignificantDigits="1" def:DisplayFormat="3.1">
        <Description>
          <TranslatedText xml:lang="en">Bilirubin</TranslatedText>
        </Description>
        <def:Origin Type="COLLECTED"/>
      </ItemDef>
      <ItemDef OID="IT.LB.LBORRES.CA" Name="CA" DataType="float" Length="4" SASFieldName="CA" SignificantDigits="2" def:DisplayFormat="4.2">
        <Description>
          <TranslatedText xml:lang="en">Calcium</TranslatedText>
        </Description>
        <def:Origin Type="COLLECTED"/>
      </ItemDef>
      <ItemDef OID="IT.LB.LBORRES.CHOL" Name="CHOL" DataType="float" Length="3" SASFieldName="CHOL" SignificantDigits="1" def:DisplayFormat="3.1">
        <Description>
          <TranslatedText xml:lang="en">Cholesterol</TranslatedText>
        </Description>
        <def:Origin Type="COLLECTED"/>
      </ItemDef>
      <ItemDef OID="IT.LB.LBORRES.CK" Name="CK" DataType="integer" Length="4" SASFieldName="CK">
        <Description>
          <TranslatedText xml:lang="en">Creatine Kinase</TranslatedText>
        </Description>
        <def:Origin Type="COLLECTED"/>
      </ItemDef>
      <ItemDef OID="IT.LB.LBORRES.CL" Name="CL" DataType="integer" Length="3" SASFieldName="CL">
        <Description>
          <TranslatedText xml:lang="en">Chloride</TranslatedText>
        </Description>
        <def:Origin Type="COLLECTED"/>
      </ItemDef>
      <ItemDef OID="IT.LB.LBORRES.CREAT" Name="CREAT" DataType="integer" Length="3" SASFieldName="CREAT">
        <Description>
          <TranslatedText xml:lang="en">Creatinine</TranslatedText>
        </Description>
        <def:Origin Type="COLLECTED"/>
      </ItemDef>
      <ItemDef OID="IT.LB.LBORRES.CRENCE" Name="CRENCE" DataType="text" Length="2" SASFieldName="CRENCE">
        <Description>
          <TranslatedText xml:lang="en">Crenated Cells</TranslatedText>
        </Description>
        <def:Origin Type="COLLECTED"/>
      </ItemDef>
      <ItemDef OID="IT.LB.LBORRES.CRP" Name="CRP" DataType="float" Length="6" SASFieldName="CRP" SignificantDigits="2" def:DisplayFormat="6.2">
        <Description>
          <TranslatedText xml:lang="en">C Reactive Protein</TranslatedText>
        </Description>
        <def:Origin Type="COLLECTED"/>
      </ItemDef>
      <ItemDef OID="IT.LB.LBORRES.EOS" Name="EOS" DataType="float" Length="4" SASFieldName="EOS" SignificantDigits="2" def:DisplayFormat="4.2">
        <Description>
          <TranslatedText xml:lang="en">Eosinophils</TranslatedText>
        </Description>
        <def:Origin Type="COLLECTED"/>
      </ItemDef>
      <ItemDef OID="IT.LB.LBORRES.FIBRINO" Name="FIBRINO" DataType="float" Length="4" SASFieldName="FIBRINO" SignificantDigits="2" def:DisplayFormat="4.2">
        <Description>
          <TranslatedText xml:lang="en">Fibrinogen</TranslatedText>
        </Description>
        <def:Origin Type="COLLECTED"/>
      </ItemDef>
      <ItemDef OID="IT.LB.LBORRES.GGT" Name="GGT" DataType="integer" Length="2" SASFieldName="GGT">
        <Description>
          <TranslatedText xml:lang="en">Gamma Glutamyl Transferase</TranslatedText>
        </Description>
        <def:Origin Type="COLLECTED"/>
      </ItemDef>
      <ItemDef OID="IT.LB.LBORRES.GLOBUL" Name="GLOBUL" DataType="integer" Length="2" SASFieldName="GLOBUL">
        <Description>
          <TranslatedText xml:lang="en">Globulin</TranslatedText>
        </Description>
        <def:Origin Type="COLLECTED"/>
      </ItemDef>
      <ItemDef OID="IT.LB.LBORRES.GLUC" Name="GLUC" DataType="float" Length="5" SASFieldName="GLUC" SignificantDigits="2" def:DisplayFormat="5.2">
        <Description>
          <TranslatedText xml:lang="en">Glucose</TranslatedText>
        </Description>
        <def:Origin Type="COLLECTED"/>
      </ItemDef>
      <ItemDef OID="IT.LB.LBORRES.HCT" Name="HCT" DataType="float" Length="5" SASFieldName="HCT" SignificantDigits="3" def:DisplayFormat="5.3">
        <Description>
          <TranslatedText xml:lang="en">Hematocrit</TranslatedText>
        </Description>
        <def:Origin Type="COLLECTED"/>
      </ItemDef>
      <ItemDef OID="IT.LB.LBORRES.HGB" Name="HGB" DataType="float" Length="4" SASFieldName="HGB" SignificantDigits="1" def:DisplayFormat="4.1">
        <Description>
          <TranslatedText xml:lang="en">Hemoglobin</TranslatedText>
        </Description>
        <def:Origin Type="COLLECTED"/>
      </ItemDef>
      <ItemDef OID="IT.LB.LBORRES.K" Name="K" DataType="float" Length="3" SASFieldName="K" SignificantDigits="1" def:DisplayFormat="3.1">
        <Description>
          <TranslatedText xml:lang="en">Potassium</TranslatedText>
        </Description>
        <def:Origin Type="COLLECTED"/>
      </ItemDef>
      <ItemDef OID="IT.LB.LBORRES.LGUNSCE" Name="LGUNSCE" DataType="float" Length="4" SASFieldName="LGUNSCE" SignificantDigits="2" def:DisplayFormat="4.2">
        <Description>
          <TranslatedText xml:lang="en">Large Unstained Cells</TranslatedText>
        </Description>
        <def:Origin Type="COLLECTED"/>
      </ItemDef>
      <ItemDef OID="IT.LB.LBORRES.LYM" Name="LYM" DataType="float" Length="4" SASFieldName="LYM" SignificantDigits="2" def:DisplayFormat="4.2">
        <Description>
          <TranslatedText xml:lang="en">Lymphocytes</TranslatedText>
        </Description>
        <def:Origin Type="COLLECTED"/>
      </ItemDef>
      <ItemDef OID="IT.LB.LBORRES.MCH" Name="MCH" DataType="float" Length="4" SASFieldName="MCH" SignificantDigits="1" def:DisplayFormat="4.1">
        <Description>
          <TranslatedText xml:lang="en">Ery. Mean Corpuscular Hemoglobin</TranslatedText>
        </Description>
        <def:Origin Type="COLLECTED"/>
      </ItemDef>
      <ItemDef OID="IT.LB.LBORRES.MCHC" Name="MCHC" DataType="float" Length="4" SASFieldName="MCHC" SignificantDigits="1" def:DisplayFormat="4.1">
        <Description>
          <TranslatedText xml:lang="en">Ery. Mean Corpuscular HGB Concentration</TranslatedText>
        </Description>
        <def:Origin Type="COLLECTED"/>
      </ItemDef>
      <ItemDef OID="IT.LB.LBORRES.MCV" Name="MCV" DataType="float" Length="4" SASFieldName="MCV" SignificantDigits="1" def:DisplayFormat="4.1">
        <Description>
          <TranslatedText xml:lang="en">Ery. Mean Corpuscular Volume</TranslatedText>
        </Description>
        <def:Origin Type="COLLECTED"/>
      </ItemDef>
      <ItemDef OID="IT.LB.LBORRES.MONO" Name="MONO" DataType="float" Length="4" SASFieldName="MONO" SignificantDigits="2" def:DisplayFormat="4.2">
        <Description>
          <TranslatedText xml:lang="en">Monocytes</TranslatedText>
        </Description>
        <def:Origin Type="COLLECTED"/>
      </ItemDef>
      <ItemDef OID="IT.LB.LBORRES.NEUT" Name="NEUT" DataType="float" Length="4" SASFieldName="NEUT" SignificantDigits="2" def:DisplayFormat="4.2">
        <Description>
          <TranslatedText xml:lang="en">Neutrophils</TranslatedText>
        </Description>
        <def:Origin Type="COLLECTED"/>
      </ItemDef>
      <ItemDef OID="IT.LB.LBORRES.PHOS" Name="PHOS" DataType="float" Length="4" SASFieldName="PHOS" SignificantDigits="2" def:DisplayFormat="4.2">
        <Description>
          <TranslatedText xml:lang="en">Phosphate</TranslatedText>
        </Description>
        <def:Origin Type="COLLECTED"/>
      </ItemDef>
      <ItemDef OID="IT.LB.LBORRES.PLAT" Name="PLAT" DataType="integer" Length="3" SASFieldName="PLAT">
        <Description>
          <TranslatedText xml:lang="en">Platelets</TranslatedText>
        </Description>
        <def:Origin Type="COLLECTED"/>
      </ItemDef>
      <ItemDef OID="IT.LB.LBORRES.PLATCLMP" Name="PLATCLMP" DataType="text" Length="2" SASFieldName="PLATCLMP">
        <Description>
          <TranslatedText xml:lang="en">Platelet Clumps</TranslatedText>
        </Description>
        <def:Origin Type="COLLECTED"/>
      </ItemDef>
      <ItemDef OID="IT.LB.LBORRES.PLTMORPH" Name="PLTMORPH" DataType="text" Length="3" SASFieldName="PLTMORPH">
        <Description>
          <TranslatedText xml:lang="en">Platelet Morphology</TranslatedText>
        </Description>
        <def:Origin Type="COLLECTED"/>
      </ItemDef>
      <ItemDef OID="IT.LB.LBORRES.POLYCHR" Name="POLYCHR" DataType="text" Length="2" SASFieldName="POLYCHR">
        <Description>
          <TranslatedText xml:lang="en">Polychromasia</TranslatedText>
        </Description>
        <def:Origin Type="COLLECTED"/>
      </ItemDef>
      <ItemDef OID="IT.LB.LBORRES.PROT" Name="PROT" DataType="integer" Length="2" SASFieldName="PROT">
        <Description>
          <TranslatedText xml:lang="en">Protein</TranslatedText>
        </Description>
        <def:Origin Type="COLLECTED"/>
      </ItemDef>
      <ItemDef OID="IT.LB.LBORRES.PT" Name="PT" DataType="float" Length="4" SASFieldName="PT" SignificantDigits="1" def:DisplayFormat="4.1">
        <Description>
          <TranslatedText xml:lang="en">Prothrombin Time</TranslatedText>
        </Description>
        <def:Origin Type="COLLECTED"/>
      </ItemDef>
      <ItemDef OID="IT.LB.LBORRES.RBC" Name="RBC" DataType="float" Length="4" SASFieldName="RBC" SignificantDigits="2" def:DisplayFormat="4.2">
        <Description>
          <TranslatedText xml:lang="en">Erythrocytes</TranslatedText>
        </Description>
        <def:Origin Type="COLLECTED"/>
      </ItemDef>
      <ItemDef OID="IT.LB.LBORRES.RBCNUCLE" Name="RBCNUCLE" DataType="integer" Length="1" SASFieldName="RBCNUCLE">
        <Description>
          <TranslatedText xml:lang="en">Nucleated Erythrocytes/Leukocytes</TranslatedText>
        </Description>
        <def:Origin Type="COLLECTED"/>
      </ItemDef>
      <ItemDef OID="IT.LB.LBORRES.RDW" Name="RDW" DataType="float" Length="4" SASFieldName="RDW" SignificantDigits="1" def:DisplayFormat="4.1">
        <Description>
          <TranslatedText xml:lang="en">Erythrocytes Distribution Width</TranslatedText>
        </Description>
        <def:Origin Type="COLLECTED"/>
      </ItemDef>
      <ItemDef OID="IT.LB.LBORRES.RETI" Name="RETI" DataType="float" Length="5" SASFieldName="RETI" SignificantDigits="1" def:DisplayFormat="5.1">
        <Description>
          <TranslatedText xml:lang="en">Reticulocytes</TranslatedText>
        </Description>
        <def:Origin Type="COLLECTED"/>
      </ItemDef>
      <ItemDef OID="IT.LB.LBORRES.SODIUM" Name="SODIUM" DataType="integer" Length="3" SASFieldName="SODIUM">
        <Description>
          <TranslatedText xml:lang="en">Sodium</TranslatedText>
        </Description>
        <def:Origin Type="COLLECTED"/>
      </ItemDef>
      <ItemDef OID="IT.LB.LBORRES.TRIG" Name="TRIG" DataType="float" Length="4" SASFieldName="TRIG" SignificantDigits="2" def:DisplayFormat="4.2">
        <Description>
          <TranslatedText xml:lang="en">Triglycerides</TranslatedText>
        </Description>
        <def:Origin Type="COLLECTED"/>
      </ItemDef>
      <ItemDef OID="IT.LB.LBORRES.UREA" Name="UREA" DataType="float" Length="3" SASFieldName="UREA" SignificantDigits="1" def:DisplayFormat="3.1">
        <Description>
          <TranslatedText xml:lang="en">Urea</TranslatedText>
        </Description>
        <def:Origin Type="COLLECTED"/>
      </ItemDef>
      <ItemDef OID="IT.LB.LBORRES.WBC" Name="WBC" DataType="float" Length="4" SASFieldName="WBC" SignificantDigits="2" def:DisplayFormat="4.2">
        <Description>
          <TranslatedText xml:lang="en">Leukocytes</TranslatedText>
        </Description>
        <def:Origin Type="COLLECTED"/>
      </ItemDef>
      <ItemDef OID="IT.LB.LBORRES.WBCMORPH" Name="WBCMORPH" DataType="text" Length="3" SASFieldName="WBCMORPH">
        <Description>
          <TranslatedText xml:lang="en">Leukocyte Cell Morphology</TranslatedText>
        </Description>
        <def:Origin Type="COLLECTED"/>
      </ItemDef>
      <ItemDef OID="IT.OM.OMORRES.OWBR" Name="OWBR" DataType="float" Length="10" SASFieldName="OWBR" SignificantDigits="5" def:DisplayFormat="10.5">
        <Description>
          <TranslatedText xml:lang="en">Organ to Brain Weight Ratio</TranslatedText>
        </Description>
        <def:Origin Type="DERIVED"/>
      </ItemDef>
      <ItemDef OID="IT.OM.OMORRES.OWBW" Name="OWBW" DataType="float" Length="7" SASFieldName="OWBW" SignificantDigits="5" def:DisplayFormat="7.5">
        <Description>
          <TranslatedText xml:lang="en">Organ to Body Weight Ratio</TranslatedText>
        </Description>
        <def:Origin Type="DERIVED"/>
      </ItemDef>
      <ItemDef OID="IT.OM.OMORRES.WEIGHT" Name="WEIGHT" DataType="float" Length="7" SASFieldName="WEIGHT" SignificantDigits="3" def:DisplayFormat="7.3">
        <Description>
          <TranslatedText xml:lang="en">Weight</TranslatedText>
        </Description>
        <def:Origin Type="COLLECTED"/>
      </ItemDef>
      <ItemDef OID="IT.SUPPMA.QVAL.MARESMOD" Name="MARESMOD" DataType="text" Length="7" SASFieldName="MARESMOD">
        <Description>
          <TranslatedText xml:lang="en">Result Modifiers</TranslatedText>
        </Description>
        <def:Origin Type="COLLECTED"/>
      </ItemDef>
      <ItemDef OID="IT.SUPPMI.QVAL.MIRESMOD" Name="MIRESMOD" DataType="text" Length="25" SASFieldName="MIRESMOD">
        <Description>
          <TranslatedText xml:lang="en">Result Modifiers</TranslatedText>
        </Description>
        <def:Origin Type="COLLECTED"/>
      </ItemDef>
      <ItemDef OID="IT.TS.TSVAL.AGETXT" Name="AGETXT" DataType="text" Length="5" SASFieldName="AGETXT">
        <Description>
          <TranslatedText xml:lang="en">Age Text</TranslatedText>
        </Description>
        <def:Origin Type="OTHER"/>
      </ItemDef>
      <ItemDef OID="IT.TS.TSVAL.AGEU" Name="AGEU" DataType="text" Length="5" SASFieldName="AGEU">
        <Description>
          <TranslatedText xml:lang="en">Age Unit</TranslatedText>
        </Description>
        <CodeListRef CodeListOID="CL.AGEU"/>
        <def:Origin Type="OTHER"/>
      </ItemDef>
      <ItemDef OID="IT.TS.TSVAL.DIET" Name="DIET" DataType="text" Length="8" SASFieldName="DIET">
        <Description>
          <TranslatedText xml:lang="en">Basal Diet</TranslatedText>
        </Description>
        <def:Origin Type="OTHER"/>
      </ItemDef>
      <ItemDef OID="IT.TS.TSVAL.DOSDUR" Name="DOSDUR" DataType="durationDatetime" SASFieldName="DOSDUR">
        <Description>
          <TranslatedText xml:lang="en">Dosing Duration</TranslatedText>
        </Description>
        <def:Origin Type="OTHER"/>
      </ItemDef>
      <ItemDef OID="IT.TS.TSVAL.DOSENDTC" Name="DOSENDTC" DataType="date" SASFieldName="DOSENDTC">
        <Description>
          <TranslatedText xml:lang="en">End Date/Time of Dose Interval</TranslatedText>
        </Description>
        <def:Origin Type="OTHER"/>
      </ItemDef>
      <ItemDef OID="IT.TS.TSVAL.DOSSTDTC" Name="DOSSTDTC" DataType="date" SASFieldName="DOSSTDTC">
        <Description>
          <TranslatedText xml:lang="en">Start Date/Time of Dose Interval</TranslatedText>
        </Description>
        <def:Origin Type="OTHER"/>
      </ItemDef>
      <ItemDef OID="IT.TS.TSVAL.ENVTEMP" Name="ENVTEMP" DataType="text" Length="5" SASFieldName="ENVTEMP">
        <Description>
          <TranslatedText xml:lang="en">Environmental Temperature</TranslatedText>
        </Description>
        <def:Origin Type="OTHER"/>
      </ItemDef>
      <ItemDef OID="IT.TS.TSVAL.ENVTEMPU" Name="ENVTEMPU" DataType="text" Length="1" SASFieldName="ENVTEMPU">
        <Description>
          <TranslatedText xml:lang="en">Environmental Temperature Units</TranslatedText>
        </Description>
        <CodeListRef CodeListOID="CL.TS.UNIT"/>
        <def:Origin Type="OTHER"/>
      </ItemDef>
      <ItemDef OID="IT.TS.TSVAL.EXPENDTC" Name="EXPENDTC" DataType="date" SASFieldName="EXPENDTC">
        <Description>
          <TranslatedText xml:lang="en">Experimental End Date</TranslatedText>
        </Description>
        <def:Origin Type="OTHER"/>
      </ItemDef>
      <ItemDef OID="IT.TS.TSVAL.EXPSTDTC" Name="EXPSTDTC" DataType="date" SASFieldName="EXPSTDTC">
        <Description>
          <TranslatedText xml:lang="en">Experimental Start Date</TranslatedText>
        </Description>
        <def:Origin Type="OTHER"/>
      </ItemDef>
      <ItemDef OID="IT.TS.TSVAL.FEEDREG" Name="FEEDREG" DataType="text" Length="10" SASFieldName="FEEDREG">
        <Description>
          <TranslatedText xml:lang="en">Feeding Regimen</TranslatedText>
        </Description>
        <def:Origin Type="OTHER"/>
      </ItemDef>
      <ItemDef OID="IT.TS.TSVAL.GLPFL" Name="GLPFL" DataType="text" Length="1" SASFieldName="GLPFL">
        <Description>
          <TranslatedText xml:lang="en">GLP Flag</TranslatedText>
        </Description>
        <CodeListRef CodeListOID="CL.TS.TSPARMCD.NY"/>
        <def:Origin Type="OTHER"/>
      </ItemDef>
      <ItemDef OID="IT.TS.TSVAL.GLPTYP" Name="GLPTYP" DataType="text" Length="4" SASFieldName="GLPTYP">
        <Description>
          <TranslatedText xml:lang="en">Good Laboratory Practice Type</TranslatedText>
        </Description>
        <def:Origin Type="OTHER"/>
      </ItemDef>
      <ItemDef OID="IT.TS.TSVAL.HOUSEGRP" Name="HOUSEGRP" DataType="text" Length="10" SASFieldName="HOUSEGRP">
        <Description>
          <TranslatedText xml:lang="en">Housing Group</TranslatedText>
        </Description>
        <def:Origin Type="OTHER"/>
      </ItemDef>
      <ItemDef OID="IT.TS.TSVAL.HOUSETYP" Name="HOUSETYP" DataType="text" Length="89" SASFieldName="HOUSETYP">
        <Description>
          <TranslatedText xml:lang="en">Housing Type</TranslatedText>
        </Description>
        <def:Origin Type="OTHER"/>
      </ItemDef>
      <ItemDef OID="IT.TS.TSVAL.HUMIDT" Name="HUMIDT" DataType="text" Length="5" SASFieldName="HUMIDT">
        <Description>
          <TranslatedText xml:lang="en">Housing Humidity</TranslatedText>
        </Description>
        <def:Origin Type="OTHER"/>
      </ItemDef>
      <ItemDef OID="IT.TS.TSVAL.HUMIDTU" Name="HUMIDTU" DataType="text" Length="1" SASFieldName="HUMIDTU">
        <Description>
          <TranslatedText xml:lang="en">Housing Humidity Units</TranslatedText>
        </Description>
        <CodeListRef CodeListOID="CL.TS.UNIT"/>
        <def:Origin Type="OTHER"/>
      </ItemDef>
      <ItemDef OID="IT.TS.TSVAL.IDMETH" Name="IDMETH" DataType="text" Length="45" SASFieldName="IDMETH">
        <Description>
          <TranslatedText xml:lang="en">Method of Identification</TranslatedText>
        </Description>
        <def:Origin Type="OTHER"/>
      </ItemDef>
      <ItemDef OID="IT.TS.TSVAL.LIGHT" Name="LIGHT" DataType="text" Length="7" SASFieldName="LIGHT">
        <Description>
          <TranslatedText xml:lang="en">Light Cycle</TranslatedText>
        </Description>
        <def:Origin Type="OTHER"/>
      </ItemDef>
