KeyWords: EX, Exposure
Script: 
  Desc   : > 
    The Exposure Analysis Panel provides the user with an overview 
     of the treatment dosing in the Exposure Dataset. The Exposure 
     Analysis Panel details the time on drug and number of doses taken
     by treatment arm, descriptive statistics of the treatment arms, 
     the number of subjects in proposed arm compared to actual treatment,
     and dosing adjustments.
  Name   : disposition_v2.sas 
  GCR    : r135
  SRV    : 12345
  Source : FDA JumpStart
  Target : https://github.com/phuse-org/phuse-scripts/blob/master/tested/SAS/SpecDocs/Analysis%20Panel%20Instructions.doc
  Title  : Exposure Panel Analysis
  Topic  : Exposure Panel
  Type   : Analysis
  Subtype: TFL
Package:
  name : SAS Analysis Panels
  title: FDA JumpStart analysis package
Language: 
  name   : SAS
  version: 9.2.x, 9.4.x
Comments: >
  The Exposure Analysis Panel contains the five analyses outlined below:
  Analysis 1: Percent of Subjects Left on Study Medication by Day of Study 
  Provides a chart trending the percentage of subjects remaining in the study 
  by treatment arm.
  Analysis 2: Distribution of Doses by Arm
    Provides a chart plotting the percentage of subjects by number of 
     cumulative doses received throughout the study by treatment arm.
  Analysis 3: Dose Descriptive Statistics by Arm and Boxplot of Doses
    1. Provides a table of the descriptive statistics Mean, Median, Mode, 
        Standard Deviation, Quartile 1, Quartile 3, Minimum, and Maximum for 
        the cumulative doses received by treatment arm.
    2. Provides a chart of the descriptive statistics Mean, Median, Standard 
        Deviation, Quartile 1, Quartile 3, Minimum, and Maximum for the 
        cumulative doses received by treatment arm.
  Analysis 4: Planned Arm to Actual Treatment Comparison
    Provides a table comparing the number of subjects in the planned arm 
     variable from the Demographic Dataset to the number of subjects in the 
     actual treatment variable from the Exposure Dataset.
  Analysis 5: Dose Changes During the Study
    Provides a table listing the subjects who experienced an adjustment in
     dose, the dose value and units, and study day the change occurred.
  Dataset Requirements:
     Exposure           (EX)
     Demographics     (DM)
  Variable Requirements:
     EX     - Subject ID                         (USUBJID)
          - Start Date/Time of Treatment     (EXSTDTC)
          - End Date/Time of Treatment     (EXENDTC)
          - Name of Actual Treatment          (EXTRT)
          - Dose per Administration          (EXDOSE)
          - Dose Units                    (EXDOSU)
          - Dosing Frequency per Interval     (EXDOSFRQ)
     DM  - Actual Arm                     (ACTARM)
          - Planned Treatment Arm          (ARM)
          - Subject ID                    (USUBJID)
          - Subject Reference Start Date/Time     (RFSTDTC)
          - Planned Arm Code               (ARMCD)
Inputs:
  datasets: dat1, dat2, dat3
  P1: String - dataset name
  P2: Number - depart id
  P3: String - subject id
Outputs:
  datasets: out1, out2, out3
  O1:
  O2:
Authors: 
  - name   : Andreas Anastassopoulos
    email  : andreas.anastassapoulos@us.ibm.com
    company: FDA/IBM
    date   : 03/16/2010
  - name   : 
    email  : 
    company: 
    date   : 
Qualification: 
  LastQualDate: MM/DD/YYYY 
  LastQualBy: FirstName LastName
  Stage: T
  Document: a link to latest documentation 
  Note: C - Contributed; D - Development; T - Testing; Q - Qualified
Stages: 
  - Date: 02/02/2016
    Name: Austin Taylor <Austin.Taylor@fda.hhs.gov>
    Stage: C 
    Docs: https://github.com/phuse-org/phuse-scripts/blob/master/tested/SAS/SpecDocs/Exposure%20Analysis%20Specifications%20(3-24-2015).doc
  - Date: 03/08/2016
    Name: June Cheng
    Stage: T
    Docs: https://github.com/phuse-org/phuse-scripts/blob/master/tested/SAS/EX/exposure_v1.docx
Rating: 
  - User: June Cheng
    Date: 03/08/2016
    Association: Accenture 
    Stars: 4.5
  - User: htu 
    Date: 03/10/2016 
    Association: Accenture
    Stars: 5
