<?xml version="1.0" encoding="UTF-8"?>

<?xml-stylesheet type="text/xsl" href="define2-0-0.xsl"?>


<ODM xmlns="http://www.cdisc.org/ns/odm/v1.3" xmlns:xlink="http://www.w3.org/1999/xlink" xmlns:def="http://www.cdisc.org/ns/def/v2.0" FileOID="/12345.0/Define-XML_2.0.0/1.0" ODMVersion="1.3.2" FileType="Snapshot" CreationDateTime="2020-02-17T19:19:03" Originator="Sponsor, Inc." SourceSystem="DataDefine" SourceSystemVersion="2.1.1">
  <Study OID="12345.0">
    <GlobalVariables>
      <StudyName>12345.0</StudyName>
      <StudyDescription>CARDIOVASCULAR SAFETY EVALUATION OF ORALLY ADMINISTERED DRUG-X FREE FORM IN BEAGLE DOGS</StudyDescription>
      <ProtocolName>3-1-PILOT</ProtocolName>
    </GlobalVariables>
    <MetaDataVersion OID="MDV.12345.0.SEND-IG.3.1.SDTM.1.2" Name="Study 12345.0, Data Definitions" Description="Study 12345.0, Data Definitions" def:DefineVersion="2.0.0" def:StandardName="SEND-IG" def:StandardVersion="3.1">
      <def:SupplementalDoc>
        <def:DocumentRef leafID="LF.nsdrg"/>
      </def:SupplementalDoc>
      <def:ValueListDef OID="VL.BW.BWORRES">
        <ItemRef ItemOID="IT.BW.BWORRES.BW" OrderNumber="1" Mandatory="No">
          <def:WhereClauseRef WhereClauseOID="WC.BW.BWORRES.BW"/>
        </ItemRef>
      </def:ValueListDef>
      <def:ValueListDef OID="VL.BW.BWSTRESC">
        <ItemRef ItemOID="IT.BW.BWSTRESC.BW" OrderNumber="1" Mandatory="No" MethodOID="MT.COMPSTRESC">
          <def:WhereClauseRef WhereClauseOID="WC.BW.BWSTRESC.BW"/>
        </ItemRef>
      </def:ValueListDef>
      <def:ValueListDef OID="VL.CL.CLORRES">
        <ItemRef ItemOID="IT.CL.CLORRES.DTCL1" OrderNumber="1" Mandatory="No" MethodOID="MT.COMPCLORRES">
          <def:WhereClauseRef WhereClauseOID="WC.CL.CLORRES.DTCL1"/>
        </ItemRef>
        <ItemRef ItemOID="IT.CL.CLORRES.DTCL2" OrderNumber="2" Mandatory="No" MethodOID="MT.COMPCLORRES">
          <def:WhereClauseRef WhereClauseOID="WC.CL.CLORRES.DTCL2"/>
        </ItemRef>
        <ItemRef ItemOID="IT.CL.CLORRES.VET" OrderNumber="3" Mandatory="No" MethodOID="MT.COMPCLORRES">
          <def:WhereClauseRef WhereClauseOID="WC.CL.CLORRES.VET"/>
        </ItemRef>
      </def:ValueListDef>
      <def:ValueListDef OID="VL.CL.CLSTRESC">
        <ItemRef ItemOID="IT.CL.CLSTRESC.DTCL1" OrderNumber="1" Mandatory="No" MethodOID="MT.COMPSTRESC">
          <def:WhereClauseRef WhereClauseOID="WC.CL.CLSTRESC.DTCL1"/>
        </ItemRef>
        <ItemRef ItemOID="IT.CL.CLSTRESC.DTCL2" OrderNumber="2" Mandatory="No" MethodOID="MT.COMPSTRESC">
          <def:WhereClauseRef WhereClauseOID="WC.CL.CLSTRESC.DTCL2"/>
        </ItemRef>
        <ItemRef ItemOID="IT.CL.CLSTRESC.VET" OrderNumber="3" Mandatory="No" MethodOID="MT.COMPSTRESC">
          <def:WhereClauseRef WhereClauseOID="WC.CL.CLSTRESC.VET"/>
        </ItemRef>
      </def:ValueListDef>
      <def:ValueListDef OID="VL.CV.CVORRES">
        <ItemRef ItemOID="IT.CV.CVORRES.DIABP" OrderNumber="1" Mandatory="No">
          <def:WhereClauseRef WhereClauseOID="WC.CV.CVORRES.DIABP"/>
        </ItemRef>
        <ItemRef ItemOID="IT.CV.CVORRES.HR" OrderNumber="2" Mandatory="No">
          <def:WhereClauseRef WhereClauseOID="WC.CV.CVORRES.HR"/>
        </ItemRef>
        <ItemRef ItemOID="IT.CV.CVORRES.MAP" OrderNumber="3" Mandatory="No">
          <def:WhereClauseRef WhereClauseOID="WC.CV.CVORRES.MAP"/>
        </ItemRef>
        <ItemRef ItemOID="IT.CV.CVORRES.SYSBP" OrderNumber="4" Mandatory="No">
          <def:WhereClauseRef WhereClauseOID="WC.CV.CVORRES.SYSBP"/>
        </ItemRef>
      </def:ValueListDef>
      <def:ValueListDef OID="VL.CV.CVSTRESC">
        <ItemRef ItemOID="IT.CV.CVSTRESC.DIABP" OrderNumber="1" Mandatory="No" MethodOID="MT.COMPSTRESC">
          <def:WhereClauseRef WhereClauseOID="WC.CV.CVSTRESC.DIABP"/>
        </ItemRef>
        <ItemRef ItemOID="IT.CV.CVSTRESC.HR" OrderNumber="2" Mandatory="No" MethodOID="MT.COMPSTRESC">
          <def:WhereClauseRef WhereClauseOID="WC.CV.CVSTRESC.HR"/>
        </ItemRef>
        <ItemRef ItemOID="IT.CV.CVSTRESC.MAP" OrderNumber="3" Mandatory="No" MethodOID="MT.COMPSTRESC">
          <def:WhereClauseRef WhereClauseOID="WC.CV.CVSTRESC.MAP"/>
        </ItemRef>
        <ItemRef ItemOID="IT.CV.CVSTRESC.SYSBP" OrderNumber="4" Mandatory="No" MethodOID="MT.COMPSTRESC">
          <def:WhereClauseRef WhereClauseOID="WC.CV.CVSTRESC.SYSBP"/>
        </ItemRef>
      </def:ValueListDef>
      <def:ValueListDef OID="VL.EG.EGORRES">
        <ItemRef ItemOID="IT.EG.EGORRES.PRAG" OrderNumber="1" Mandatory="No">
          <def:WhereClauseRef WhereClauseOID="WC.EG.EGORRES.PRAG"/>
        </ItemRef>
        <ItemRef ItemOID="IT.EG.EGORRES.QRSAG" OrderNumber="2" Mandatory="No">
          <def:WhereClauseRef WhereClauseOID="WC.EG.EGORRES.QRSAG"/>
        </ItemRef>
        <ItemRef ItemOID="IT.EG.EGORRES.QTAG" OrderNumber="3" Mandatory="No">
          <def:WhereClauseRef WhereClauseOID="WC.EG.EGORRES.QTAG"/>
        </ItemRef>
        <ItemRef ItemOID="IT.EG.EGORRES.QTCSAG" OrderNumber="4" Mandatory="No">
          <def:WhereClauseRef WhereClauseOID="WC.EG.EGORRES.QTCSAG"/>
        </ItemRef>
        <ItemRef ItemOID="IT.EG.EGORRES.RRAG" OrderNumber="5" Mandatory="No">
          <def:WhereClauseRef WhereClauseOID="WC.EG.EGORRES.RRAG"/>
        </ItemRef>
      </def:ValueListDef>
      <def:ValueListDef OID="VL.EG.EGSTRESC">
        <ItemRef ItemOID="IT.EG.EGSTRESC.PRAG" OrderNumber="1" Mandatory="No" MethodOID="MT.COMPSTRESC">
          <def:WhereClauseRef WhereClauseOID="WC.EG.EGSTRESC.PRAG"/>
        </ItemRef>
        <ItemRef ItemOID="IT.EG.EGSTRESC.QRSAG" OrderNumber="2" Mandatory="No" MethodOID="MT.COMPSTRESC">
          <def:WhereClauseRef WhereClauseOID="WC.EG.EGSTRESC.QRSAG"/>
        </ItemRef>
        <ItemRef ItemOID="IT.EG.EGSTRESC.QTAG" OrderNumber="3" Mandatory="No" MethodOID="MT.COMPSTRESC">
          <def:WhereClauseRef WhereClauseOID="WC.EG.EGSTRESC.QTAG"/>
        </ItemRef>
        <ItemRef ItemOID="IT.EG.EGSTRESC.QTCSAG" OrderNumber="4" Mandatory="No" MethodOID="MT.COMPSTRESC">
          <def:WhereClauseRef WhereClauseOID="WC.EG.EGSTRESC.QTCSAG"/>
        </ItemRef>
        <ItemRef ItemOID="IT.EG.EGSTRESC.RRAG" OrderNumber="5" Mandatory="No" MethodOID="MT.COMPSTRESC">
          <def:WhereClauseRef WhereClauseOID="WC.EG.EGSTRESC.RRAG"/>
        </ItemRef>
      </def:ValueListDef>
      <def:ValueListDef OID="VL.LB.LBORRES">
        <ItemRef ItemOID="IT.LB.LBORRES.ACANT" OrderNumber="1" Mandatory="No">
          <def:WhereClauseRef WhereClauseOID="WC.LB.LBORRES.ACANT"/>
        </ItemRef>
        <ItemRef ItemOID="IT.LB.LBORRES.ALBGLOB" OrderNumber="2" Mandatory="No">
          <def:WhereClauseRef WhereClauseOID="WC.LB.LBORRES.ALBGLOB"/>
        </ItemRef>
        <ItemRef ItemOID="IT.LB.LBORRES.ALT" OrderNumber="3" Mandatory="No">
          <def:WhereClauseRef WhereClauseOID="WC.LB.LBORRES.ALT"/>
        </ItemRef>
        <ItemRef ItemOID="IT.LB.LBORRES.BASO1" OrderNumber="4" Mandatory="No">
          <def:WhereClauseRef WhereClauseOID="WC.LB.LBORRES.BASO1"/>
        </ItemRef>
        <ItemRef ItemOID="IT.LB.LBORRES.BASO2" OrderNumber="5" Mandatory="No">
          <def:WhereClauseRef WhereClauseOID="WC.LB.LBORRES.BASO2"/>
        </ItemRef>
        <ItemRef ItemOID="IT.LB.LBORRES.CELLULAR" OrderNumber="6" Mandatory="No">
          <def:WhereClauseRef WhereClauseOID="WC.LB.LBORRES.CELLULAR"/>
        </ItemRef>
        <ItemRef ItemOID="IT.LB.LBORRES.CL" OrderNumber="7" Mandatory="No">
          <def:WhereClauseRef WhereClauseOID="WC.LB.LBORRES.CL"/>
        </ItemRef>
        <ItemRef ItemOID="IT.LB.LBORRES.CREAT" OrderNumber="8" Mandatory="No">
          <def:WhereClauseRef WhereClauseOID="WC.LB.LBORRES.CREAT"/>
        </ItemRef>
        <ItemRef ItemOID="IT.LB.LBORRES.CRENCE" OrderNumber="9" Mandatory="No">
          <def:WhereClauseRef WhereClauseOID="WC.LB.LBORRES.CRENCE"/>
        </ItemRef>
        <ItemRef ItemOID="IT.LB.LBORRES.ECCENTCY" OrderNumber="10" Mandatory="No">
          <def:WhereClauseRef WhereClauseOID="WC.LB.LBORRES.ECCENTCY"/>
        </ItemRef>
        <ItemRef ItemOID="IT.LB.LBORRES.EOS1" OrderNumber="11" Mandatory="No">
          <def:WhereClauseRef WhereClauseOID="WC.LB.LBORRES.EOS1"/>
        </ItemRef>
        <ItemRef ItemOID="IT.LB.LBORRES.EOS2" OrderNumber="12" Mandatory="No">
          <def:WhereClauseRef WhereClauseOID="WC.LB.LBORRES.EOS2"/>
        </ItemRef>
        <ItemRef ItemOID="IT.LB.LBORRES.GLOBUL" OrderNumber="13" Mandatory="No">
          <def:WhereClauseRef WhereClauseOID="WC.LB.LBORRES.GLOBUL"/>
        </ItemRef>
        <ItemRef ItemOID="IT.LB.LBORRES.GLUC" OrderNumber="14" Mandatory="No">
          <def:WhereClauseRef WhereClauseOID="WC.LB.LBORRES.GLUC"/>
        </ItemRef>
        <ItemRef ItemOID="IT.LB.LBORRES.HCT" OrderNumber="15" Mandatory="No">
          <def:WhereClauseRef WhereClauseOID="WC.LB.LBORRES.HCT"/>
        </ItemRef>
        <ItemRef ItemOID="IT.LB.LBORRES.HEINZ" OrderNumber="16" Mandatory="No">
          <def:WhereClauseRef WhereClauseOID="WC.LB.LBORRES.HEINZ"/>
        </ItemRef>
        <ItemRef ItemOID="IT.LB.LBORRES.HEMOLYSI" OrderNumber="17" Mandatory="No">
          <def:WhereClauseRef WhereClauseOID="WC.LB.LBORRES.HEMOLYSI"/>
        </ItemRef>
        <ItemRef ItemOID="IT.LB.LBORRES.HGB" OrderNumber="18" Mandatory="No">
          <def:WhereClauseRef WhereClauseOID="WC.LB.LBORRES.HGB"/>
        </ItemRef>
        <ItemRef ItemOID="IT.LB.LBORRES.HOWJOL" OrderNumber="19" Mandatory="No">
          <def:WhereClauseRef WhereClauseOID="WC.LB.LBORRES.HOWJOL"/>
        </ItemRef>
        <ItemRef ItemOID="IT.LB.LBORRES.K" OrderNumber="20" Mandatory="No">
          <def:WhereClauseRef WhereClauseOID="WC.LB.LBORRES.K"/>
        </ItemRef>
        <ItemRef ItemOID="IT.LB.LBORRES.KERAT" OrderNumber="21" Mandatory="No">
          <def:WhereClauseRef WhereClauseOID="WC.LB.LBORRES.KERAT"/>
        </ItemRef>
        <ItemRef ItemOID="IT.LB.LBORRES.LGUNSCE1" OrderNumber="22" Mandatory="No">
          <def:WhereClauseRef WhereClauseOID="WC.LB.LBORRES.LGUNSCE1"/>
        </ItemRef>
        <ItemRef ItemOID="IT.LB.LBORRES.LGUNSCE2" OrderNumber="23" Mandatory="No">
          <def:WhereClauseRef WhereClauseOID="WC.LB.LBORRES.LGUNSCE2"/>
        </ItemRef>
        <ItemRef ItemOID="IT.LB.LBORRES.LYM1" OrderNumber="24" Mandatory="No">
          <def:WhereClauseRef WhereClauseOID="WC.LB.LBORRES.LYM1"/>
        </ItemRef>
        <ItemRef ItemOID="IT.LB.LBORRES.LYM2" OrderNumber="25" Mandatory="No">
          <def:WhereClauseRef WhereClauseOID="WC.LB.LBORRES.LYM2"/>
        </ItemRef>
        <ItemRef ItemOID="IT.LB.LBORRES.LYMAT" OrderNumber="26" Mandatory="No">
          <def:WhereClauseRef WhereClauseOID="WC.LB.LBORRES.LYMAT"/>
        </ItemRef>
        <ItemRef ItemOID="IT.LB.LBORRES.MCH" OrderNumber="27" Mandatory="No">
          <def:WhereClauseRef WhereClauseOID="WC.LB.LBORRES.MCH"/>
        </ItemRef>
        <ItemRef ItemOID="IT.LB.LBORRES.MCHC" OrderNumber="28" Mandatory="No">
          <def:WhereClauseRef WhereClauseOID="WC.LB.LBORRES.MCHC"/>
        </ItemRef>
        <ItemRef ItemOID="IT.LB.LBORRES.MCV" OrderNumber="29" Mandatory="No">
          <def:WhereClauseRef WhereClauseOID="WC.LB.LBORRES.MCV"/>
        </ItemRef>
        <ItemRef ItemOID="IT.LB.LBORRES.MONO1" OrderNumber="30" Mandatory="No">
          <def:WhereClauseRef WhereClauseOID="WC.LB.LBORRES.MONO1"/>
        </ItemRef>
        <ItemRef ItemOID="IT.LB.LBORRES.MONO2" OrderNumber="31" Mandatory="No">
          <def:WhereClauseRef WhereClauseOID="WC.LB.LBORRES.MONO2"/>
        </ItemRef>
        <ItemRef ItemOID="IT.LB.LBORRES.MONOAT" OrderNumber="32" Mandatory="No">
          <def:WhereClauseRef WhereClauseOID="WC.LB.LBORRES.MONOAT"/>
        </ItemRef>
        <ItemRef ItemOID="IT.LB.LBORRES.NEUT1" OrderNumber="33" Mandatory="No">
          <def:WhereClauseRef WhereClauseOID="WC.LB.LBORRES.NEUT1"/>
        </ItemRef>
        <ItemRef ItemOID="IT.LB.LBORRES.NEUT2" OrderNumber="34" Mandatory="No">
          <def:WhereClauseRef WhereClauseOID="WC.LB.LBORRES.NEUT2"/>
        </ItemRef>
        <ItemRef ItemOID="IT.LB.LBORRES.NEUTB" OrderNumber="35" Mandatory="No">
          <def:WhereClauseRef WhereClauseOID="WC.LB.LBORRES.NEUTB"/>
        </ItemRef>
        <ItemRef ItemOID="IT.LB.LBORRES.NEUTCYBS" OrderNumber="36" Mandatory="No">
          <def:WhereClauseRef WhereClauseOID="WC.LB.LBORRES.NEUTCYBS"/>
        </ItemRef>
        <ItemRef ItemOID="IT.LB.LBORRES.PAPPEN" OrderNumber="37" Mandatory="No">
          <def:WhereClauseRef WhereClauseOID="WC.LB.LBORRES.PAPPEN"/>
        </ItemRef>
        <ItemRef ItemOID="IT.LB.LBORRES.PLAT1" OrderNumber="38" Mandatory="No">
          <def:WhereClauseRef WhereClauseOID="WC.LB.LBORRES.PLAT1"/>
        </ItemRef>
        <ItemRef ItemOID="IT.LB.LBORRES.PLAT2" OrderNumber="39" Mandatory="No">
          <def:WhereClauseRef WhereClauseOID="WC.LB.LBORRES.PLAT2"/>
        </ItemRef>
        <ItemRef ItemOID="IT.LB.LBORRES.PLATCLMP" OrderNumber="40" Mandatory="No">
          <def:WhereClauseRef WhereClauseOID="WC.LB.LBORRES.PLATCLMP"/>
        </ItemRef>
        <ItemRef ItemOID="IT.LB.LBORRES.PLATLRG" OrderNumber="41" Mandatory="No">
          <def:WhereClauseRef WhereClauseOID="WC.LB.LBORRES.PLATLRG"/>
        </ItemRef>
        <ItemRef ItemOID="IT.LB.LBORRES.POLYCHR" OrderNumber="42" Mandatory="No">
          <def:WhereClauseRef WhereClauseOID="WC.LB.LBORRES.POLYCHR"/>
        </ItemRef>
        <ItemRef ItemOID="IT.LB.LBORRES.PROT" OrderNumber="43" Mandatory="No">
          <def:WhereClauseRef WhereClauseOID="WC.LB.LBORRES.PROT"/>
        </ItemRef>
        <ItemRef ItemOID="IT.LB.LBORRES.PYKNOTIC" OrderNumber="44" Mandatory="No">
          <def:WhereClauseRef WhereClauseOID="WC.LB.LBORRES.PYKNOTIC"/>
        </ItemRef>
        <ItemRef ItemOID="IT.LB.LBORRES.RBC" OrderNumber="45" Mandatory="No">
          <def:WhereClauseRef WhereClauseOID="WC.LB.LBORRES.RBC"/>
        </ItemRef>
        <ItemRef ItemOID="IT.LB.LBORRES.RBCAGGLU" OrderNumber="46" Mandatory="No">
          <def:WhereClauseRef WhereClauseOID="WC.LB.LBORRES.RBCAGGLU"/>
        </ItemRef>
        <ItemRef ItemOID="IT.LB.LBORRES.RBCGHOST" OrderNumber="47" Mandatory="No">
          <def:WhereClauseRef WhereClauseOID="WC.LB.LBORRES.RBCGHOST"/>
        </ItemRef>
        <ItemRef ItemOID="IT.LB.LBORRES.RBCNUC" OrderNumber="48" Mandatory="No">
          <def:WhereClauseRef WhereClauseOID="WC.LB.LBORRES.RBCNUC"/>
        </ItemRef>
        <ItemRef ItemOID="IT.LB.LBORRES.RBCNUCLE" OrderNumber="49" Mandatory="No">
          <def:WhereClauseRef WhereClauseOID="WC.LB.LBORRES.RBCNUCLE"/>
        </ItemRef>
        <ItemRef ItemOID="IT.LB.LBORRES.RDW" OrderNumber="50" Mandatory="No">
          <def:WhereClauseRef WhereClauseOID="WC.LB.LBORRES.RDW"/>
        </ItemRef>
        <ItemRef ItemOID="IT.LB.LBORRES.RETI" OrderNumber="51" Mandatory="No">
          <def:WhereClauseRef WhereClauseOID="WC.LB.LBORRES.RETI"/>
        </ItemRef>
        <ItemRef ItemOID="IT.LB.LBORRES.ROULEAUX" OrderNumber="52" Mandatory="No">
          <def:WhereClauseRef WhereClauseOID="WC.LB.LBORRES.ROULEAUX"/>
        </ItemRef>
        <ItemRef ItemOID="IT.LB.LBORRES.SCHISTO" OrderNumber="53" Mandatory="No">
          <def:WhereClauseRef WhereClauseOID="WC.LB.LBORRES.SCHISTO"/>
        </ItemRef>
        <ItemRef ItemOID="IT.LB.LBORRES.SMDGCE" OrderNumber="54" Mandatory="No">
          <def:WhereClauseRef WhereClauseOID="WC.LB.LBORRES.SMDGCE"/>
        </ItemRef>
        <ItemRef ItemOID="IT.LB.LBORRES.SODIUM" OrderNumber="55" Mandatory="No">
          <def:WhereClauseRef WhereClauseOID="WC.LB.LBORRES.SODIUM"/>
        </ItemRef>
        <ItemRef ItemOID="IT.LB.LBORRES.SPHERO" OrderNumber="56" Mandatory="No">
          <def:WhereClauseRef WhereClauseOID="WC.LB.LBORRES.SPHERO"/>
        </ItemRef>
        <ItemRef ItemOID="IT.LB.LBORRES.STIPBASO" OrderNumber="57" Mandatory="No">
          <def:WhereClauseRef WhereClauseOID="WC.LB.LBORRES.STIPBASO"/>
        </ItemRef>
        <ItemRef ItemOID="IT.LB.LBORRES.UNPOIKIL" OrderNumber="58" Mandatory="No">
          <def:WhereClauseRef WhereClauseOID="WC.LB.LBORRES.UNPOIKIL"/>
        </ItemRef>
        <ItemRef ItemOID="IT.LB.LBORRES.UREAN" OrderNumber="59" Mandatory="No">
          <def:WhereClauseRef WhereClauseOID="WC.LB.LBORRES.UREAN"/>
        </ItemRef>
        <ItemRef ItemOID="IT.LB.LBORRES.WBC" OrderNumber="60" Mandatory="No">
          <def:WhereClauseRef WhereClauseOID="WC.LB.LBORRES.WBC"/>
        </ItemRef>
        <ItemRef ItemOID="IT.LB.LBORRES.WBCAGGLU" OrderNumber="61" Mandatory="No">
          <def:WhereClauseRef WhereClauseOID="WC.LB.LBORRES.WBCAGGLU"/>
        </ItemRef>
      </def:ValueListDef>
      <def:ValueListDef OID="VL.LB.LBSTRESC">
        <ItemRef ItemOID="IT.LB.LBSTRESC.ACANT" OrderNumber="1" Mandatory="No" MethodOID="MT.COMPSTRESC">
          <def:WhereClauseRef WhereClauseOID="WC.LB.LBSTRESC.ACANT"/>
        </ItemRef>
        <ItemRef ItemOID="IT.LB.LBSTRESC.ALBGLOB" OrderNumber="2" Mandatory="No" MethodOID="MT.COMPSTRESC">
          <def:WhereClauseRef WhereClauseOID="WC.LB.LBSTRESC.ALBGLOB"/>
        </ItemRef>
        <ItemRef ItemOID="IT.LB.LBSTRESC.ALT" OrderNumber="3" Mandatory="No" MethodOID="MT.COMPSTRESC">
          <def:WhereClauseRef WhereClauseOID="WC.LB.LBSTRESC.ALT"/>
        </ItemRef>
        <ItemRef ItemOID="IT.LB.LBSTRESC.BASO1" OrderNumber="4" Mandatory="No" MethodOID="MT.COMPSTRESC">
          <def:WhereClauseRef WhereClauseOID="WC.LB.LBSTRESC.BASO1"/>
        </ItemRef>
        <ItemRef ItemOID="IT.LB.LBSTRESC.BASO2" OrderNumber="5" Mandatory="No" MethodOID="MT.COMPSTRESC">
          <def:WhereClauseRef WhereClauseOID="WC.LB.LBSTRESC.BASO2"/>
        </ItemRef>
        <ItemRef ItemOID="IT.LB.LBSTRESC.CELLULAR" OrderNumber="6" Mandatory="No" MethodOID="MT.COMPSTRESC">
          <def:WhereClauseRef WhereClauseOID="WC.LB.LBSTRESC.CELLULAR"/>
        </ItemRef>
        <ItemRef ItemOID="IT.LB.LBSTRESC.CL" OrderNumber="7" Mandatory="No" MethodOID="MT.COMPSTRESC">
          <def:WhereClauseRef WhereClauseOID="WC.LB.LBSTRESC.CL"/>
        </ItemRef>
        <ItemRef ItemOID="IT.LB.LBSTRESC.CREAT" OrderNumber="8" Mandatory="No" MethodOID="MT.COMPSTRESC">
          <def:WhereClauseRef WhereClauseOID="WC.LB.LBSTRESC.CREAT"/>
        </ItemRef>
        <ItemRef ItemOID="IT.LB.LBSTRESC.CRENCE" OrderNumber="9" Mandatory="No" MethodOID="MT.COMPSTRESC">
          <def:WhereClauseRef WhereClauseOID="WC.LB.LBSTRESC.CRENCE"/>
        </ItemRef>
        <ItemRef ItemOID="IT.LB.LBSTRESC.ECCENTCY" OrderNumber="10" Mandatory="No" MethodOID="MT.COMPSTRESC">
          <def:WhereClauseRef WhereClauseOID="WC.LB.LBSTRESC.ECCENTCY"/>
        </ItemRef>
        <ItemRef ItemOID="IT.LB.LBSTRESC.EOS1" OrderNumber="11" Mandatory="No" MethodOID="MT.COMPSTRESC">
          <def:WhereClauseRef WhereClauseOID="WC.LB.LBSTRESC.EOS1"/>
        </ItemRef>
        <ItemRef ItemOID="IT.LB.LBSTRESC.EOS2" OrderNumber="12" Mandatory="No" MethodOID="MT.COMPSTRESC">
          <def:WhereClauseRef WhereClauseOID="WC.LB.LBSTRESC.EOS2"/>
        </ItemRef>
        <ItemRef ItemOID="IT.LB.LBSTRESC.GLOBUL" OrderNumber="13" Mandatory="No" MethodOID="MT.COMPSTRESC">
          <def:WhereClauseRef WhereClauseOID="WC.LB.LBSTRESC.GLOBUL"/>
        </ItemRef>
        <ItemRef ItemOID="IT.LB.LBSTRESC.GLUC" OrderNumber="14" Mandatory="No" MethodOID="MT.COMPSTRESC">
          <def:WhereClauseRef WhereClauseOID="WC.LB.LBSTRESC.GLUC"/>
        </ItemRef>
        <ItemRef ItemOID="IT.LB.LBSTRESC.HCT" OrderNumber="15" Mandatory="No" MethodOID="MT.COMPSTRESC">
          <def:WhereClauseRef WhereClauseOID="WC.LB.LBSTRESC.HCT"/>
        </ItemRef>
        <ItemRef ItemOID="IT.LB.LBSTRESC.HEINZ" OrderNumber="16" Mandatory="No" MethodOID="MT.COMPSTRESC">
          <def:WhereClauseRef WhereClauseOID="WC.LB.LBSTRESC.HEINZ"/>
        </ItemRef>
        <ItemRef ItemOID="IT.LB.LBSTRESC.HEMOLYSI" OrderNumber="17" Mandatory="No" MethodOID="MT.COMPSTRESC">
          <def:WhereClauseRef WhereClauseOID="WC.LB.LBSTRESC.HEMOLYSI"/>
        </ItemRef>
        <ItemRef ItemOID="IT.LB.LBSTRESC.HGB" OrderNumber="18" Mandatory="No" MethodOID="MT.COMPSTRESC">
          <def:WhereClauseRef WhereClauseOID="WC.LB.LBSTRESC.HGB"/>
        </ItemRef>
        <ItemRef ItemOID="IT.LB.LBSTRESC.HOWJOL" OrderNumber="19" Mandatory="No" MethodOID="MT.COMPSTRESC">
          <def:WhereClauseRef WhereClauseOID="WC.LB.LBSTRESC.HOWJOL"/>
        </ItemRef>
        <ItemRef ItemOID="IT.LB.LBSTRESC.K" OrderNumber="20" Mandatory="No" MethodOID="MT.COMPSTRESC">
          <def:WhereClauseRef WhereClauseOID="WC.LB.LBSTRESC.K"/>
        </ItemRef>
        <ItemRef ItemOID="IT.LB.LBSTRESC.KERAT" OrderNumber="21" Mandatory="No" MethodOID="MT.COMPSTRESC">
          <def:WhereClauseRef WhereClauseOID="WC.LB.LBSTRESC.KERAT"/>
        </ItemRef>
        <ItemRef ItemOID="IT.LB.LBSTRESC.LGUNSCE1" OrderNumber="22" Mandatory="No" MethodOID="MT.COMPSTRESC">
          <def:WhereClauseRef WhereClauseOID="WC.LB.LBSTRESC.LGUNSCE1"/>
        </ItemRef>
        <ItemRef ItemOID="IT.LB.LBSTRESC.LGUNSCE2" OrderNumber="23" Mandatory="No" MethodOID="MT.COMPSTRESC">
          <def:WhereClauseRef WhereClauseOID="WC.LB.LBSTRESC.LGUNSCE2"/>
        </ItemRef>
        <ItemRef ItemOID="IT.LB.LBSTRESC.LYM1" OrderNumber="24" Mandatory="No" MethodOID="MT.COMPSTRESC">
          <def:WhereClauseRef WhereClauseOID="WC.LB.LBSTRESC.LYM1"/>
        </ItemRef>
        <ItemRef ItemOID="IT.LB.LBSTRESC.LYM2" OrderNumber="25" Mandatory="No" MethodOID="MT.COMPSTRESC">
          <def:WhereClauseRef WhereClauseOID="WC.LB.LBSTRESC.LYM2"/>
        </ItemRef>
        <ItemRef ItemOID="IT.LB.LBSTRESC.LYMAT" OrderNumber="26" Mandatory="No" MethodOID="MT.COMPSTRESC">
          <def:WhereClauseRef WhereClauseOID="WC.LB.LBSTRESC.LYMAT"/>
        </ItemRef>
        <ItemRef ItemOID="IT.LB.LBSTRESC.MCH" OrderNumber="27" Mandatory="No" MethodOID="MT.COMPSTRESC">
          <def:WhereClauseRef WhereClauseOID="WC.LB.LBSTRESC.MCH"/>
        </ItemRef>
        <ItemRef ItemOID="IT.LB.LBSTRESC.MCHC" OrderNumber="28" Mandatory="No" MethodOID="MT.COMPSTRESC">
          <def:WhereClauseRef WhereClauseOID="WC.LB.LBSTRESC.MCHC"/>
        </ItemRef>
        <ItemRef ItemOID="IT.LB.LBSTRESC.MCV" OrderNumber="29" Mandatory="No" MethodOID="MT.COMPSTRESC">
          <def:WhereClauseRef WhereClauseOID="WC.LB.LBSTRESC.MCV"/>
        </ItemRef>
        <ItemRef ItemOID="IT.LB.LBSTRESC.MONO1" OrderNumber="30" Mandatory="No" MethodOID="MT.COMPSTRESC">
          <def:WhereClauseRef WhereClauseOID="WC.LB.LBSTRESC.MONO1"/>
        </ItemRef>
        <ItemRef ItemOID="IT.LB.LBSTRESC.MONO2" OrderNumber="31" Mandatory="No" MethodOID="MT.COMPSTRESC">
          <def:WhereClauseRef WhereClauseOID="WC.LB.LBSTRESC.MONO2"/>
        </ItemRef>
        <ItemRef ItemOID="IT.LB.LBSTRESC.MONOAT" OrderNumber="32" Mandatory="No" MethodOID="MT.COMPSTRESC">
          <def:WhereClauseRef WhereClauseOID="WC.LB.LBSTRESC.MONOAT"/>
        </ItemRef>
        <ItemRef ItemOID="IT.LB.LBSTRESC.NEUT1" OrderNumber="33" Mandatory="No" MethodOID="MT.COMPSTRESC">
          <def:WhereClauseRef WhereClauseOID="WC.LB.LBSTRESC.NEUT1"/>
        </ItemRef>
        <ItemRef ItemOID="IT.LB.LBSTRESC.NEUT2" OrderNumber="34" Mandatory="No" MethodOID="MT.COMPSTRESC">
          <def:WhereClauseRef WhereClauseOID="WC.LB.LBSTRESC.NEUT2"/>
        </ItemRef>
        <ItemRef ItemOID="IT.LB.LBSTRESC.NEUTB" OrderNumber="35" Mandatory="No" MethodOID="MT.COMPSTRESC">
          <def:WhereClauseRef WhereClauseOID="WC.LB.LBSTRESC.NEUTB"/>
        </ItemRef>
        <ItemRef ItemOID="IT.LB.LBSTRESC.NEUTCYBS" OrderNumber="36" Mandatory="No" MethodOID="MT.COMPSTRESC">
          <def:WhereClauseRef WhereClauseOID="WC.LB.LBSTRESC.NEUTCYBS"/>
        </ItemRef>
        <ItemRef ItemOID="IT.LB.LBSTRESC.PAPPEN" OrderNumber="37" Mandatory="No" MethodOID="MT.COMPSTRESC">
          <def:WhereClauseRef WhereClauseOID="WC.LB.LBSTRESC.PAPPEN"/>
        </ItemRef>
        <ItemRef ItemOID="IT.LB.LBSTRESC.PLAT1" OrderNumber="38" Mandatory="No" MethodOID="MT.COMPSTRESC">
          <def:WhereClauseRef WhereClauseOID="WC.LB.LBSTRESC.PLAT1"/>
        </ItemRef>
        <ItemRef ItemOID="IT.LB.LBSTRESC.PLAT2" OrderNumber="39" Mandatory="No" MethodOID="MT.COMPSTRESC">
          <def:WhereClauseRef WhereClauseOID="WC.LB.LBSTRESC.PLAT2"/>
        </ItemRef>
        <ItemRef ItemOID="IT.LB.LBSTRESC.PLATCLMP" OrderNumber="40" Mandatory="No" MethodOID="MT.COMPSTRESC">
          <def:WhereClauseRef WhereClauseOID="WC.LB.LBSTRESC.PLATCLMP"/>
        </ItemRef>
        <ItemRef ItemOID="IT.LB.LBSTRESC.PLATLRG" OrderNumber="41" Mandatory="No" MethodOID="MT.COMPSTRESC">
          <def:WhereClauseRef WhereClauseOID="WC.LB.LBSTRESC.PLATLRG"/>
        </ItemRef>
        <ItemRef ItemOID="IT.LB.LBSTRESC.POLYCHR" OrderNumber="42" Mandatory="No" MethodOID="MT.COMPSTRESC">
          <def:WhereClauseRef WhereClauseOID="WC.LB.LBSTRESC.POLYCHR"/>
        </ItemRef>
        <ItemRef ItemOID="IT.LB.LBSTRESC.PROT" OrderNumber="43" Mandatory="No" MethodOID="MT.COMPSTRESC">
          <def:WhereClauseRef WhereClauseOID="WC.LB.LBSTRESC.PROT"/>
        </ItemRef>
        <ItemRef ItemOID="IT.LB.LBSTRESC.PYKNOTIC" OrderNumber="44" Mandatory="No" MethodOID="MT.COMPSTRESC">
          <def:WhereClauseRef WhereClauseOID="WC.LB.LBSTRESC.PYKNOTIC"/>
        </ItemRef>
        <ItemRef ItemOID="IT.LB.LBSTRESC.RBC" OrderNumber="45" Mandatory="No" MethodOID="MT.COMPSTRESC">
          <def:WhereClauseRef WhereClauseOID="WC.LB.LBSTRESC.RBC"/>
        </ItemRef>
        <ItemRef ItemOID="IT.LB.LBSTRESC.RBCAGGLU" OrderNumber="46" Mandatory="No" MethodOID="MT.COMPSTRESC">
          <def:WhereClauseRef WhereClauseOID="WC.LB.LBSTRESC.RBCAGGLU"/>
        </ItemRef>
        <ItemRef ItemOID="IT.LB.LBSTRESC.RBCGHOST" OrderNumber="47" Mandatory="No" MethodOID="MT.COMPSTRESC">
          <def:WhereClauseRef WhereClauseOID="WC.LB.LBSTRESC.RBCGHOST"/>
        </ItemRef>
        <ItemRef ItemOID="IT.LB.LBSTRESC.RBCNUC" OrderNumber="48" Mandatory="No" MethodOID="MT.COMPSTRESC">
          <def:WhereClauseRef WhereClauseOID="WC.LB.LBSTRESC.RBCNUC"/>
        </ItemRef>
        <ItemRef ItemOID="IT.LB.LBSTRESC.RBCNUCLE" OrderNumber="49" Mandatory="No" MethodOID="MT.COMPSTRESC">
          <def:WhereClauseRef WhereClauseOID="WC.LB.LBSTRESC.RBCNUCLE"/>
        </ItemRef>
        <ItemRef ItemOID="IT.LB.LBSTRESC.RDW" OrderNumber="50" Mandatory="No" MethodOID="MT.COMPSTRESC">
          <def:WhereClauseRef WhereClauseOID="WC.LB.LBSTRESC.RDW"/>
        </ItemRef>
        <ItemRef ItemOID="IT.LB.LBSTRESC.RETI" OrderNumber="51" Mandatory="No" MethodOID="MT.COMPSTRESC">
          <def:WhereClauseRef WhereClauseOID="WC.LB.LBSTRESC.RETI"/>
        </ItemRef>
        <ItemRef ItemOID="IT.LB.LBSTRESC.ROULEAUX" OrderNumber="52" Mandatory="No" MethodOID="MT.COMPSTRESC">
          <def:WhereClauseRef WhereClauseOID="WC.LB.LBSTRESC.ROULEAUX"/>
        </ItemRef>
        <ItemRef ItemOID="IT.LB.LBSTRESC.SCHISTO" OrderNumber="53" Mandatory="No" MethodOID="MT.COMPSTRESC">
          <def:WhereClauseRef WhereClauseOID="WC.LB.LBSTRESC.SCHISTO"/>
        </ItemRef>
        <ItemRef ItemOID="IT.LB.LBSTRESC.SMDGCE" OrderNumber="54" Mandatory="No" MethodOID="MT.COMPSTRESC">
          <def:WhereClauseRef WhereClauseOID="WC.LB.LBSTRESC.SMDGCE"/>
        </ItemRef>
        <ItemRef ItemOID="IT.LB.LBSTRESC.SODIUM" OrderNumber="55" Mandatory="No" MethodOID="MT.COMPSTRESC">
          <def:WhereClauseRef WhereClauseOID="WC.LB.LBSTRESC.SODIUM"/>
        </ItemRef>
        <ItemRef ItemOID="IT.LB.LBSTRESC.SPHERO" OrderNumber="56" Mandatory="No" MethodOID="MT.COMPSTRESC">
          <def:WhereClauseRef WhereClauseOID="WC.LB.LBSTRESC.SPHERO"/>
        </ItemRef>
        <ItemRef ItemOID="IT.LB.LBSTRESC.STIPBASO" OrderNumber="57" Mandatory="No" MethodOID="MT.COMPSTRESC">
          <def:WhereClauseRef WhereClauseOID="WC.LB.LBSTRESC.STIPBASO"/>
        </ItemRef>
        <ItemRef ItemOID="IT.LB.LBSTRESC.UNPOIKIL" OrderNumber="58" Mandatory="No" MethodOID="MT.COMPSTRESC">
          <def:WhereClauseRef WhereClauseOID="WC.LB.LBSTRESC.UNPOIKIL"/>
        </ItemRef>
        <ItemRef ItemOID="IT.LB.LBSTRESC.UREAN" OrderNumber="59" Mandatory="No" MethodOID="MT.COMPSTRESC">
          <def:WhereClauseRef WhereClauseOID="WC.LB.LBSTRESC.UREAN"/>
        </ItemRef>
        <ItemRef ItemOID="IT.LB.LBSTRESC.WBC" OrderNumber="60" Mandatory="No" MethodOID="MT.COMPSTRESC">
          <def:WhereClauseRef WhereClauseOID="WC.LB.LBSTRESC.WBC"/>
        </ItemRef>
        <ItemRef ItemOID="IT.LB.LBSTRESC.WBCAGGLU" OrderNumber="61" Mandatory="No" MethodOID="MT.COMPSTRESC">
          <def:WhereClauseRef WhereClauseOID="WC.LB.LBSTRESC.WBCAGGLU"/>
        </ItemRef>
      </def:ValueListDef>
      <def:ValueListDef OID="VL.PC.PCORRES">
        <ItemRef ItemOID="IT.PC.PCORRES.DRUG" OrderNumber="1" Mandatory="No">
          <def:WhereClauseRef WhereClauseOID="WC.PC.PCORRES.DRUG"/>
        </ItemRef>
      </def:ValueListDef>
      <def:ValueListDef OID="VL.PC.PCSTRESC">
        <ItemRef ItemOID="IT.PC.PCSTRESC.DRUG" OrderNumber="1" Mandatory="No" MethodOID="MT.COMPSTRESC">
          <def:WhereClauseRef WhereClauseOID="WC.PC.PCSTRESC.DRUG"/>
        </ItemRef>
      </def:ValueListDef>
      <def:ValueListDef OID="VL.SUPPCL.QVAL">
        <ItemRef ItemOID="IT.SUPPCL.QVAL.CLRESMOD" OrderNumber="1" Mandatory="No">
          <def:WhereClauseRef WhereClauseOID="WC.SUPPCL.QVAL.CLRESMOD"/>
        </ItemRef>
      </def:ValueListDef>
      <def:ValueListDef OID="VL.TS.TSVAL">
        <ItemRef ItemOID="IT.TS.TSVAL.AGETXT" OrderNumber="1" Mandatory="No">
          <def:WhereClauseRef WhereClauseOID="WC.TS.TSVAL.AGETXT"/>
        </ItemRef>
        <ItemRef ItemOID="IT.TS.TSVAL.AGEU" OrderNumber="2" Mandatory="No">
          <def:WhereClauseRef WhereClauseOID="WC.TS.TSVAL.AGEU"/>
        </ItemRef>
        <ItemRef ItemOID="IT.TS.TSVAL.DOSDUR" OrderNumber="3" Mandatory="No">
          <def:WhereClauseRef WhereClauseOID="WC.TS.TSVAL.DOSDUR"/>
        </ItemRef>
        <ItemRef ItemOID="IT.TS.TSVAL.DOSENDTC" OrderNumber="4" Mandatory="No">
          <def:WhereClauseRef WhereClauseOID="WC.TS.TSVAL.DOSENDTC"/>
        </ItemRef>
        <ItemRef ItemOID="IT.TS.TSVAL.DOSSTDTC" OrderNumber="5" Mandatory="No">
          <def:WhereClauseRef WhereClauseOID="WC.TS.TSVAL.DOSSTDTC"/>
        </ItemRef>
        <ItemRef ItemOID="IT.TS.TSVAL.EXPENDTC" OrderNumber="6" Mandatory="No">
          <def:WhereClauseRef WhereClauseOID="WC.TS.TSVAL.EXPENDTC"/>
        </ItemRef>
        <ItemRef ItemOID="IT.TS.TSVAL.EXPSTDTC" OrderNumber="7" Mandatory="No">
          <def:WhereClauseRef WhereClauseOID="WC.TS.TSVAL.EXPSTDTC"/>
        </ItemRef>
        <ItemRef ItemOID="IT.TS.TSVAL.GLPFL" OrderNumber="8" Mandatory="No">
          <def:WhereClauseRef WhereClauseOID="WC.TS.TSVAL.GLPFL"/>
        </ItemRef>
        <ItemRef ItemOID="IT.TS.TSVAL.PCLASS" OrderNumber="9" Mandatory="No">
          <def:WhereClauseRef WhereClauseOID="WC.TS.TSVAL.PCLASS"/>
        </ItemRef>
        <ItemRef ItemOID="IT.TS.TSVAL.ROUTE" OrderNumber="10" Mandatory="No">
          <def:WhereClauseRef WhereClauseOID="WC.TS.TSVAL.ROUTE"/>
        </ItemRef>
        <ItemRef ItemOID="IT.TS.TSVAL.SDESIGN" OrderNumber="11" Mandatory="No">
          <def:WhereClauseRef WhereClauseOID="WC.TS.TSVAL.SDESIGN"/>
        </ItemRef>
        <ItemRef ItemOID="IT.TS.TSVAL.SLENGTH" OrderNumber="12" Mandatory="No">
          <def:WhereClauseRef WhereClauseOID="WC.TS.TSVAL.SLENGTH"/>
        </ItemRef>
        <ItemRef ItemOID="IT.TS.TSVAL.SNDCTVER" OrderNumber="13" Mandatory="No">
          <def:WhereClauseRef WhereClauseOID="WC.TS.TSVAL.SNDCTVER"/>
        </ItemRef>
        <ItemRef ItemOID="IT.TS.TSVAL.SNDIGVER" OrderNumber="14" Mandatory="No">
          <def:WhereClauseRef WhereClauseOID="WC.TS.TSVAL.SNDIGVER"/>
        </ItemRef>
        <ItemRef ItemOID="IT.TS.TSVAL.SPECIES" OrderNumber="15" Mandatory="No">
          <def:WhereClauseRef WhereClauseOID="WC.TS.TSVAL.SPECIES"/>
        </ItemRef>
        <ItemRef ItemOID="IT.TS.TSVAL.SPLANSUB" OrderNumber="16" Mandatory="No">
          <def:WhereClauseRef WhereClauseOID="WC.TS.TSVAL.SPLANSUB"/>
        </ItemRef>
        <ItemRef ItemOID="IT.TS.TSVAL.SPLRNAM" OrderNumber="17" Mandatory="No">
          <def:WhereClauseRef WhereClauseOID="WC.TS.TSVAL.SPLRNAM"/>
        </ItemRef>
        <ItemRef ItemOID="IT.TS.TSVAL.SPREFID" OrderNumber="18" Mandatory="No">
          <def:WhereClauseRef WhereClauseOID="WC.TS.TSVAL.SPREFID"/>
        </ItemRef>
        <ItemRef ItemOID="IT.TS.TSVAL.SRANDOM" OrderNumber="19" Mandatory="No">
          <def:WhereClauseRef WhereClauseOID="WC.TS.TSVAL.SRANDOM"/>
        </ItemRef>
        <ItemRef ItemOID="IT.TS.TSVAL.SSPONSOR" OrderNumber="20" Mandatory="No">
          <def:WhereClauseRef WhereClauseOID="WC.TS.TSVAL.SSPONSOR"/>
        </ItemRef>
        <ItemRef ItemOID="IT.TS.TSVAL.SSTYP" OrderNumber="21" Mandatory="No">
          <def:WhereClauseRef WhereClauseOID="WC.TS.TSVAL.SSTYP"/>
        </ItemRef>
        <ItemRef ItemOID="IT.TS.TSVAL.STCAT" OrderNumber="22" Mandatory="No">
          <def:WhereClauseRef WhereClauseOID="WC.TS.TSVAL.STCAT"/>
        </ItemRef>
        <ItemRef ItemOID="IT.TS.TSVAL.STDIR" OrderNumber="23" Mandatory="No">
          <def:WhereClauseRef WhereClauseOID="WC.TS.TSVAL.STDIR"/>
        </ItemRef>
        <ItemRef ItemOID="IT.TS.TSVAL.STENDTC" OrderNumber="24" Mandatory="No">
          <def:WhereClauseRef WhereClauseOID="WC.TS.TSVAL.STENDTC"/>
        </ItemRef>
        <ItemRef ItemOID="IT.TS.TSVAL.STITLE" OrderNumber="25" Mandatory="No">
          <def:WhereClauseRef WhereClauseOID="WC.TS.TSVAL.STITLE"/>
        </ItemRef>
        <ItemRef ItemOID="IT.TS.TSVAL.STRAIN" OrderNumber="26" Mandatory="No">
          <def:WhereClauseRef WhereClauseOID="WC.TS.TSVAL.STRAIN"/>
        </ItemRef>
        <ItemRef ItemOID="IT.TS.TSVAL.STSTDTC" OrderNumber="27" Mandatory="No">
          <def:WhereClauseRef WhereClauseOID="WC.TS.TSVAL.STSTDTC"/>
        </ItemRef>
        <ItemRef ItemOID="IT.TS.TSVAL.TFCNTRY" OrderNumber="28" Mandatory="No">
          <def:WhereClauseRef WhereClauseOID="WC.TS.TSVAL.TFCNTRY"/>
        </ItemRef>
        <ItemRef ItemOID="IT.TS.TSVAL.TRMSAC" OrderNumber="29" Mandatory="No">
          <def:WhereClauseRef WhereClauseOID="WC.TS.TSVAL.TRMSAC"/>
        </ItemRef>
        <ItemRef ItemOID="IT.TS.TSVAL.TRT" OrderNumber="30" Mandatory="No">
          <def:WhereClauseRef WhereClauseOID="WC.TS.TSVAL.TRT"/>
        </ItemRef>
        <ItemRef ItemOID="IT.TS.TSVAL.TRTCAS" OrderNumber="31" Mandatory="No">
          <def:WhereClauseRef WhereClauseOID="WC.TS.TSVAL.TRTCAS"/>
        </ItemRef>
        <ItemRef ItemOID="IT.TS.TSVAL.TRTUNII" OrderNumber="32" Mandatory="No">
          <def:WhereClauseRef WhereClauseOID="WC.TS.TSVAL.TRTUNII"/>
        </ItemRef>
        <ItemRef ItemOID="IT.TS.TSVAL.TRTV" OrderNumber="33" Mandatory="No">
          <def:WhereClauseRef WhereClauseOID="WC.TS.TSVAL.TRTV"/>
        </ItemRef>
        <ItemRef ItemOID="IT.TS.TSVAL.TSTFLOC" OrderNumber="34" Mandatory="No">
          <def:WhereClauseRef WhereClauseOID="WC.TS.TSVAL.TSTFLOC"/>
        </ItemRef>
        <ItemRef ItemOID="IT.TS.TSVAL.TSTFNAM" OrderNumber="35" Mandatory="No">
          <def:WhereClauseRef WhereClauseOID="WC.TS.TSVAL.TSTFNAM"/>
        </ItemRef>
      </def:ValueListDef>
      <def:ValueListDef OID="VL.TX.TXVAL">
        <ItemRef ItemOID="IT.TX.TXVAL.ARMCD" OrderNumber="1" Mandatory="No">
          <def:WhereClauseRef WhereClauseOID="WC.TX.TXVAL.ARMCD"/>
        </ItemRef>
        <ItemRef ItemOID="IT.TX.TXVAL.GRPLBL" OrderNumber="2" Mandatory="No">
          <def:WhereClauseRef WhereClauseOID="WC.TX.TXVAL.GRPLBL"/>
        </ItemRef>
        <ItemRef ItemOID="IT.TX.TXVAL.SETLBL" OrderNumber="3" Mandatory="No">
          <def:WhereClauseRef WhereClauseOID="WC.TX.TXVAL.SETLBL"/>
        </ItemRef>
        <ItemRef ItemOID="IT.TX.TXVAL.SPGRPCD" OrderNumber="4" Mandatory="No">
          <def:WhereClauseRef WhereClauseOID="WC.TX.TXVAL.SPGRPCD"/>
        </ItemRef>
        <ItemRef ItemOID="IT.TX.TXVAL.SPLANSUB" OrderNumber="5" Mandatory="No">
          <def:WhereClauseRef WhereClauseOID="WC.TX.TXVAL.SPLANSUB"/>
        </ItemRef>
        <ItemRef ItemOID="IT.TX.TXVAL.TRTDOS" OrderNumber="6" Mandatory="No">
          <def:WhereClauseRef WhereClauseOID="WC.TX.TXVAL.TRTDOS"/>
        </ItemRef>
        <ItemRef ItemOID="IT.TX.TXVAL.TRTDOSU" OrderNumber="7" Mandatory="No">
          <def:WhereClauseRef WhereClauseOID="WC.TX.TXVAL.TRTDOSU"/>
        </ItemRef>
      </def:ValueListDef>
      <def:ValueListDef OID="VL.VS.VSORRES">
        <ItemRef ItemOID="IT.VS.VSORRES.TEMP1" OrderNumber="1" Mandatory="No">
          <def:WhereClauseRef WhereClauseOID="WC.VS.VSORRES.TEMP1"/>
        </ItemRef>
        <ItemRef ItemOID="IT.VS.VSORRES.TEMP2" OrderNumber="2" Mandatory="No">
          <def:WhereClauseRef WhereClauseOID="WC.VS.VSORRES.TEMP2"/>
        </ItemRef>
      </def:ValueListDef>
      <def:ValueListDef OID="VL.VS.VSSTRESC">
        <ItemRef ItemOID="IT.VS.VSSTRESC.TEMP1" OrderNumber="1" Mandatory="No" MethodOID="MT.COMPSTRESC">
          <def:WhereClauseRef WhereClauseOID="WC.VS.VSSTRESC.TEMP1"/>
        </ItemRef>
        <ItemRef ItemOID="IT.VS.VSSTRESC.TEMP2" OrderNumber="2" Mandatory="No" MethodOID="MT.COMPSTRESC">
          <def:WhereClauseRef WhereClauseOID="WC.VS.VSSTRESC.TEMP2"/>
        </ItemRef>
      </def:ValueListDef>
      <def:WhereClauseDef OID="WC.BW.BWORRES.BW">
        <RangeCheck SoftHard="Soft" def:ItemOID="IT.BW.BWTESTCD" Comparator="EQ">
          <CheckValue>BW</CheckValue>
        </RangeCheck>
      </def:WhereClauseDef>
      <def:WhereClauseDef OID="WC.BW.BWSTRESC.BW">
        <RangeCheck SoftHard="Soft" def:ItemOID="IT.BW.BWTESTCD" Comparator="EQ">
          <CheckValue>BW</CheckValue>
        </RangeCheck>
      </def:WhereClauseDef>
      <def:WhereClauseDef OID="WC.CL.CLORRES.DTCL1">
        <RangeCheck SoftHard="Soft" def:ItemOID="IT.CL.CLTESTCD" Comparator="EQ">
          <CheckValue>DTCL</CheckValue>
        </RangeCheck>
        <RangeCheck SoftHard="Soft" def:ItemOID="IT.CL.CLCAT" Comparator="EQ">
          <CheckValue>CLINICAL SIGNS</CheckValue>
        </RangeCheck>
        <RangeCheck SoftHard="Soft" def:ItemOID="IT.CL.CLSCAT" Comparator="EQ">
          <CheckValue>Routine</CheckValue>
        </RangeCheck>
      </def:WhereClauseDef>
      <def:WhereClauseDef OID="WC.CL.CLORRES.DTCL2">
        <RangeCheck SoftHard="Soft" def:ItemOID="IT.CL.CLTESTCD" Comparator="EQ">
          <CheckValue>DTCL</CheckValue>
        </RangeCheck>
        <RangeCheck SoftHard="Soft" def:ItemOID="IT.CL.CLCAT" Comparator="EQ">
          <CheckValue>CLINICAL SIGNS</CheckValue>
        </RangeCheck>
        <RangeCheck SoftHard="Soft" def:ItemOID="IT.CL.CLSCAT" Comparator="EQ">
          <CheckValue>Unscheduled</CheckValue>
        </RangeCheck>
      </def:WhereClauseDef>
      <def:WhereClauseDef OID="WC.CL.CLORRES.VET">
        <RangeCheck SoftHard="Soft" def:ItemOID="IT.CL.CLTESTCD" Comparator="EQ">
          <CheckValue>VET</CheckValue>
        </RangeCheck>
        <RangeCheck SoftHard="Soft" def:ItemOID="IT.CL.CLCAT" Comparator="EQ">
          <CheckValue>PHYSICAL EXAM</CheckValue>
        </RangeCheck>
        <RangeCheck SoftHard="Soft" def:ItemOID="IT.CL.CLSCAT" Comparator="EQ">
          <CheckValue>Veterinary</CheckValue>
        </RangeCheck>
      </def:WhereClauseDef>
      <def:WhereClauseDef OID="WC.CL.CLSTRESC.DTCL1">
        <RangeCheck SoftHard="Soft" def:ItemOID="IT.CL.CLTESTCD" Comparator="EQ">
          <CheckValue>DTCL</CheckValue>
        </RangeCheck>
        <RangeCheck SoftHard="Soft" def:ItemOID="IT.CL.CLCAT" Comparator="EQ">
          <CheckValue>CLINICAL SIGNS</CheckValue>
        </RangeCheck>
        <RangeCheck SoftHard="Soft" def:ItemOID="IT.CL.CLSCAT" Comparator="EQ">
          <CheckValue>Routine</CheckValue>
        </RangeCheck>
      </def:WhereClauseDef>
      <def:WhereClauseDef OID="WC.CL.CLSTRESC.DTCL2">
        <RangeCheck SoftHard="Soft" def:ItemOID="IT.CL.CLTESTCD" Comparator="EQ">
          <CheckValue>DTCL</CheckValue>
        </RangeCheck>
        <RangeCheck SoftHard="Soft" def:ItemOID="IT.CL.CLCAT" Comparator="EQ">
          <CheckValue>CLINICAL SIGNS</CheckValue>
        </RangeCheck>
        <RangeCheck SoftHard="Soft" def:ItemOID="IT.CL.CLSCAT" Comparator="EQ">
          <CheckValue>Unscheduled</CheckValue>
        </RangeCheck>
      </def:WhereClauseDef>
      <def:WhereClauseDef OID="WC.CL.CLSTRESC.VET">
        <RangeCheck SoftHard="Soft" def:ItemOID="IT.CL.CLTESTCD" Comparator="EQ">
          <CheckValue>VET</CheckValue>
        </RangeCheck>
        <RangeCheck SoftHard="Soft" def:ItemOID="IT.CL.CLCAT" Comparator="EQ">
          <CheckValue>PHYSICAL EXAM</CheckValue>
        </RangeCheck>
        <RangeCheck SoftHard="Soft" def:ItemOID="IT.CL.CLSCAT" Comparator="EQ">
          <CheckValue>Veterinary</CheckValue>
        </RangeCheck>
      </def:WhereClauseDef>
      <def:WhereClauseDef OID="WC.CV.CVORRES.DIABP">
        <RangeCheck SoftHard="Soft" def:ItemOID="IT.CV.CVTESTCD" Comparator="EQ">
          <CheckValue>DIABP</CheckValue>
        </RangeCheck>
        <RangeCheck SoftHard="Soft" def:ItemOID="IT.CV.CVMETHOD" Comparator="EQ">
          <CheckValue>CONTINUOUS ECG RECORDING FOR NON-HUMAN SPECIES USING IMPLANTED LEADS</CheckValue>
        </RangeCheck>
      </def:WhereClauseDef>
      <def:WhereClauseDef OID="WC.CV.CVORRES.HR">
        <RangeCheck SoftHard="Soft" def:ItemOID="IT.CV.CVTESTCD" Comparator="EQ">
          <CheckValue>HR</CheckValue>
        </RangeCheck>
        <RangeCheck SoftHard="Soft" def:ItemOID="IT.CV.CVMETHOD" Comparator="EQ">
          <CheckValue>CONTINUOUS ECG RECORDING FOR NON-HUMAN SPECIES USING IMPLANTED LEADS</CheckValue>
        </RangeCheck>
      </def:WhereClauseDef>
      <def:WhereClauseDef OID="WC.CV.CVORRES.MAP">
        <RangeCheck SoftHard="Soft" def:ItemOID="IT.CV.CVTESTCD" Comparator="EQ">
          <CheckValue>MAP</CheckValue>
        </RangeCheck>
        <RangeCheck SoftHard="Soft" def:ItemOID="IT.CV.CVMETHOD" Comparator="EQ">
          <CheckValue>CONTINUOUS ECG RECORDING FOR NON-HUMAN SPECIES USING IMPLANTED LEADS</CheckValue>
        </RangeCheck>
      </def:WhereClauseDef>
      <def:WhereClauseDef OID="WC.CV.CVORRES.SYSBP">
        <RangeCheck SoftHard="Soft" def:ItemOID="IT.CV.CVTESTCD" Comparator="EQ">
          <CheckValue>SYSBP</CheckValue>
        </RangeCheck>
        <RangeCheck SoftHard="Soft" def:ItemOID="IT.CV.CVMETHOD" Comparator="EQ">
          <CheckValue>CONTINUOUS ECG RECORDING FOR NON-HUMAN SPECIES USING IMPLANTED LEADS</CheckValue>
        </RangeCheck>
      </def:WhereClauseDef>
      <def:WhereClauseDef OID="WC.CV.CVSTRESC.DIABP">
        <RangeCheck SoftHard="Soft" def:ItemOID="IT.CV.CVTESTCD" Comparator="EQ">
          <CheckValue>DIABP</CheckValue>
        </RangeCheck>
        <RangeCheck SoftHard="Soft" def:ItemOID="IT.CV.CVMETHOD" Comparator="EQ">
          <CheckValue>CONTINUOUS ECG RECORDING FOR NON-HUMAN SPECIES USING IMPLANTED LEADS</CheckValue>
        </RangeCheck>
      </def:WhereClauseDef>
      <def:WhereClauseDef OID="WC.CV.CVSTRESC.HR">
        <RangeCheck SoftHard="Soft" def:ItemOID="IT.CV.CVTESTCD" Comparator="EQ">
          <CheckValue>HR</CheckValue>
        </RangeCheck>
        <RangeCheck SoftHard="Soft" def:ItemOID="IT.CV.CVMETHOD" Comparator="EQ">
          <CheckValue>CONTINUOUS ECG RECORDING FOR NON-HUMAN SPECIES USING IMPLANTED LEADS</CheckValue>
        </RangeCheck>
      </def:WhereClauseDef>
      <def:WhereClauseDef OID="WC.CV.CVSTRESC.MAP">
        <RangeCheck SoftHard="Soft" def:ItemOID="IT.CV.CVTESTCD" Comparator="EQ">
          <CheckValue>MAP</CheckValue>
        </RangeCheck>
        <RangeCheck SoftHard="Soft" def:ItemOID="IT.CV.CVMETHOD" Comparator="EQ">
          <CheckValue>CONTINUOUS ECG RECORDING FOR NON-HUMAN SPECIES USING IMPLANTED LEADS</CheckValue>
        </RangeCheck>
      </def:WhereClauseDef>
      <def:WhereClauseDef OID="WC.CV.CVSTRESC.SYSBP">
        <RangeCheck SoftHard="Soft" def:ItemOID="IT.CV.CVTESTCD" Comparator="EQ">
          <CheckValue>SYSBP</CheckValue>
        </RangeCheck>
        <RangeCheck SoftHard="Soft" def:ItemOID="IT.CV.CVMETHOD" Comparator="EQ">
          <CheckValue>CONTINUOUS ECG RECORDING FOR NON-HUMAN SPECIES USING IMPLANTED LEADS</CheckValue>
        </RangeCheck>
      </def:WhereClauseDef>
      <def:WhereClauseDef OID="WC.EG.EGORRES.PRAG">
        <RangeCheck SoftHard="Soft" def:ItemOID="IT.EG.EGTESTCD" Comparator="EQ">
          <CheckValue>PRAG</CheckValue>
        </RangeCheck>
        <RangeCheck SoftHard="Soft" def:ItemOID="IT.EG.EGCAT" Comparator="EQ">
          <CheckValue>MEASUREMENT</CheckValue>
        </RangeCheck>
        <RangeCheck SoftHard="Soft" def:ItemOID="IT.EG.EGMETHOD" Comparator="EQ">
          <CheckValue>CONTINUOUS ECG RECORDING FOR NON-HUMAN SPECIES USING IMPLANTED LEADS</CheckValue>
        </RangeCheck>
      </def:WhereClauseDef>
      <def:WhereClauseDef OID="WC.EG.EGORRES.QRSAG">
        <RangeCheck SoftHard="Soft" def:ItemOID="IT.EG.EGTESTCD" Comparator="EQ">
          <CheckValue>QRSAG</CheckValue>
        </RangeCheck>
        <RangeCheck SoftHard="Soft" def:ItemOID="IT.EG.EGCAT" Comparator="EQ">
          <CheckValue>MEASUREMENT</CheckValue>
        </RangeCheck>
        <RangeCheck SoftHard="Soft" def:ItemOID="IT.EG.EGMETHOD" Comparator="EQ">
          <CheckValue>CONTINUOUS ECG RECORDING FOR NON-HUMAN SPECIES USING IMPLANTED LEADS</CheckValue>
        </RangeCheck>
      </def:WhereClauseDef>
      <def:WhereClauseDef OID="WC.EG.EGORRES.QTAG">
        <RangeCheck SoftHard="Soft" def:ItemOID="IT.EG.EGTESTCD" Comparator="EQ">
          <CheckValue>QTAG</CheckValue>
        </RangeCheck>
        <RangeCheck SoftHard="Soft" def:ItemOID="IT.EG.EGCAT" Comparator="EQ">
          <CheckValue>MEASUREMENT</CheckValue>
        </RangeCheck>
        <RangeCheck SoftHard="Soft" def:ItemOID="IT.EG.EGMETHOD" Comparator="EQ">
          <CheckValue>CONTINUOUS ECG RECORDING FOR NON-HUMAN SPECIES USING IMPLANTED LEADS</CheckValue>
        </RangeCheck>
      </def:WhereClauseDef>
      <def:WhereClauseDef OID="WC.EG.EGORRES.QTCSAG">
        <RangeCheck SoftHard="Soft" def:ItemOID="IT.EG.EGTESTCD" Comparator="EQ">
          <CheckValue>QTCSAG</CheckValue>
        </RangeCheck>
        <RangeCheck SoftHard="Soft" def:ItemOID="IT.EG.EGCAT" Comparator="EQ">
          <CheckValue>MEASUREMENT</CheckValue>
        </RangeCheck>
        <RangeCheck SoftHard="Soft" def:ItemOID="IT.EG.EGMETHOD" Comparator="EQ">
          <CheckValue>CONTINUOUS ECG RECORDING FOR NON-HUMAN SPECIES USING IMPLANTED LEADS</CheckValue>
        </RangeCheck>
      </def:WhereClauseDef>
      <def:WhereClauseDef OID="WC.EG.EGORRES.RRAG">
        <RangeCheck SoftHard="Soft" def:ItemOID="IT.EG.EGTESTCD" Comparator="EQ">
          <CheckValue>RRAG</CheckValue>
        </RangeCheck>
        <RangeCheck SoftHard="Soft" def:ItemOID="IT.EG.EGCAT" Comparator="EQ">
          <CheckValue>MEASUREMENT</CheckValue>
        </RangeCheck>
        <RangeCheck SoftHard="Soft" def:ItemOID="IT.EG.EGMETHOD" Comparator="EQ">
          <CheckValue>CONTINUOUS ECG RECORDING FOR NON-HUMAN SPECIES USING IMPLANTED LEADS</CheckValue>
        </RangeCheck>
      </def:WhereClauseDef>
      <def:WhereClauseDef OID="WC.EG.EGSTRESC.PRAG">
        <RangeCheck SoftHard="Soft" def:ItemOID="IT.EG.EGTESTCD" Comparator="EQ">
          <CheckValue>PRAG</CheckValue>
        </RangeCheck>
        <RangeCheck SoftHard="Soft" def:ItemOID="IT.EG.EGCAT" Comparator="EQ">
          <CheckValue>MEASUREMENT</CheckValue>
        </RangeCheck>
        <RangeCheck SoftHard="Soft" def:ItemOID="IT.EG.EGMETHOD" Comparator="EQ">
          <CheckValue>CONTINUOUS ECG RECORDING FOR NON-HUMAN SPECIES USING IMPLANTED LEADS</CheckValue>
        </RangeCheck>
      </def:WhereClauseDef>
      <def:WhereClauseDef OID="WC.EG.EGSTRESC.QRSAG">
        <RangeCheck SoftHard="Soft" def:ItemOID="IT.EG.EGTESTCD" Comparator="EQ">
          <CheckValue>QRSAG</CheckValue>
        </RangeCheck>
        <RangeCheck SoftHard="Soft" def:ItemOID="IT.EG.EGCAT" Comparator="EQ">
          <CheckValue>MEASUREMENT</CheckValue>
        </RangeCheck>
        <RangeCheck SoftHard="Soft" def:ItemOID="IT.EG.EGMETHOD" Comparator="EQ">
          <CheckValue>CONTINUOUS ECG RECORDING FOR NON-HUMAN SPECIES USING IMPLANTED LEADS</CheckValue>
        </RangeCheck>
      </def:WhereClauseDef>
      <def:WhereClauseDef OID="WC.EG.EGSTRESC.QTAG">
        <RangeCheck SoftHard="Soft" def:ItemOID="IT.EG.EGTESTCD" Comparator="EQ">
          <CheckValue>QTAG</CheckValue>
        </RangeCheck>
        <RangeCheck SoftHard="Soft" def:ItemOID="IT.EG.EGCAT" Comparator="EQ">
          <CheckValue>MEASUREMENT</CheckValue>
        </RangeCheck>
        <RangeCheck SoftHard="Soft" def:ItemOID="IT.EG.EGMETHOD" Comparator="EQ">
          <CheckValue>CONTINUOUS ECG RECORDING FOR NON-HUMAN SPECIES USING IMPLANTED LEADS</CheckValue>
        </RangeCheck>
      </def:WhereClauseDef>
      <def:WhereClauseDef OID="WC.EG.EGSTRESC.QTCSAG">
        <RangeCheck SoftHard="Soft" def:ItemOID="IT.EG.EGTESTCD" Comparator="EQ">
          <CheckValue>QTCSAG</CheckValue>
        </RangeCheck>
        <RangeCheck SoftHard="Soft" def:ItemOID="IT.EG.EGCAT" Comparator="EQ">
          <CheckValue>MEASUREMENT</CheckValue>
        </RangeCheck>
        <RangeCheck SoftHard="Soft" def:ItemOID="IT.EG.EGMETHOD" Comparator="EQ">
          <CheckValue>CONTINUOUS ECG RECORDING FOR NON-HUMAN SPECIES USING IMPLANTED LEADS</CheckValue>
        </RangeCheck>
      </def:WhereClauseDef>
      <def:WhereClauseDef OID="WC.EG.EGSTRESC.RRAG">
        <RangeCheck SoftHard="Soft" def:ItemOID="IT.EG.EGTESTCD" Comparator="EQ">
          <CheckValue>RRAG</CheckValue>
        </RangeCheck>
        <RangeCheck SoftHard="Soft" def:ItemOID="IT.EG.EGCAT" Comparator="EQ">
          <CheckValue>MEASUREMENT</CheckValue>
        </RangeCheck>
        <RangeCheck SoftHard="Soft" def:ItemOID="IT.EG.EGMETHOD" Comparator="EQ">
          <CheckValue>CONTINUOUS ECG RECORDING FOR NON-HUMAN SPECIES USING IMPLANTED LEADS</CheckValue>
        </RangeCheck>
      </def:WhereClauseDef>
      <def:WhereClauseDef OID="WC.LB.LBORRES.ACANT">
        <RangeCheck SoftHard="Soft" def:ItemOID="IT.LB.LBTESTCD" Comparator="EQ">
          <CheckValue>ACANT</CheckValue>
        </RangeCheck>
        <RangeCheck SoftHard="Soft" def:ItemOID="IT.LB.LBCAT" Comparator="EQ">
          <CheckValue>BLOOD CELL MORPHOLOGY</CheckValue>
        </RangeCheck>
        <RangeCheck SoftHard="Soft" def:ItemOID="IT.LB.LBSCAT" Comparator="EQ">
          <CheckValue> </CheckValue>
        </RangeCheck>
        <RangeCheck SoftHard="Soft" def:ItemOID="IT.LB.LBSPEC" Comparator="EQ">
          <CheckValue>WHOLE BLOOD</CheckValue>
        </RangeCheck>
        <RangeCheck SoftHard="Soft" def:ItemOID="IT.LB.LBMETHOD" Comparator="EQ">
          <CheckValue>WRIGHT-GIEMSA STAIN</CheckValue>
        </RangeCheck>
        <RangeCheck SoftHard="Soft" def:ItemOID="IT.LB.LBFAST" Comparator="EQ">
          <CheckValue>Y</CheckValue>
        </RangeCheck>
      </def:WhereClauseDef>
      <def:WhereClauseDef OID="WC.LB.LBORRES.ALBGLOB">
        <RangeCheck SoftHard="Soft" def:ItemOID="IT.LB.LBTESTCD" Comparator="EQ">
          <CheckValue>ALBGLOB</CheckValue>
        </RangeCheck>
        <RangeCheck SoftHard="Soft" def:ItemOID="IT.LB.LBCAT" Comparator="EQ">
          <CheckValue>CLINICAL CHEMISTRY</CheckValue>
        </RangeCheck>
        <RangeCheck SoftHard="Soft" def:ItemOID="IT.LB.LBSCAT" Comparator="EQ">
          <CheckValue> </CheckValue>
        </RangeCheck>
        <RangeCheck SoftHard="Soft" def:ItemOID="IT.LB.LBSPEC" Comparator="EQ">
          <CheckValue>SERUM</CheckValue>
        </RangeCheck>
        <RangeCheck SoftHard="Soft" def:ItemOID="IT.LB.LBMETHOD" Comparator="EQ">
          <CheckValue>CALCULATION</CheckValue>
        </RangeCheck>
        <RangeCheck SoftHard="Soft" def:ItemOID="IT.LB.LBFAST" Comparator="EQ">
          <CheckValue>Y</CheckValue>
        </RangeCheck>
      </def:WhereClauseDef>
      <def:WhereClauseDef OID="WC.LB.LBORRES.ALT">
        <RangeCheck SoftHard="Soft" def:ItemOID="IT.LB.LBTESTCD" Comparator="EQ">
          <CheckValue>ALT</CheckValue>
        </RangeCheck>
        <RangeCheck SoftHard="Soft" def:ItemOID="IT.LB.LBCAT" Comparator="EQ">
          <CheckValue>CLINICAL CHEMISTRY</CheckValue>
        </RangeCheck>
        <RangeCheck SoftHard="Soft" def:ItemOID="IT.LB.LBSCAT" Comparator="EQ">
          <CheckValue> </CheckValue>
        </RangeCheck>
        <RangeCheck SoftHard="Soft" def:ItemOID="IT.LB.LBSPEC" Comparator="EQ">
          <CheckValue>SERUM</CheckValue>
        </RangeCheck>
        <RangeCheck SoftHard="Soft" def:ItemOID="IT.LB.LBMETHOD" Comparator="EQ">
          <CheckValue>ENZYMATIC COLORIMETRY</CheckValue>
        </RangeCheck>
        <RangeCheck SoftHard="Soft" def:ItemOID="IT.LB.LBFAST" Comparator="EQ">
          <CheckValue>Y</CheckValue>
        </RangeCheck>
      </def:WhereClauseDef>
      <def:WhereClauseDef OID="WC.LB.LBORRES.BASO1">
        <RangeCheck SoftHard="Soft" def:ItemOID="IT.LB.LBTESTCD" Comparator="EQ">
          <CheckValue>BASO</CheckValue>
        </RangeCheck>
        <RangeCheck SoftHard="Soft" def:ItemOID="IT.LB.LBCAT" Comparator="EQ">
          <CheckValue>HEMATOLOGY</CheckValue>
        </RangeCheck>
        <RangeCheck SoftHard="Soft" def:ItemOID="IT.LB.LBSCAT" Comparator="EQ">
          <CheckValue> </CheckValue>
        </RangeCheck>
        <RangeCheck SoftHard="Soft" def:ItemOID="IT.LB.LBSPEC" Comparator="EQ">
          <CheckValue>WHOLE BLOOD</CheckValue>
        </RangeCheck>
        <RangeCheck SoftHard="Soft" def:ItemOID="IT.LB.LBMETHOD" Comparator="EQ">
          <CheckValue>CALCULATION</CheckValue>
        </RangeCheck>
        <RangeCheck SoftHard="Soft" def:ItemOID="IT.LB.LBFAST" Comparator="EQ">
          <CheckValue>Y</CheckValue>
        </RangeCheck>
      </def:WhereClauseDef>
      <def:WhereClauseDef OID="WC.LB.LBORRES.BASO2">
        <RangeCheck SoftHard="Soft" def:ItemOID="IT.LB.LBTESTCD" Comparator="EQ">
          <CheckValue>BASO</CheckValue>
        </RangeCheck>
        <RangeCheck SoftHard="Soft" def:ItemOID="IT.LB.LBCAT" Comparator="EQ">
          <CheckValue>HEMATOLOGY</CheckValue>
        </RangeCheck>
        <RangeCheck SoftHard="Soft" def:ItemOID="IT.LB.LBSCAT" Comparator="EQ">
          <CheckValue>Differential</CheckValue>
        </RangeCheck>
        <RangeCheck SoftHard="Soft" def:ItemOID="IT.LB.LBSPEC" Comparator="EQ">
          <CheckValue>WHOLE BLOOD</CheckValue>
        </RangeCheck>
        <RangeCheck SoftHard="Soft" def:ItemOID="IT.LB.LBMETHOD" Comparator="EQ">
          <CheckValue>CALCULATION</CheckValue>
        </RangeCheck>
        <RangeCheck SoftHard="Soft" def:ItemOID="IT.LB.LBFAST" Comparator="EQ">
          <CheckValue>Y</CheckValue>
        </RangeCheck>
      </def:WhereClauseDef>
      <def:WhereClauseDef OID="WC.LB.LBORRES.CELLULAR">
        <RangeCheck SoftHard="Soft" def:ItemOID="IT.LB.LBTESTCD" Comparator="EQ">
          <CheckValue>CELLULAR</CheckValue>
        </RangeCheck>
        <RangeCheck SoftHard="Soft" def:ItemOID="IT.LB.LBCAT" Comparator="EQ">
          <CheckValue>BLOOD CELL MORPHOLOGY</CheckValue>
        </RangeCheck>
        <RangeCheck SoftHard="Soft" def:ItemOID="IT.LB.LBSCAT" Comparator="EQ">
          <CheckValue> </CheckValue>
        </RangeCheck>
        <RangeCheck SoftHard="Soft" def:ItemOID="IT.LB.LBSPEC" Comparator="EQ">
          <CheckValue>WHOLE BLOOD</CheckValue>
        </RangeCheck>
        <RangeCheck SoftHard="Soft" def:ItemOID="IT.LB.LBMETHOD" Comparator="EQ">
          <CheckValue>WRIGHT-GIEMSA STAIN</CheckValue>
        </RangeCheck>
        <RangeCheck SoftHard="Soft" def:ItemOID="IT.LB.LBFAST" Comparator="EQ">
          <CheckValue>Y</CheckValue>
        </RangeCheck>
      </def:WhereClauseDef>
      <def:WhereClauseDef OID="WC.LB.LBORRES.CL">
        <RangeCheck SoftHard="Soft" def:ItemOID="IT.LB.LBTESTCD" Comparator="EQ">
          <CheckValue>CL</CheckValue>
        </RangeCheck>
        <RangeCheck SoftHard="Soft" def:ItemOID="IT.LB.LBCAT" Comparator="EQ">
          <CheckValue>CLINICAL CHEMISTRY</CheckValue>
        </RangeCheck>
        <RangeCheck SoftHard="Soft" def:ItemOID="IT.LB.LBSCAT" Comparator="EQ">
          <CheckValue> </CheckValue>
        </RangeCheck>
        <RangeCheck SoftHard="Soft" def:ItemOID="IT.LB.LBSPEC" Comparator="EQ">
          <CheckValue>SERUM</CheckValue>
        </RangeCheck>
        <RangeCheck SoftHard="Soft" def:ItemOID="IT.LB.LBMETHOD" Comparator="EQ">
          <CheckValue>ION SELECTIVE ELECTRODE</CheckValue>
        </RangeCheck>
        <RangeCheck SoftHard="Soft" def:ItemOID="IT.LB.LBFAST" Comparator="EQ">
          <CheckValue>Y</CheckValue>
        </RangeCheck>
      </def:WhereClauseDef>
      <def:WhereClauseDef OID="WC.LB.LBORRES.CREAT">
        <RangeCheck SoftHard="Soft" def:ItemOID="IT.LB.LBTESTCD" Comparator="EQ">
          <CheckValue>CREAT</CheckValue>
        </RangeCheck>
        <RangeCheck SoftHard="Soft" def:ItemOID="IT.LB.LBCAT" Comparator="EQ">
          <CheckValue>CLINICAL CHEMISTRY</CheckValue>
        </RangeCheck>
        <RangeCheck SoftHard="Soft" def:ItemOID="IT.LB.LBSCAT" Comparator="EQ">
          <CheckValue> </CheckValue>
        </RangeCheck>
        <RangeCheck SoftHard="Soft" def:ItemOID="IT.LB.LBSPEC" Comparator="EQ">
          <CheckValue>SERUM</CheckValue>
        </RangeCheck>
        <RangeCheck SoftHard="Soft" def:ItemOID="IT.LB.LBMETHOD" Comparator="EQ">
          <CheckValue>JAFFE REACTION</CheckValue>
        </RangeCheck>
        <RangeCheck SoftHard="Soft" def:ItemOID="IT.LB.LBFAST" Comparator="EQ">
          <CheckValue>Y</CheckValue>
        </RangeCheck>
      </def:WhereClauseDef>
      <def:WhereClauseDef OID="WC.LB.LBORRES.CRENCE">
        <RangeCheck SoftHard="Soft" def:ItemOID="IT.LB.LBTESTCD" Comparator="EQ">
          <CheckValue>CRENCE</CheckValue>
        </RangeCheck>
        <RangeCheck SoftHard="Soft" def:ItemOID="IT.LB.LBCAT" Comparator="EQ">
          <CheckValue>BLOOD CELL MORPHOLOGY</CheckValue>
        </RangeCheck>
        <RangeCheck SoftHard="Soft" def:ItemOID="IT.LB.LBSCAT" Comparator="EQ">
          <CheckValue> </CheckValue>
        </RangeCheck>
        <RangeCheck SoftHard="Soft" def:ItemOID="IT.LB.LBSPEC" Comparator="EQ">
          <CheckValue>WHOLE BLOOD</CheckValue>
        </RangeCheck>
        <RangeCheck SoftHard="Soft" def:ItemOID="IT.LB.LBMETHOD" Comparator="EQ">
          <CheckValue>WRIGHT-GIEMSA STAIN</CheckValue>
        </RangeCheck>
        <RangeCheck SoftHard="Soft" def:ItemOID="IT.LB.LBFAST" Comparator="EQ">
          <CheckValue>Y</CheckValue>
        </RangeCheck>
      </def:WhereClauseDef>
      <def:WhereClauseDef OID="WC.LB.LBORRES.ECCENTCY">
        <RangeCheck SoftHard="Soft" def:ItemOID="IT.LB.LBTESTCD" Comparator="EQ">
          <CheckValue>ECCENTCY</CheckValue>
        </RangeCheck>
        <RangeCheck SoftHard="Soft" def:ItemOID="IT.LB.LBCAT" Comparator="EQ">
          <CheckValue>BLOOD CELL MORPHOLOGY</CheckValue>
        </RangeCheck>
        <RangeCheck SoftHard="Soft" def:ItemOID="IT.LB.LBSCAT" Comparator="EQ">
          <CheckValue> </CheckValue>
        </RangeCheck>
        <RangeCheck SoftHard="Soft" def:ItemOID="IT.LB.LBSPEC" Comparator="EQ">
          <CheckValue>WHOLE BLOOD</CheckValue>
        </RangeCheck>
        <RangeCheck SoftHard="Soft" def:ItemOID="IT.LB.LBMETHOD" Comparator="EQ">
          <CheckValue>WRIGHT-GIEMSA STAIN</CheckValue>
        </RangeCheck>
        <RangeCheck SoftHard="Soft" def:ItemOID="IT.LB.LBFAST" Comparator="EQ">
          <CheckValue>Y</CheckValue>
        </RangeCheck>
      </def:WhereClauseDef>
      <def:WhereClauseDef OID="WC.LB.LBORRES.EOS1">
        <RangeCheck SoftHard="Soft" def:ItemOID="IT.LB.LBTESTCD" Comparator="EQ">
          <CheckValue>EOS</CheckValue>
        </RangeCheck>
        <RangeCheck SoftHard="Soft" def:ItemOID="IT.LB.LBCAT" Comparator="EQ">
          <CheckValue>HEMATOLOGY</CheckValue>
        </RangeCheck>
        <RangeCheck SoftHard="Soft" def:ItemOID="IT.LB.LBSCAT" Comparator="EQ">
          <CheckValue> </CheckValue>
        </RangeCheck>
        <RangeCheck SoftHard="Soft" def:ItemOID="IT.LB.LBSPEC" Comparator="EQ">
          <CheckValue>WHOLE BLOOD</CheckValue>
        </RangeCheck>
        <RangeCheck SoftHard="Soft" def:ItemOID="IT.LB.LBMETHOD" Comparator="EQ">
          <CheckValue>CALCULATION</CheckValue>
        </RangeCheck>
        <RangeCheck SoftHard="Soft" def:ItemOID="IT.LB.LBFAST" Comparator="EQ">
          <CheckValue>Y</CheckValue>
        </RangeCheck>
      </def:WhereClauseDef>
      <def:WhereClauseDef OID="WC.LB.LBORRES.EOS2">
        <RangeCheck SoftHard="Soft" def:ItemOID="IT.LB.LBTESTCD" Comparator="EQ">
          <CheckValue>EOS</CheckValue>
        </RangeCheck>
        <RangeCheck SoftHard="Soft" def:ItemOID="IT.LB.LBCAT" Comparator="EQ">
          <CheckValue>HEMATOLOGY</CheckValue>
        </RangeCheck>
        <RangeCheck SoftHard="Soft" def:ItemOID="IT.LB.LBSCAT" Comparator="EQ">
          <CheckValue>Differential</CheckValue>
        </RangeCheck>
        <RangeCheck SoftHard="Soft" def:ItemOID="IT.LB.LBSPEC" Comparator="EQ">
          <CheckValue>WHOLE BLOOD</CheckValue>
        </RangeCheck>
        <RangeCheck SoftHard="Soft" def:ItemOID="IT.LB.LBMETHOD" Comparator="EQ">
          <CheckValue>CALCULATION</CheckValue>
        </RangeCheck>
        <RangeCheck SoftHard="Soft" def:ItemOID="IT.LB.LBFAST" Comparator="EQ">
          <CheckValue>Y</CheckValue>
        </RangeCheck>
      </def:WhereClauseDef>
      <def:WhereClauseDef OID="WC.LB.LBORRES.GLOBUL">
        <RangeCheck SoftHard="Soft" def:ItemOID="IT.LB.LBTESTCD" Comparator="EQ">
          <CheckValue>GLOBUL</CheckValue>
        </RangeCheck>
        <RangeCheck SoftHard="Soft" def:ItemOID="IT.LB.LBCAT" Comparator="EQ">
          <CheckValue>CLINICAL CHEMISTRY</CheckValue>
        </RangeCheck>
        <RangeCheck SoftHard="Soft" def:ItemOID="IT.LB.LBSCAT" Comparator="EQ">
          <CheckValue> </CheckValue>
        </RangeCheck>
        <RangeCheck SoftHard="Soft" def:ItemOID="IT.LB.LBSPEC" Comparator="EQ">
          <CheckValue>SERUM</CheckValue>
        </RangeCheck>
        <RangeCheck SoftHard="Soft" def:ItemOID="IT.LB.LBMETHOD" Comparator="EQ">
          <CheckValue>CALCULATION</CheckValue>
        </RangeCheck>
        <RangeCheck SoftHard="Soft" def:ItemOID="IT.LB.LBFAST" Comparator="EQ">
          <CheckValue>Y</CheckValue>
        </RangeCheck>
      </def:WhereClauseDef>
      <def:WhereClauseDef OID="WC.LB.LBORRES.GLUC">
        <RangeCheck SoftHard="Soft" def:ItemOID="IT.LB.LBTESTCD" Comparator="EQ">
          <CheckValue>GLUC</CheckValue>
        </RangeCheck>
        <RangeCheck SoftHard="Soft" def:ItemOID="IT.LB.LBCAT" Comparator="EQ">
          <CheckValue>CLINICAL CHEMISTRY</CheckValue>
        </RangeCheck>
        <RangeCheck SoftHard="Soft" def:ItemOID="IT.LB.LBSCAT" Comparator="EQ">
          <CheckValue> </CheckValue>
        </RangeCheck>
        <RangeCheck SoftHard="Soft" def:ItemOID="IT.LB.LBSPEC" Comparator="EQ">
          <CheckValue>SERUM</CheckValue>
        </RangeCheck>
        <RangeCheck SoftHard="Soft" def:ItemOID="IT.LB.LBMETHOD" Comparator="EQ">
          <CheckValue>ENZYMATIC COLORIMETRY</CheckValue>
        </RangeCheck>
        <RangeCheck SoftHard="Soft" def:ItemOID="IT.LB.LBFAST" Comparator="EQ">
          <CheckValue>Y</CheckValue>
        </RangeCheck>
      </def:WhereClauseDef>
      <def:WhereClauseDef OID="WC.LB.LBORRES.HCT">
        <RangeCheck SoftHard="Soft" def:ItemOID="IT.LB.LBTESTCD" Comparator="EQ">
          <CheckValue>HCT</CheckValue>
        </RangeCheck>
        <RangeCheck SoftHard="Soft" def:ItemOID="IT.LB.LBCAT" Comparator="EQ">
          <CheckValue>HEMATOLOGY</CheckValue>
        </RangeCheck>
        <RangeCheck SoftHard="Soft" def:ItemOID="IT.LB.LBSCAT" Comparator="EQ">
          <CheckValue> </CheckValue>
        </RangeCheck>
        <RangeCheck SoftHard="Soft" def:ItemOID="IT.LB.LBSPEC" Comparator="EQ">
          <CheckValue>WHOLE BLOOD</CheckValue>
        </RangeCheck>
        <RangeCheck SoftHard="Soft" def:ItemOID="IT.LB.LBMETHOD" Comparator="EQ">
          <CheckValue>CALCULATION</CheckValue>
        </RangeCheck>
        <RangeCheck SoftHard="Soft" def:ItemOID="IT.LB.LBFAST" Comparator="EQ">
          <CheckValue>Y</CheckValue>
        </RangeCheck>
      </def:WhereClauseDef>
      <def:WhereClauseDef OID="WC.LB.LBORRES.HEINZ">
        <RangeCheck SoftHard="Soft" def:ItemOID="IT.LB.LBTESTCD" Comparator="EQ">
          <CheckValue>HEINZ</CheckValue>
        </RangeCheck>
        <RangeCheck SoftHard="Soft" def:ItemOID="IT.LB.LBCAT" Comparator="EQ">
          <CheckValue>BLOOD CELL MORPHOLOGY</CheckValue>
        </RangeCheck>
        <RangeCheck SoftHard="Soft" def:ItemOID="IT.LB.LBSCAT" Comparator="EQ">
          <CheckValue> </CheckValue>
        </RangeCheck>
        <RangeCheck SoftHard="Soft" def:ItemOID="IT.LB.LBSPEC" Comparator="EQ">
          <CheckValue>WHOLE BLOOD</CheckValue>
        </RangeCheck>
        <RangeCheck SoftHard="Soft" def:ItemOID="IT.LB.LBMETHOD" Comparator="EQ">
          <CheckValue>WRIGHT-GIEMSA STAIN</CheckValue>
        </RangeCheck>
        <RangeCheck SoftHard="Soft" def:ItemOID="IT.LB.LBFAST" Comparator="EQ">
          <CheckValue>Y</CheckValue>
        </RangeCheck>
      </def:WhereClauseDef>
      <def:WhereClauseDef OID="WC.LB.LBORRES.HEMOLYSI">
        <RangeCheck SoftHard="Soft" def:ItemOID="IT.LB.LBTESTCD" Comparator="EQ">
          <CheckValue>HEMOLYSI</CheckValue>
        </RangeCheck>
        <RangeCheck SoftHard="Soft" def:ItemOID="IT.LB.LBCAT" Comparator="EQ">
          <CheckValue>CLINICAL CHEMISTRY</CheckValue>
        </RangeCheck>
        <RangeCheck SoftHard="Soft" def:ItemOID="IT.LB.LBSCAT" Comparator="EQ">
          <CheckValue> </CheckValue>
        </RangeCheck>
        <RangeCheck SoftHard="Soft" def:ItemOID="IT.LB.LBSPEC" Comparator="EQ">
          <CheckValue>SERUM</CheckValue>
        </RangeCheck>
        <RangeCheck SoftHard="Soft" def:ItemOID="IT.LB.LBMETHOD" Comparator="EQ">
          <CheckValue>COLORIMETRY</CheckValue>
        </RangeCheck>
        <RangeCheck SoftHard="Soft" def:ItemOID="IT.LB.LBFAST" Comparator="EQ">
          <CheckValue>Y</CheckValue>
        </RangeCheck>
      </def:WhereClauseDef>
      <def:WhereClauseDef OID="WC.LB.LBORRES.HGB">
        <RangeCheck SoftHard="Soft" def:ItemOID="IT.LB.LBTESTCD" Comparator="EQ">
          <CheckValue>HGB</CheckValue>
        </RangeCheck>
        <RangeCheck SoftHard="Soft" def:ItemOID="IT.LB.LBCAT" Comparator="EQ">
          <CheckValue>HEMATOLOGY</CheckValue>
        </RangeCheck>
        <RangeCheck SoftHard="Soft" def:ItemOID="IT.LB.LBSCAT" Comparator="EQ">
          <CheckValue> </CheckValue>
        </RangeCheck>
        <RangeCheck SoftHard="Soft" def:ItemOID="IT.LB.LBSPEC" Comparator="EQ">
          <CheckValue>WHOLE BLOOD</CheckValue>
        </RangeCheck>
        <RangeCheck SoftHard="Soft" def:ItemOID="IT.LB.LBMETHOD" Comparator="EQ">
          <CheckValue>COLORIMETRY</CheckValue>
        </RangeCheck>
        <RangeCheck SoftHard="Soft" def:ItemOID="IT.LB.LBFAST" Comparator="EQ">
          <CheckValue>Y</CheckValue>
        </RangeCheck>
      </def:WhereClauseDef>
      <def:WhereClauseDef OID="WC.LB.LBORRES.HOWJOL">
        <RangeCheck SoftHard="Soft" def:ItemOID="IT.LB.LBTESTCD" Comparator="EQ">
          <CheckValue>HOWJOL</CheckValue>
        </RangeCheck>
        <RangeCheck SoftHard="Soft" def:ItemOID="IT.LB.LBCAT" Comparator="EQ">
          <CheckValue>BLOOD CELL MORPHOLOGY</CheckValue>
        </RangeCheck>
        <RangeCheck SoftHard="Soft" def:ItemOID="IT.LB.LBSCAT" Comparator="EQ">
          <CheckValue> </CheckValue>
        </RangeCheck>
        <RangeCheck SoftHard="Soft" def:ItemOID="IT.LB.LBSPEC" Comparator="EQ">
          <CheckValue>WHOLE BLOOD</CheckValue>
        </RangeCheck>
        <RangeCheck SoftHard="Soft" def:ItemOID="IT.LB.LBMETHOD" Comparator="EQ">
          <CheckValue>WRIGHT-GIEMSA STAIN</CheckValue>
        </RangeCheck>
        <RangeCheck SoftHard="Soft" def:ItemOID="IT.LB.LBFAST" Comparator="EQ">
          <CheckValue>Y</CheckValue>
        </RangeCheck>
      </def:WhereClauseDef>
      <def:WhereClauseDef OID="WC.LB.LBORRES.K">
        <RangeCheck SoftHard="Soft" def:ItemOID="IT.LB.LBTESTCD" Comparator="EQ">
          <CheckValue>K</CheckValue>
        </RangeCheck>
        <RangeCheck SoftHard="Soft" def:ItemOID="IT.LB.LBCAT" Comparator="EQ">
          <CheckValue>CLINICAL CHEMISTRY</CheckValue>
        </RangeCheck>
        <RangeCheck SoftHard="Soft" def:ItemOID="IT.LB.LBSCAT" Comparator="EQ">
          <CheckValue> </CheckValue>
        </RangeCheck>
        <RangeCheck SoftHard="Soft" def:ItemOID="IT.LB.LBSPEC" Comparator="EQ">
          <CheckValue>SERUM</CheckValue>
        </RangeCheck>
        <RangeCheck SoftHard="Soft" def:ItemOID="IT.LB.LBMETHOD" Comparator="EQ">
          <CheckValue>ION SELECTIVE ELECTRODE</CheckValue>
        </RangeCheck>
        <RangeCheck SoftHard="Soft" def:ItemOID="IT.LB.LBFAST" Comparator="EQ">
          <CheckValue>Y</CheckValue>
        </RangeCheck>
      </def:WhereClauseDef>
      <def:WhereClauseDef OID="WC.LB.LBORRES.KERAT">
        <RangeCheck SoftHard="Soft" def:ItemOID="IT.LB.LBTESTCD" Comparator="EQ">
          <CheckValue>KERAT</CheckValue>
        </RangeCheck>
        <RangeCheck SoftHard="Soft" def:ItemOID="IT.LB.LBCAT" Comparator="EQ">
          <CheckValue>BLOOD CELL MORPHOLOGY</CheckValue>
        </RangeCheck>
        <RangeCheck SoftHard="Soft" def:ItemOID="IT.LB.LBSCAT" Comparator="EQ">
          <CheckValue> </CheckValue>
        </RangeCheck>
        <RangeCheck SoftHard="Soft" def:ItemOID="IT.LB.LBSPEC" Comparator="EQ">
          <CheckValue>WHOLE BLOOD</CheckValue>
        </RangeCheck>
        <RangeCheck SoftHard="Soft" def:ItemOID="IT.LB.LBMETHOD" Comparator="EQ">
          <CheckValue>WRIGHT-GIEMSA STAIN</CheckValue>
        </RangeCheck>
        <RangeCheck SoftHard="Soft" def:ItemOID="IT.LB.LBFAST" Comparator="EQ">
          <CheckValue>Y</CheckValue>
        </RangeCheck>
      </def:WhereClauseDef>
      <def:WhereClauseDef OID="WC.LB.LBORRES.LGUNSCE1">
        <RangeCheck SoftHard="Soft" def:ItemOID="IT.LB.LBTESTCD" Comparator="EQ">
          <CheckValue>LGUNSCE</CheckValue>
        </RangeCheck>
        <RangeCheck SoftHard="Soft" def:ItemOID="IT.LB.LBCAT" Comparator="EQ">
          <CheckValue>HEMATOLOGY</CheckValue>
        </RangeCheck>
        <RangeCheck SoftHard="Soft" def:ItemOID="IT.LB.LBSCAT" Comparator="EQ">
          <CheckValue> </CheckValue>
        </RangeCheck>
        <RangeCheck SoftHard="Soft" def:ItemOID="IT.LB.LBSPEC" Comparator="EQ">
          <CheckValue>WHOLE BLOOD</CheckValue>
        </RangeCheck>
        <RangeCheck SoftHard="Soft" def:ItemOID="IT.LB.LBMETHOD" Comparator="EQ">
          <CheckValue>CALCULATION</CheckValue>
        </RangeCheck>
        <RangeCheck SoftHard="Soft" def:ItemOID="IT.LB.LBFAST" Comparator="EQ">
          <CheckValue>Y</CheckValue>
        </RangeCheck>
      </def:WhereClauseDef>
      <def:WhereClauseDef OID="WC.LB.LBORRES.LGUNSCE2">
        <RangeCheck SoftHard="Soft" def:ItemOID="IT.LB.LBTESTCD" Comparator="EQ">
          <CheckValue>LGUNSCE</CheckValue>
        </RangeCheck>
        <RangeCheck SoftHard="Soft" def:ItemOID="IT.LB.LBCAT" Comparator="EQ">
          <CheckValue>HEMATOLOGY</CheckValue>
        </RangeCheck>
        <RangeCheck SoftHard="Soft" def:ItemOID="IT.LB.LBSCAT" Comparator="EQ">
          <CheckValue>Differential</CheckValue>
        </RangeCheck>
        <RangeCheck SoftHard="Soft" def:ItemOID="IT.LB.LBSPEC" Comparator="EQ">
          <CheckValue>WHOLE BLOOD</CheckValue>
        </RangeCheck>
        <RangeCheck SoftHard="Soft" def:ItemOID="IT.LB.LBMETHOD" Comparator="EQ">
          <CheckValue>CALCULATION</CheckValue>
        </RangeCheck>
        <RangeCheck SoftHard="Soft" def:ItemOID="IT.LB.LBFAST" Comparator="EQ">
          <CheckValue>Y</CheckValue>
        </RangeCheck>
      </def:WhereClauseDef>
      <def:WhereClauseDef OID="WC.LB.LBORRES.LYM1">
        <RangeCheck SoftHard="Soft" def:ItemOID="IT.LB.LBTESTCD" Comparator="EQ">
          <CheckValue>LYM</CheckValue>
        </RangeCheck>
        <RangeCheck SoftHard="Soft" def:ItemOID="IT.LB.LBCAT" Comparator="EQ">
          <CheckValue>HEMATOLOGY</CheckValue>
        </RangeCheck>
        <RangeCheck SoftHard="Soft" def:ItemOID="IT.LB.LBSCAT" Comparator="EQ">
          <CheckValue> </CheckValue>
        </RangeCheck>
        <RangeCheck SoftHard="Soft" def:ItemOID="IT.LB.LBSPEC" Comparator="EQ">
          <CheckValue>WHOLE BLOOD</CheckValue>
        </RangeCheck>
        <RangeCheck SoftHard="Soft" def:ItemOID="IT.LB.LBMETHOD" Comparator="EQ">
          <CheckValue>CALCULATION</CheckValue>
        </RangeCheck>
        <RangeCheck SoftHard="Soft" def:ItemOID="IT.LB.LBFAST" Comparator="EQ">
          <CheckValue>Y</CheckValue>
        </RangeCheck>
      </def:WhereClauseDef>
      <def:WhereClauseDef OID="WC.LB.LBORRES.LYM2">
        <RangeCheck SoftHard="Soft" def:ItemOID="IT.LB.LBTESTCD" Comparator="EQ">
          <CheckValue>LYM</CheckValue>
        </RangeCheck>
        <RangeCheck SoftHard="Soft" def:ItemOID="IT.LB.LBCAT" Comparator="EQ">
          <CheckValue>HEMATOLOGY</CheckValue>
        </RangeCheck>
        <RangeCheck SoftHard="Soft" def:ItemOID="IT.LB.LBSCAT" Comparator="EQ">
          <CheckValue>Differential</CheckValue>
        </RangeCheck>
        <RangeCheck SoftHard="Soft" def:ItemOID="IT.LB.LBSPEC" Comparator="EQ">
          <CheckValue>WHOLE BLOOD</CheckValue>
        </RangeCheck>
        <RangeCheck SoftHard="Soft" def:ItemOID="IT.LB.LBMETHOD" Comparator="EQ">
          <CheckValue>CALCULATION</CheckValue>
        </RangeCheck>
        <RangeCheck SoftHard="Soft" def:ItemOID="IT.LB.LBFAST" Comparator="EQ">
          <CheckValue>Y</CheckValue>
        </RangeCheck>
      </def:WhereClauseDef>
      <def:WhereClauseDef OID="WC.LB.LBORRES.LYMAT">
        <RangeCheck SoftHard="Soft" def:ItemOID="IT.LB.LBTESTCD" Comparator="EQ">
          <CheckValue>LYMAT</CheckValue>
        </RangeCheck>
        <RangeCheck SoftHard="Soft" def:ItemOID="IT.LB.LBCAT" Comparator="EQ">
          <CheckValue>BLOOD CELL MORPHOLOGY</CheckValue>
        </RangeCheck>
        <RangeCheck SoftHard="Soft" def:ItemOID="IT.LB.LBSCAT" Comparator="EQ">
          <CheckValue> </CheckValue>
        </RangeCheck>
        <RangeCheck SoftHard="Soft" def:ItemOID="IT.LB.LBSPEC" Comparator="EQ">
          <CheckValue>WHOLE BLOOD</CheckValue>
        </RangeCheck>
        <RangeCheck SoftHard="Soft" def:ItemOID="IT.LB.LBMETHOD" Comparator="EQ">
          <CheckValue>WRIGHT-GIEMSA STAIN</CheckValue>
        </RangeCheck>
        <RangeCheck SoftHard="Soft" def:ItemOID="IT.LB.LBFAST" Comparator="EQ">
          <CheckValue>Y</CheckValue>
        </RangeCheck>
      </def:WhereClauseDef>
      <def:WhereClauseDef OID="WC.LB.LBORRES.MCH">
        <RangeCheck SoftHard="Soft" def:ItemOID="IT.LB.LBTESTCD" Comparator="EQ">
          <CheckValue>MCH</CheckValue>
        </RangeCheck>
        <RangeCheck SoftHard="Soft" def:ItemOID="IT.LB.LBCAT" Comparator="EQ">
          <CheckValue>HEMATOLOGY</CheckValue>
        </RangeCheck>
        <RangeCheck SoftHard="Soft" def:ItemOID="IT.LB.LBSCAT" Comparator="EQ">
          <CheckValue> </CheckValue>
        </RangeCheck>
        <RangeCheck SoftHard="Soft" def:ItemOID="IT.LB.LBSPEC" Comparator="EQ">
          <CheckValue>WHOLE BLOOD</CheckValue>
        </RangeCheck>
        <RangeCheck SoftHard="Soft" def:ItemOID="IT.LB.LBMETHOD" Comparator="EQ">
          <CheckValue>CALCULATION</CheckValue>
        </RangeCheck>
        <RangeCheck SoftHard="Soft" def:ItemOID="IT.LB.LBFAST" Comparator="EQ">
          <CheckValue>Y</CheckValue>
        </RangeCheck>
      </def:WhereClauseDef>
      <def:WhereClauseDef OID="WC.LB.LBORRES.MCHC">
        <RangeCheck SoftHard="Soft" def:ItemOID="IT.LB.LBTESTCD" Comparator="EQ">
          <CheckValue>MCHC</CheckValue>
        </RangeCheck>
        <RangeCheck SoftHard="Soft" def:ItemOID="IT.LB.LBCAT" Comparator="EQ">
          <CheckValue>HEMATOLOGY</CheckValue>
        </RangeCheck>
        <RangeCheck SoftHard="Soft" def:ItemOID="IT.LB.LBSCAT" Comparator="EQ">
          <CheckValue> </CheckValue>
        </RangeCheck>
        <RangeCheck SoftHard="Soft" def:ItemOID="IT.LB.LBSPEC" Comparator="EQ">
          <CheckValue>WHOLE BLOOD</CheckValue>
        </RangeCheck>
        <RangeCheck SoftHard="Soft" def:ItemOID="IT.LB.LBMETHOD" Comparator="EQ">
          <CheckValue>CALCULATION</CheckValue>
        </RangeCheck>
        <RangeCheck SoftHard="Soft" def:ItemOID="IT.LB.LBFAST" Comparator="EQ">
          <CheckValue>Y</CheckValue>
        </RangeCheck>
      </def:WhereClauseDef>
      <def:WhereClauseDef OID="WC.LB.LBORRES.MCV">
        <RangeCheck SoftHard="Soft" def:ItemOID="IT.LB.LBTESTCD" Comparator="EQ">
          <CheckValue>MCV</CheckValue>
        </RangeCheck>
        <RangeCheck SoftHard="Soft" def:ItemOID="IT.LB.LBCAT" Comparator="EQ">
          <CheckValue>HEMATOLOGY</CheckValue>
        </RangeCheck>
        <RangeCheck SoftHard="Soft" def:ItemOID="IT.LB.LBSCAT" Comparator="EQ">
          <CheckValue> </CheckValue>
        </RangeCheck>
        <RangeCheck SoftHard="Soft" def:ItemOID="IT.LB.LBSPEC" Comparator="EQ">
          <CheckValue>WHOLE BLOOD</CheckValue>
        </RangeCheck>
        <RangeCheck SoftHard="Soft" def:ItemOID="IT.LB.LBMETHOD" Comparator="EQ">
          <CheckValue>FLOW CYTOMETRY</CheckValue>
        </RangeCheck>
        <RangeCheck SoftHard="Soft" def:ItemOID="IT.LB.LBFAST" Comparator="EQ">
          <CheckValue>Y</CheckValue>
        </RangeCheck>
      </def:WhereClauseDef>
      <def:WhereClauseDef OID="WC.LB.LBORRES.MONO1">
        <RangeCheck SoftHard="Soft" def:ItemOID="IT.LB.LBTESTCD" Comparator="EQ">
          <CheckValue>MONO</CheckValue>
        </RangeCheck>
        <RangeCheck SoftHard="Soft" def:ItemOID="IT.LB.LBCAT" Comparator="EQ">
          <CheckValue>HEMATOLOGY</CheckValue>
        </RangeCheck>
        <RangeCheck SoftHard="Soft" def:ItemOID="IT.LB.LBSCAT" Comparator="EQ">
          <CheckValue> </CheckValue>
        </RangeCheck>
        <RangeCheck SoftHard="Soft" def:ItemOID="IT.LB.LBSPEC" Comparator="EQ">
          <CheckValue>WHOLE BLOOD</CheckValue>
        </RangeCheck>
        <RangeCheck SoftHard="Soft" def:ItemOID="IT.LB.LBMETHOD" Comparator="EQ">
          <CheckValue>CALCULATION</CheckValue>
        </RangeCheck>
        <RangeCheck SoftHard="Soft" def:ItemOID="IT.LB.LBFAST" Comparator="EQ">
          <CheckValue>Y</CheckValue>
        </RangeCheck>
      </def:WhereClauseDef>
      <def:WhereClauseDef OID="WC.LB.LBORRES.MONO2">
        <RangeCheck SoftHard="Soft" def:ItemOID="IT.LB.LBTESTCD" Comparator="EQ">
          <CheckValue>MONO</CheckValue>
        </RangeCheck>
        <RangeCheck SoftHard="Soft" def:ItemOID="IT.LB.LBCAT" Comparator="EQ">
          <CheckValue>HEMATOLOGY</CheckValue>
        </RangeCheck>
        <RangeCheck SoftHard="Soft" def:ItemOID="IT.LB.LBSCAT" Comparator="EQ">
          <CheckValue>Differential</CheckValue>
        </RangeCheck>
        <RangeCheck SoftHard="Soft" def:ItemOID="IT.LB.LBSPEC" Comparator="EQ">
          <CheckValue>WHOLE BLOOD</CheckValue>
        </RangeCheck>
        <RangeCheck SoftHard="Soft" def:ItemOID="IT.LB.LBMETHOD" Comparator="EQ">
          <CheckValue>CALCULATION</CheckValue>
        </RangeCheck>
        <RangeCheck SoftHard="Soft" def:ItemOID="IT.LB.LBFAST" Comparator="EQ">
          <CheckValue>Y</CheckValue>
        </RangeCheck>
      </def:WhereClauseDef>
      <def:WhereClauseDef OID="WC.LB.LBORRES.MONOAT">
        <RangeCheck SoftHard="Soft" def:ItemOID="IT.LB.LBTESTCD" Comparator="EQ">
          <CheckValue>MONOAT</CheckValue>
        </RangeCheck>
        <RangeCheck SoftHard="Soft" def:ItemOID="IT.LB.LBCAT" Comparator="EQ">
          <CheckValue>BLOOD CELL MORPHOLOGY</CheckValue>
        </RangeCheck>
        <RangeCheck SoftHard="Soft" def:ItemOID="IT.LB.LBSCAT" Comparator="EQ">
          <CheckValue> </CheckValue>
        </RangeCheck>
        <RangeCheck SoftHard="Soft" def:ItemOID="IT.LB.LBSPEC" Comparator="EQ">
          <CheckValue>WHOLE BLOOD</CheckValue>
        </RangeCheck>
        <RangeCheck SoftHard="Soft" def:ItemOID="IT.LB.LBMETHOD" Comparator="EQ">
          <CheckValue>WRIGHT-GIEMSA STAIN</CheckValue>
        </RangeCheck>
        <RangeCheck SoftHard="Soft" def:ItemOID="IT.LB.LBFAST" Comparator="EQ">
          <CheckValue>Y</CheckValue>
        </RangeCheck>
      </def:WhereClauseDef>
      <def:WhereClauseDef OID="WC.LB.LBORRES.NEUT1">
        <RangeCheck SoftHard="Soft" def:ItemOID="IT.LB.LBTESTCD" Comparator="EQ">
          <CheckValue>NEUT</CheckValue>
        </RangeCheck>
        <RangeCheck SoftHard="Soft" def:ItemOID="IT.LB.LBCAT" Comparator="EQ">
          <CheckValue>HEMATOLOGY</CheckValue>
        </RangeCheck>
        <RangeCheck SoftHard="Soft" def:ItemOID="IT.LB.LBSCAT" Comparator="EQ">
          <CheckValue> </CheckValue>
        </RangeCheck>
        <RangeCheck SoftHard="Soft" def:ItemOID="IT.LB.LBSPEC" Comparator="EQ">
          <CheckValue>WHOLE BLOOD</CheckValue>
        </RangeCheck>
        <RangeCheck SoftHard="Soft" def:ItemOID="IT.LB.LBMETHOD" Comparator="EQ">
          <CheckValue>CALCULATION</CheckValue>
        </RangeCheck>
        <RangeCheck SoftHard="Soft" def:ItemOID="IT.LB.LBFAST" Comparator="EQ">
          <CheckValue>Y</CheckValue>
        </RangeCheck>
      </def:WhereClauseDef>
      <def:WhereClauseDef OID="WC.LB.LBORRES.NEUT2">
        <RangeCheck SoftHard="Soft" def:ItemOID="IT.LB.LBTESTCD" Comparator="EQ">
          <CheckValue>NEUT</CheckValue>
        </RangeCheck>
        <RangeCheck SoftHard="Soft" def:ItemOID="IT.LB.LBCAT" Comparator="EQ">
          <CheckValue>HEMATOLOGY</CheckValue>
        </RangeCheck>
        <RangeCheck SoftHard="Soft" def:ItemOID="IT.LB.LBSCAT" Comparator="EQ">
          <CheckValue>Differential</CheckValue>
        </RangeCheck>
        <RangeCheck SoftHard="Soft" def:ItemOID="IT.LB.LBSPEC" Comparator="EQ">
          <CheckValue>WHOLE BLOOD</CheckValue>
        </RangeCheck>
        <RangeCheck SoftHard="Soft" def:ItemOID="IT.LB.LBMETHOD" Comparator="EQ">
          <CheckValue>CALCULATION</CheckValue>
        </RangeCheck>
        <RangeCheck SoftHard="Soft" def:ItemOID="IT.LB.LBFAST" Comparator="EQ">
          <CheckValue>Y</CheckValue>
        </RangeCheck>
      </def:WhereClauseDef>
      <def:WhereClauseDef OID="WC.LB.LBORRES.NEUTB">
        <RangeCheck SoftHard="Soft" def:ItemOID="IT.LB.LBTESTCD" Comparator="EQ">
          <CheckValue>NEUTB</CheckValue>
        </RangeCheck>
        <RangeCheck SoftHard="Soft" def:ItemOID="IT.LB.LBCAT" Comparator="EQ">
          <CheckValue>HEMATOLOGY</CheckValue>
        </RangeCheck>
        <RangeCheck SoftHard="Soft" def:ItemOID="IT.LB.LBSCAT" Comparator="EQ">
          <CheckValue>Differential</CheckValue>
        </RangeCheck>
        <RangeCheck SoftHard="Soft" def:ItemOID="IT.LB.LBSPEC" Comparator="EQ">
          <CheckValue>WHOLE BLOOD</CheckValue>
        </RangeCheck>
        <RangeCheck SoftHard="Soft" def:ItemOID="IT.LB.LBMETHOD" Comparator="EQ">
          <CheckValue>CALCULATION</CheckValue>
        </RangeCheck>
        <RangeCheck SoftHard="Soft" def:ItemOID="IT.LB.LBFAST" Comparator="EQ">
          <CheckValue>Y</CheckValue>
        </RangeCheck>
      </def:WhereClauseDef>
      <def:WhereClauseDef OID="WC.LB.LBORRES.NEUTCYBS">
        <RangeCheck SoftHard="Soft" def:ItemOID="IT.LB.LBTESTCD" Comparator="EQ">
          <CheckValue>NEUTCYBS</CheckValue>
        </RangeCheck>
        <RangeCheck SoftHard="Soft" def:ItemOID="IT.LB.LBCAT" Comparator="EQ">
          <CheckValue>BLOOD CELL MORPHOLOGY</CheckValue>
        </RangeCheck>
        <RangeCheck SoftHard="Soft" def:ItemOID="IT.LB.LBSCAT" Comparator="EQ">
          <CheckValue> </CheckValue>
        </RangeCheck>
        <RangeCheck SoftHard="Soft" def:ItemOID="IT.LB.LBSPEC" Comparator="EQ">
          <CheckValue>WHOLE BLOOD</CheckValue>
        </RangeCheck>
        <RangeCheck SoftHard="Soft" def:ItemOID="IT.LB.LBMETHOD" Comparator="EQ">
          <CheckValue>WRIGHT-GIEMSA STAIN</CheckValue>
        </RangeCheck>
        <RangeCheck SoftHard="Soft" def:ItemOID="IT.LB.LBFAST" Comparator="EQ">
          <CheckValue>Y</CheckValue>
        </RangeCheck>
      </def:WhereClauseDef>
      <def:WhereClauseDef OID="WC.LB.LBORRES.PAPPEN">
        <RangeCheck SoftHard="Soft" def:ItemOID="IT.LB.LBTESTCD" Comparator="EQ">
          <CheckValue>PAPPEN</CheckValue>
        </RangeCheck>
        <RangeCheck SoftHard="Soft" def:ItemOID="IT.LB.LBCAT" Comparator="EQ">
          <CheckValue>BLOOD CELL MORPHOLOGY</CheckValue>
        </RangeCheck>
        <RangeCheck SoftHard="Soft" def:ItemOID="IT.LB.LBSCAT" Comparator="EQ">
          <CheckValue> </CheckValue>
        </RangeCheck>
        <RangeCheck SoftHard="Soft" def:ItemOID="IT.LB.LBSPEC" Comparator="EQ">
          <CheckValue>WHOLE BLOOD</CheckValue>
        </RangeCheck>
        <RangeCheck SoftHard="Soft" def:ItemOID="IT.LB.LBMETHOD" Comparator="EQ">
          <CheckValue>WRIGHT-GIEMSA STAIN</CheckValue>
        </RangeCheck>
        <RangeCheck SoftHard="Soft" def:ItemOID="IT.LB.LBFAST" Comparator="EQ">
          <CheckValue>Y</CheckValue>
        </RangeCheck>
      </def:WhereClauseDef>
      <def:WhereClauseDef OID="WC.LB.LBORRES.PLAT1">
        <RangeCheck SoftHard="Soft" def:ItemOID="IT.LB.LBTESTCD" Comparator="EQ">
          <CheckValue>PLAT</CheckValue>
        </RangeCheck>
        <RangeCheck SoftHard="Soft" def:ItemOID="IT.LB.LBCAT" Comparator="EQ">
          <CheckValue>BLOOD CELL MORPHOLOGY</CheckValue>
        </RangeCheck>
        <RangeCheck SoftHard="Soft" def:ItemOID="IT.LB.LBSCAT" Comparator="EQ">
          <CheckValue> </CheckValue>
        </RangeCheck>
        <RangeCheck SoftHard="Soft" def:ItemOID="IT.LB.LBSPEC" Comparator="EQ">
          <CheckValue>WHOLE BLOOD</CheckValue>
        </RangeCheck>
        <RangeCheck SoftHard="Soft" def:ItemOID="IT.LB.LBMETHOD" Comparator="EQ">
          <CheckValue>WRIGHT-GIEMSA STAIN</CheckValue>
        </RangeCheck>
        <RangeCheck SoftHard="Soft" def:ItemOID="IT.LB.LBFAST" Comparator="EQ">
          <CheckValue>Y</CheckValue>
        </RangeCheck>
      </def:WhereClauseDef>
      <def:WhereClauseDef OID="WC.LB.LBORRES.PLAT2">
        <RangeCheck SoftHard="Soft" def:ItemOID="IT.LB.LBTESTCD" Comparator="EQ">
          <CheckValue>PLAT</CheckValue>
        </RangeCheck>
        <RangeCheck SoftHard="Soft" def:ItemOID="IT.LB.LBCAT" Comparator="EQ">
          <CheckValue>HEMATOLOGY</CheckValue>
        </RangeCheck>
        <RangeCheck SoftHard="Soft" def:ItemOID="IT.LB.LBSCAT" Comparator="EQ">
          <CheckValue> </CheckValue>
        </RangeCheck>
        <RangeCheck SoftHard="Soft" def:ItemOID="IT.LB.LBSPEC" Comparator="EQ">
          <CheckValue>WHOLE BLOOD</CheckValue>
        </RangeCheck>
        <RangeCheck SoftHard="Soft" def:ItemOID="IT.LB.LBMETHOD" Comparator="EQ">
          <CheckValue>FLOW CYTOMETRY</CheckValue>
        </RangeCheck>
        <RangeCheck SoftHard="Soft" def:ItemOID="IT.LB.LBFAST" Comparator="EQ">
          <CheckValue>Y</CheckValue>
        </RangeCheck>
      </def:WhereClauseDef>
      <def:WhereClauseDef OID="WC.LB.LBORRES.PLATCLMP">
        <RangeCheck SoftHard="Soft" def:ItemOID="IT.LB.LBTESTCD" Comparator="EQ">
          <CheckValue>PLATCLMP</CheckValue>
        </RangeCheck>
        <RangeCheck SoftHard="Soft" def:ItemOID="IT.LB.LBCAT" Comparator="EQ">
          <CheckValue>BLOOD CELL MORPHOLOGY</CheckValue>
        </RangeCheck>
        <RangeCheck SoftHard="Soft" def:ItemOID="IT.LB.LBSCAT" Comparator="EQ">
          <CheckValue> </CheckValue>
        </RangeCheck>
        <RangeCheck SoftHard="Soft" def:ItemOID="IT.LB.LBSPEC" Comparator="EQ">
          <CheckValue>WHOLE BLOOD</CheckValue>
        </RangeCheck>
        <RangeCheck SoftHard="Soft" def:ItemOID="IT.LB.LBMETHOD" Comparator="EQ">
          <CheckValue>WRIGHT-GIEMSA STAIN</CheckValue>
        </RangeCheck>
        <RangeCheck SoftHard="Soft" def:ItemOID="IT.LB.LBFAST" Comparator="EQ">
          <CheckValue>Y</CheckValue>
        </RangeCheck>
      </def:WhereClauseDef>
      <def:WhereClauseDef OID="WC.LB.LBORRES.PLATLRG">
        <RangeCheck SoftHard="Soft" def:ItemOID="IT.LB.LBTESTCD" Comparator="EQ">
          <CheckValue>PLATLRG</CheckValue>
        </RangeCheck>
        <RangeCheck SoftHard="Soft" def:ItemOID="IT.LB.LBCAT" Comparator="EQ">
          <CheckValue>BLOOD CELL MORPHOLOGY</CheckValue>
        </RangeCheck>
        <RangeCheck SoftHard="Soft" def:ItemOID="IT.LB.LBSCAT" Comparator="EQ">
          <CheckValue> </CheckValue>
        </RangeCheck>
        <RangeCheck SoftHard="Soft" def:ItemOID="IT.LB.LBSPEC" Comparator="EQ">
          <CheckValue>WHOLE BLOOD</CheckValue>
        </RangeCheck>
        <RangeCheck SoftHard="Soft" def:ItemOID="IT.LB.LBMETHOD" Comparator="EQ">
          <CheckValue>WRIGHT-GIEMSA STAIN</CheckValue>
        </RangeCheck>
        <RangeCheck SoftHard="Soft" def:ItemOID="IT.LB.LBFAST" Comparator="EQ">
          <CheckValue>Y</CheckValue>
        </RangeCheck>
      </def:WhereClauseDef>
      <def:WhereClauseDef OID="WC.LB.LBORRES.POLYCHR">
        <RangeCheck SoftHard="Soft" def:ItemOID="IT.LB.LBTESTCD" Comparator="EQ">
          <CheckValue>POLYCHR</CheckValue>
        </RangeCheck>
        <RangeCheck SoftHard="Soft" def:ItemOID="IT.LB.LBCAT" Comparator="EQ">
          <CheckValue>BLOOD CELL MORPHOLOGY</CheckValue>
        </RangeCheck>
        <RangeCheck SoftHard="Soft" def:ItemOID="IT.LB.LBSCAT" Comparator="EQ">
          <CheckValue> </CheckValue>
        </RangeCheck>
        <RangeCheck SoftHard="Soft" def:ItemOID="IT.LB.LBSPEC" Comparator="EQ">
          <CheckValue>WHOLE BLOOD</CheckValue>
        </RangeCheck>
        <RangeCheck SoftHard="Soft" def:ItemOID="IT.LB.LBMETHOD" Comparator="EQ">
          <CheckValue>WRIGHT-GIEMSA STAIN</CheckValue>
        </RangeCheck>
        <RangeCheck SoftHard="Soft" def:ItemOID="IT.LB.LBFAST" Comparator="EQ">
          <CheckValue>Y</CheckValue>
        </RangeCheck>
      </def:WhereClauseDef>
      <def:WhereClauseDef OID="WC.LB.LBORRES.PROT">
        <RangeCheck SoftHard="Soft" def:ItemOID="IT.LB.LBTESTCD" Comparator="EQ">
          <CheckValue>PROT</CheckValue>
        </RangeCheck>
        <RangeCheck SoftHard="Soft" def:ItemOID="IT.LB.LBCAT" Comparator="EQ">
          <CheckValue>CLINICAL CHEMISTRY</CheckValue>
        </RangeCheck>
        <RangeCheck SoftHard="Soft" def:ItemOID="IT.LB.LBSCAT" Comparator="EQ">
          <CheckValue> </CheckValue>
        </RangeCheck>
        <RangeCheck SoftHard="Soft" def:ItemOID="IT.LB.LBSPEC" Comparator="EQ">
          <CheckValue>SERUM</CheckValue>
        </RangeCheck>
        <RangeCheck SoftHard="Soft" def:ItemOID="IT.LB.LBMETHOD" Comparator="EQ">
          <CheckValue>COLORIMETRY</CheckValue>
        </RangeCheck>
        <RangeCheck SoftHard="Soft" def:ItemOID="IT.LB.LBFAST" Comparator="EQ">
          <CheckValue>Y</CheckValue>
        </RangeCheck>
      </def:WhereClauseDef>
      <def:WhereClauseDef OID="WC.LB.LBORRES.PYKNOTIC">
        <RangeCheck SoftHard="Soft" def:ItemOID="IT.LB.LBTESTCD" Comparator="EQ">
          <CheckValue>PYKNOTIC</CheckValue>
        </RangeCheck>
        <RangeCheck SoftHard="Soft" def:ItemOID="IT.LB.LBCAT" Comparator="EQ">
          <CheckValue>BLOOD CELL MORPHOLOGY</CheckValue>
        </RangeCheck>
        <RangeCheck SoftHard="Soft" def:ItemOID="IT.LB.LBSCAT" Comparator="EQ">
          <CheckValue> </CheckValue>
        </RangeCheck>
        <RangeCheck SoftHard="Soft" def:ItemOID="IT.LB.LBSPEC" Comparator="EQ">
          <CheckValue>WHOLE BLOOD</CheckValue>
        </RangeCheck>
        <RangeCheck SoftHard="Soft" def:ItemOID="IT.LB.LBMETHOD" Comparator="EQ">
          <CheckValue>WRIGHT-GIEMSA STAIN</CheckValue>
        </RangeCheck>
        <RangeCheck SoftHard="Soft" def:ItemOID="IT.LB.LBFAST" Comparator="EQ">
          <CheckValue>Y</CheckValue>
        </RangeCheck>
      </def:WhereClauseDef>
      <def:WhereClauseDef OID="WC.LB.LBORRES.RBC">
        <RangeCheck SoftHard="Soft" def:ItemOID="IT.LB.LBTESTCD" Comparator="EQ">
          <CheckValue>RBC</CheckValue>
        </RangeCheck>
        <RangeCheck SoftHard="Soft" def:ItemOID="IT.LB.LBCAT" Comparator="EQ">
          <CheckValue>HEMATOLOGY</CheckValue>
        </RangeCheck>
        <RangeCheck SoftHard="Soft" def:ItemOID="IT.LB.LBSCAT" Comparator="EQ">
          <CheckValue> </CheckValue>
        </RangeCheck>
        <RangeCheck SoftHard="Soft" def:ItemOID="IT.LB.LBSPEC" Comparator="EQ">
          <CheckValue>WHOLE BLOOD</CheckValue>
        </RangeCheck>
        <RangeCheck SoftHard="Soft" def:ItemOID="IT.LB.LBMETHOD" Comparator="EQ">
          <CheckValue>FLOW CYTOMETRY</CheckValue>
        </RangeCheck>
        <RangeCheck SoftHard="Soft" def:ItemOID="IT.LB.LBFAST" Comparator="EQ">
          <CheckValue>Y</CheckValue>
        </RangeCheck>
      </def:WhereClauseDef>
      <def:WhereClauseDef OID="WC.LB.LBORRES.RBCAGGLU">
        <RangeCheck SoftHard="Soft" def:ItemOID="IT.LB.LBTESTCD" Comparator="EQ">
          <CheckValue>RBCAGGLU</CheckValue>
        </RangeCheck>
        <RangeCheck SoftHard="Soft" def:ItemOID="IT.LB.LBCAT" Comparator="EQ">
          <CheckValue>BLOOD CELL MORPHOLOGY</CheckValue>
        </RangeCheck>
        <RangeCheck SoftHard="Soft" def:ItemOID="IT.LB.LBSCAT" Comparator="EQ">
          <CheckValue> </CheckValue>
        </RangeCheck>
        <RangeCheck SoftHard="Soft" def:ItemOID="IT.LB.LBSPEC" Comparator="EQ">
          <CheckValue>WHOLE BLOOD</CheckValue>
        </RangeCheck>
        <RangeCheck SoftHard="Soft" def:ItemOID="IT.LB.LBMETHOD" Comparator="EQ">
          <CheckValue>WRIGHT-GIEMSA STAIN</CheckValue>
        </RangeCheck>
        <RangeCheck SoftHard="Soft" def:ItemOID="IT.LB.LBFAST" Comparator="EQ">
          <CheckValue>Y</CheckValue>
        </RangeCheck>
      </def:WhereClauseDef>
      <def:WhereClauseDef OID="WC.LB.LBORRES.RBCGHOST">
        <RangeCheck SoftHard="Soft" def:ItemOID="IT.LB.LBTESTCD" Comparator="EQ">
          <CheckValue>RBCGHOST</CheckValue>
        </RangeCheck>
        <RangeCheck SoftHard="Soft" def:ItemOID="IT.LB.LBCAT" Comparator="EQ">
          <CheckValue>BLOOD CELL MORPHOLOGY</CheckValue>
        </RangeCheck>
        <RangeCheck SoftHard="Soft" def:ItemOID="IT.LB.LBSCAT" Comparator="EQ">
          <CheckValue> </CheckValue>
        </RangeCheck>
        <RangeCheck SoftHard="Soft" def:ItemOID="IT.LB.LBSPEC" Comparator="EQ">
          <CheckValue>WHOLE BLOOD</CheckValue>
        </RangeCheck>
        <RangeCheck SoftHard="Soft" def:ItemOID="IT.LB.LBMETHOD" Comparator="EQ">
          <CheckValue>WRIGHT-GIEMSA STAIN</CheckValue>
        </RangeCheck>
        <RangeCheck SoftHard="Soft" def:ItemOID="IT.LB.LBFAST" Comparator="EQ">
          <CheckValue>Y</CheckValue>
        </RangeCheck>
      </def:WhereClauseDef>
      <def:WhereClauseDef OID="WC.LB.LBORRES.RBCNUC">
        <RangeCheck SoftHard="Soft" def:ItemOID="IT.LB.LBTESTCD" Comparator="EQ">
          <CheckValue>RBCNUC</CheckValue>
        </RangeCheck>
        <RangeCheck SoftHard="Soft" def:ItemOID="IT.LB.LBCAT" Comparator="EQ">
          <CheckValue>BLOOD CELL MORPHOLOGY</CheckValue>
        </RangeCheck>
        <RangeCheck SoftHard="Soft" def:ItemOID="IT.LB.LBSCAT" Comparator="EQ">
          <CheckValue> </CheckValue>
        </RangeCheck>
        <RangeCheck SoftHard="Soft" def:ItemOID="IT.LB.LBSPEC" Comparator="EQ">
          <CheckValue>WHOLE BLOOD</CheckValue>
        </RangeCheck>
        <RangeCheck SoftHard="Soft" def:ItemOID="IT.LB.LBMETHOD" Comparator="EQ">
          <CheckValue>WRIGHT-GIEMSA STAIN</CheckValue>
        </RangeCheck>
        <RangeCheck SoftHard="Soft" def:ItemOID="IT.LB.LBFAST" Comparator="EQ">
          <CheckValue>Y</CheckValue>
        </RangeCheck>
      </def:WhereClauseDef>
      <def:WhereClauseDef OID="WC.LB.LBORRES.RBCNUCLE">
        <RangeCheck SoftHard="Soft" def:ItemOID="IT.LB.LBTESTCD" Comparator="EQ">
          <CheckValue>RBCNUCLE</CheckValue>
        </RangeCheck>
        <RangeCheck SoftHard="Soft" def:ItemOID="IT.LB.LBCAT" Comparator="EQ">
          <CheckValue>HEMATOLOGY</CheckValue>
        </RangeCheck>
        <RangeCheck SoftHard="Soft" def:ItemOID="IT.LB.LBSCAT" Comparator="EQ">
          <CheckValue>Differential</CheckValue>
        </RangeCheck>
        <RangeCheck SoftHard="Soft" def:ItemOID="IT.LB.LBSPEC" Comparator="EQ">
          <CheckValue>WHOLE BLOOD</CheckValue>
        </RangeCheck>
        <RangeCheck SoftHard="Soft" def:ItemOID="IT.LB.LBMETHOD" Comparator="EQ">
          <CheckValue>WRIGHT-GIEMSA STAIN</CheckValue>
        </RangeCheck>
        <RangeCheck SoftHard="Soft" def:ItemOID="IT.LB.LBFAST" Comparator="EQ">
          <CheckValue>Y</CheckValue>
        </RangeCheck>
      </def:WhereClauseDef>
      <def:WhereClauseDef OID="WC.LB.LBORRES.RDW">
        <RangeCheck SoftHard="Soft" def:ItemOID="IT.LB.LBTESTCD" Comparator="EQ">
          <CheckValue>RDW</CheckValue>
        </RangeCheck>
        <RangeCheck SoftHard="Soft" def:ItemOID="IT.LB.LBCAT" Comparator="EQ">
          <CheckValue>HEMATOLOGY</CheckValue>
        </RangeCheck>
        <RangeCheck SoftHard="Soft" def:ItemOID="IT.LB.LBSCAT" Comparator="EQ">
          <CheckValue> </CheckValue>
        </RangeCheck>
        <RangeCheck SoftHard="Soft" def:ItemOID="IT.LB.LBSPEC" Comparator="EQ">
          <CheckValue>WHOLE BLOOD</CheckValue>
        </RangeCheck>
        <RangeCheck SoftHard="Soft" def:ItemOID="IT.LB.LBMETHOD" Comparator="EQ">
          <CheckValue>FLOW CYTOMETRY</CheckValue>
        </RangeCheck>
        <RangeCheck SoftHard="Soft" def:ItemOID="IT.LB.LBFAST" Comparator="EQ">
          <CheckValue>Y</CheckValue>
        </RangeCheck>
      </def:WhereClauseDef>
      <def:WhereClauseDef OID="WC.LB.LBORRES.RETI">
        <RangeCheck SoftHard="Soft" def:ItemOID="IT.LB.LBTESTCD" Comparator="EQ">
          <CheckValue>RETI</CheckValue>
        </RangeCheck>
        <RangeCheck SoftHard="Soft" def:ItemOID="IT.LB.LBCAT" Comparator="EQ">
          <CheckValue>HEMATOLOGY</CheckValue>
        </RangeCheck>
        <RangeCheck SoftHard="Soft" def:ItemOID="IT.LB.LBSCAT" Comparator="EQ">
          <CheckValue> </CheckValue>
        </RangeCheck>
        <RangeCheck SoftHard="Soft" def:ItemOID="IT.LB.LBSPEC" Comparator="EQ">
          <CheckValue>WHOLE BLOOD</CheckValue>
        </RangeCheck>
        <RangeCheck SoftHard="Soft" def:ItemOID="IT.LB.LBMETHOD" Comparator="EQ">
          <CheckValue>CALCULATION</CheckValue>
        </RangeCheck>
        <RangeCheck SoftHard="Soft" def:ItemOID="IT.LB.LBFAST" Comparator="EQ">
          <CheckValue>Y</CheckValue>
        </RangeCheck>
      </def:WhereClauseDef>
      <def:WhereClauseDef OID="WC.LB.LBORRES.ROULEAUX">
        <RangeCheck SoftHard="Soft" def:ItemOID="IT.LB.LBTESTCD" Comparator="EQ">
          <CheckValue>ROULEAUX</CheckValue>
        </RangeCheck>
        <RangeCheck SoftHard="Soft" def:ItemOID="IT.LB.LBCAT" Comparator="EQ">
          <CheckValue>BLOOD CELL MORPHOLOGY</CheckValue>
        </RangeCheck>
        <RangeCheck SoftHard="Soft" def:ItemOID="IT.LB.LBSCAT" Comparator="EQ">
          <CheckValue> </CheckValue>
        </RangeCheck>
        <RangeCheck SoftHard="Soft" def:ItemOID="IT.LB.LBSPEC" Comparator="EQ">
          <CheckValue>WHOLE BLOOD</CheckValue>
        </RangeCheck>
        <RangeCheck SoftHard="Soft" def:ItemOID="IT.LB.LBMETHOD" Comparator="EQ">
          <CheckValue>WRIGHT-GIEMSA STAIN</CheckValue>
        </RangeCheck>
        <RangeCheck SoftHard="Soft" def:ItemOID="IT.LB.LBFAST" Comparator="EQ">
          <CheckValue>Y</CheckValue>
        </RangeCheck>
      </def:WhereClauseDef>
      <def:WhereClauseDef OID="WC.LB.LBORRES.SCHISTO">
        <RangeCheck SoftHard="Soft" def:ItemOID="IT.LB.LBTESTCD" Comparator="EQ">
          <CheckValue>SCHISTO</CheckValue>
        </RangeCheck>
        <RangeCheck SoftHard="Soft" def:ItemOID="IT.LB.LBCAT" Comparator="EQ">
          <CheckValue>BLOOD CELL MORPHOLOGY</CheckValue>
        </RangeCheck>
        <RangeCheck SoftHard="Soft" def:ItemOID="IT.LB.LBSCAT" Comparator="EQ">
          <CheckValue> </CheckValue>
        </RangeCheck>
        <RangeCheck SoftHard="Soft" def:ItemOID="IT.LB.LBSPEC" Comparator="EQ">
          <CheckValue>WHOLE BLOOD</CheckValue>
        </RangeCheck>
        <RangeCheck SoftHard="Soft" def:ItemOID="IT.LB.LBMETHOD" Comparator="EQ">
          <CheckValue>WRIGHT-GIEMSA STAIN</CheckValue>
        </RangeCheck>
        <RangeCheck SoftHard="Soft" def:ItemOID="IT.LB.LBFAST" Comparator="EQ">
          <CheckValue>Y</CheckValue>
        </RangeCheck>
      </def:WhereClauseDef>
      <def:WhereClauseDef OID="WC.LB.LBORRES.SMDGCE">
        <RangeCheck SoftHard="Soft" def:ItemOID="IT.LB.LBTESTCD" Comparator="EQ">
          <CheckValue>SMDGCE</CheckValue>
        </RangeCheck>
        <RangeCheck SoftHard="Soft" def:ItemOID="IT.LB.LBCAT" Comparator="EQ">
          <CheckValue>BLOOD CELL MORPHOLOGY</CheckValue>
        </RangeCheck>
        <RangeCheck SoftHard="Soft" def:ItemOID="IT.LB.LBSCAT" Comparator="EQ">
          <CheckValue> </CheckValue>
        </RangeCheck>
        <RangeCheck SoftHard="Soft" def:ItemOID="IT.LB.LBSPEC" Comparator="EQ">
          <CheckValue>WHOLE BLOOD</CheckValue>
        </RangeCheck>
        <RangeCheck SoftHard="Soft" def:ItemOID="IT.LB.LBMETHOD" Comparator="EQ">
          <CheckValue>WRIGHT-GIEMSA STAIN</CheckValue>
        </RangeCheck>
        <RangeCheck SoftHard="Soft" def:ItemOID="IT.LB.LBFAST" Comparator="EQ">
          <CheckValue>Y</CheckValue>
        </RangeCheck>
      </def:WhereClauseDef>
      <def:WhereClauseDef OID="WC.LB.LBORRES.SODIUM">
        <RangeCheck SoftHard="Soft" def:ItemOID="IT.LB.LBTESTCD" Comparator="EQ">
          <CheckValue>SODIUM</CheckValue>
        </RangeCheck>
        <RangeCheck SoftHard="Soft" def:ItemOID="IT.LB.LBCAT" Comparator="EQ">
          <CheckValue>CLINICAL CHEMISTRY</CheckValue>
        </RangeCheck>
        <RangeCheck SoftHard="Soft" def:ItemOID="IT.LB.LBSCAT" Comparator="EQ">
          <CheckValue> </CheckValue>
        </RangeCheck>
        <RangeCheck SoftHard="Soft" def:ItemOID="IT.LB.LBSPEC" Comparator="EQ">
          <CheckValue>SERUM</CheckValue>
        </RangeCheck>
        <RangeCheck SoftHard="Soft" def:ItemOID="IT.LB.LBMETHOD" Comparator="EQ">
          <CheckValue>ION SELECTIVE ELECTRODE</CheckValue>
        </RangeCheck>
        <RangeCheck SoftHard="Soft" def:ItemOID="IT.LB.LBFAST" Comparator="EQ">
          <CheckValue>Y</CheckValue>
        </RangeCheck>
      </def:WhereClauseDef>
      <def:WhereClauseDef OID="WC.LB.LBORRES.SPHERO">
        <RangeCheck SoftHard="Soft" def:ItemOID="IT.LB.LBTESTCD" Comparator="EQ">
          <CheckValue>SPHERO</CheckValue>
        </RangeCheck>
        <RangeCheck SoftHard="Soft" def:ItemOID="IT.LB.LBCAT" Comparator="EQ">
          <CheckValue>BLOOD CELL MORPHOLOGY</CheckValue>
        </RangeCheck>
        <RangeCheck SoftHard="Soft" def:ItemOID="IT.LB.LBSCAT" Comparator="EQ">
          <CheckValue> </CheckValue>
        </RangeCheck>
        <RangeCheck SoftHard="Soft" def:ItemOID="IT.LB.LBSPEC" Comparator="EQ">
          <CheckValue>WHOLE BLOOD</CheckValue>
        </RangeCheck>
        <RangeCheck SoftHard="Soft" def:ItemOID="IT.LB.LBMETHOD" Comparator="EQ">
          <CheckValue>WRIGHT-GIEMSA STAIN</CheckValue>
        </RangeCheck>
        <RangeCheck SoftHard="Soft" def:ItemOID="IT.LB.LBFAST" Comparator="EQ">
          <CheckValue>Y</CheckValue>
        </RangeCheck>
      </def:WhereClauseDef>
      <def:WhereClauseDef OID="WC.LB.LBORRES.STIPBASO">
        <RangeCheck SoftHard="Soft" def:ItemOID="IT.LB.LBTESTCD" Comparator="EQ">
          <CheckValue>STIPBASO</CheckValue>
        </RangeCheck>
        <RangeCheck SoftHard="Soft" def:ItemOID="IT.LB.LBCAT" Comparator="EQ">
          <CheckValue>BLOOD CELL MORPHOLOGY</CheckValue>
        </RangeCheck>
        <RangeCheck SoftHard="Soft" def:ItemOID="IT.LB.LBSCAT" Comparator="EQ">
          <CheckValue> </CheckValue>
        </RangeCheck>
        <RangeCheck SoftHard="Soft" def:ItemOID="IT.LB.LBSPEC" Comparator="EQ">
          <CheckValue>WHOLE BLOOD</CheckValue>
        </RangeCheck>
        <RangeCheck SoftHard="Soft" def:ItemOID="IT.LB.LBMETHOD" Comparator="EQ">
          <CheckValue>WRIGHT-GIEMSA STAIN</CheckValue>
        </RangeCheck>
        <RangeCheck SoftHard="Soft" def:ItemOID="IT.LB.LBFAST" Comparator="EQ">
          <CheckValue>Y</CheckValue>
        </RangeCheck>
      </def:WhereClauseDef>
      <def:WhereClauseDef OID="WC.LB.LBORRES.UNPOIKIL">
        <RangeCheck SoftHard="Soft" def:ItemOID="IT.LB.LBTESTCD" Comparator="EQ">
          <CheckValue>UNPOIKIL</CheckValue>
        </RangeCheck>
        <RangeCheck SoftHard="Soft" def:ItemOID="IT.LB.LBCAT" Comparator="EQ">
          <CheckValue>BLOOD CELL MORPHOLOGY</CheckValue>
        </RangeCheck>
        <RangeCheck SoftHard="Soft" def:ItemOID="IT.LB.LBSCAT" Comparator="EQ">
          <CheckValue> </CheckValue>
        </RangeCheck>
        <RangeCheck SoftHard="Soft" def:ItemOID="IT.LB.LBSPEC" Comparator="EQ">
          <CheckValue>WHOLE BLOOD</CheckValue>
        </RangeCheck>
        <RangeCheck SoftHard="Soft" def:ItemOID="IT.LB.LBMETHOD" Comparator="EQ">
          <CheckValue>WRIGHT-GIEMSA STAIN</CheckValue>
        </RangeCheck>
        <RangeCheck SoftHard="Soft" def:ItemOID="IT.LB.LBFAST" Comparator="EQ">
          <CheckValue>Y</CheckValue>
        </RangeCheck>
      </def:WhereClauseDef>
      <def:WhereClauseDef OID="WC.LB.LBORRES.UREAN">
        <RangeCheck SoftHard="Soft" def:ItemOID="IT.LB.LBTESTCD" Comparator="EQ">
          <CheckValue>UREAN</CheckValue>
        </RangeCheck>
        <RangeCheck SoftHard="Soft" def:ItemOID="IT.LB.LBCAT" Comparator="EQ">
          <CheckValue>CLINICAL CHEMISTRY</CheckValue>
        </RangeCheck>
        <RangeCheck SoftHard="Soft" def:ItemOID="IT.LB.LBSCAT" Comparator="EQ">
          <CheckValue> </CheckValue>
        </RangeCheck>
        <RangeCheck SoftHard="Soft" def:ItemOID="IT.LB.LBSPEC" Comparator="EQ">
          <CheckValue>SERUM</CheckValue>
        </RangeCheck>
        <RangeCheck SoftHard="Soft" def:ItemOID="IT.LB.LBMETHOD" Comparator="EQ">
          <CheckValue>COLORIMETRY</CheckValue>
        </RangeCheck>
        <RangeCheck SoftHard="Soft" def:ItemOID="IT.LB.LBFAST" Comparator="EQ">
          <CheckValue>Y</CheckValue>
        </RangeCheck>
      </def:WhereClauseDef>
      <def:WhereClauseDef OID="WC.LB.LBORRES.WBC">
        <RangeCheck SoftHard="Soft" def:ItemOID="IT.LB.LBTESTCD" Comparator="EQ">
          <CheckValue>WBC</CheckValue>
        </RangeCheck>
        <RangeCheck SoftHard="Soft" def:ItemOID="IT.LB.LBCAT" Comparator="EQ">
          <CheckValue>HEMATOLOGY</CheckValue>
        </RangeCheck>
        <RangeCheck SoftHard="Soft" def:ItemOID="IT.LB.LBSCAT" Comparator="EQ">
          <CheckValue> </CheckValue>
        </RangeCheck>
        <RangeCheck SoftHard="Soft" def:ItemOID="IT.LB.LBSPEC" Comparator="EQ">
          <CheckValue>WHOLE BLOOD</CheckValue>
        </RangeCheck>
        <RangeCheck SoftHard="Soft" def:ItemOID="IT.LB.LBMETHOD" Comparator="EQ">
          <CheckValue>FLOW CYTOMETRY</CheckValue>
        </RangeCheck>
        <RangeCheck SoftHard="Soft" def:ItemOID="IT.LB.LBFAST" Comparator="EQ">
          <CheckValue>Y</CheckValue>
        </RangeCheck>
      </def:WhereClauseDef>
      <def:WhereClauseDef OID="WC.LB.LBORRES.WBCAGGLU">
        <RangeCheck SoftHard="Soft" def:ItemOID="IT.LB.LBTESTCD" Comparator="EQ">
          <CheckValue>WBCAGGLU</CheckValue>
        </RangeCheck>
        <RangeCheck SoftHard="Soft" def:ItemOID="IT.LB.LBCAT" Comparator="EQ">
          <CheckValue>BLOOD CELL MORPHOLOGY</CheckValue>
        </RangeCheck>
        <RangeCheck SoftHard="Soft" def:ItemOID="IT.LB.LBSCAT" Comparator="EQ">
          <CheckValue> </CheckValue>
        </RangeCheck>
        <RangeCheck SoftHard="Soft" def:ItemOID="IT.LB.LBSPEC" Comparator="EQ">
          <CheckValue>WHOLE BLOOD</CheckValue>
        </RangeCheck>
        <RangeCheck SoftHard="Soft" def:ItemOID="IT.LB.LBMETHOD" Comparator="EQ">
          <CheckValue>NEW METHYLENE BLUE</CheckValue>
        </RangeCheck>
        <RangeCheck SoftHard="Soft" def:ItemOID="IT.LB.LBFAST" Comparator="EQ">
          <CheckValue>Y</CheckValue>
        </RangeCheck>
      </def:WhereClauseDef>
      <def:WhereClauseDef OID="WC.LB.LBSTRESC.ACANT">
        <RangeCheck SoftHard="Soft" def:ItemOID="IT.LB.LBTESTCD" Comparator="EQ">
          <CheckValue>ACANT</CheckValue>
        </RangeCheck>
        <RangeCheck SoftHard="Soft" def:ItemOID="IT.LB.LBCAT" Comparator="EQ">
          <CheckValue>BLOOD CELL MORPHOLOGY</CheckValue>
        </RangeCheck>
        <RangeCheck SoftHard="Soft" def:ItemOID="IT.LB.LBSCAT" Comparator="EQ">
          <CheckValue> </CheckValue>
        </RangeCheck>
        <RangeCheck SoftHard="Soft" def:ItemOID="IT.LB.LBSPEC" Comparator="EQ">
          <CheckValue>WHOLE BLOOD</CheckValue>
        </RangeCheck>
        <RangeCheck SoftHard="Soft" def:ItemOID="IT.LB.LBMETHOD" Comparator="EQ">
          <CheckValue>WRIGHT-GIEMSA STAIN</CheckValue>
        </RangeCheck>
        <RangeCheck SoftHard="Soft" def:ItemOID="IT.LB.LBFAST" Comparator="EQ">
          <CheckValue>Y</CheckValue>
        </RangeCheck>
      </def:WhereClauseDef>
      <def:WhereClauseDef OID="WC.LB.LBSTRESC.ALBGLOB">
        <RangeCheck SoftHard="Soft" def:ItemOID="IT.LB.LBTESTCD" Comparator="EQ">
          <CheckValue>ALBGLOB</CheckValue>
        </RangeCheck>
        <RangeCheck SoftHard="Soft" def:ItemOID="IT.LB.LBCAT" Comparator="EQ">
          <CheckValue>CLINICAL CHEMISTRY</CheckValue>
        </RangeCheck>
        <RangeCheck SoftHard="Soft" def:ItemOID="IT.LB.LBSCAT" Comparator="EQ">
          <CheckValue> </CheckValue>
        </RangeCheck>
        <RangeCheck SoftHard="Soft" def:ItemOID="IT.LB.LBSPEC" Comparator="EQ">
          <CheckValue>SERUM</CheckValue>
        </RangeCheck>
        <RangeCheck SoftHard="Soft" def:ItemOID="IT.LB.LBMETHOD" Comparator="EQ">
          <CheckValue>CALCULATION</CheckValue>
        </RangeCheck>
        <RangeCheck SoftHard="Soft" def:ItemOID="IT.LB.LBFAST" Comparator="EQ">
          <CheckValue>Y</CheckValue>
        </RangeCheck>
      </def:WhereClauseDef>
      <def:WhereClauseDef OID="WC.LB.LBSTRESC.ALT">
        <RangeCheck SoftHard="Soft" def:ItemOID="IT.LB.LBTESTCD" Comparator="EQ">
          <CheckValue>ALT</CheckValue>
        </RangeCheck>
        <RangeCheck SoftHard="Soft" def:ItemOID="IT.LB.LBCAT" Comparator="EQ">
          <CheckValue>CLINICAL CHEMISTRY</CheckValue>
        </RangeCheck>
        <RangeCheck SoftHard="Soft" def:ItemOID="IT.LB.LBSCAT" Comparator="EQ">
          <CheckValue> </CheckValue>
        </RangeCheck>
        <RangeCheck SoftHard="Soft" def:ItemOID="IT.LB.LBSPEC" Comparator="EQ">
          <CheckValue>SERUM</CheckValue>
        </RangeCheck>
        <RangeCheck SoftHard="Soft" def:ItemOID="IT.LB.LBMETHOD" Comparator="EQ">
          <CheckValue>ENZYMATIC COLORIMETRY</CheckValue>
        </RangeCheck>
        <RangeCheck SoftHard="Soft" def:ItemOID="IT.LB.LBFAST" Comparator="EQ">
          <CheckValue>Y</CheckValue>
        </RangeCheck>
      </def:WhereClauseDef>
      <def:WhereClauseDef OID="WC.LB.LBSTRESC.BASO1">
        <RangeCheck SoftHard="Soft" def:ItemOID="IT.LB.LBTESTCD" Comparator="EQ">
          <CheckValue>BASO</CheckValue>
        </RangeCheck>
        <RangeCheck SoftHard="Soft" def:ItemOID="IT.LB.LBCAT" Comparator="EQ">
          <CheckValue>HEMATOLOGY</CheckValue>
        </RangeCheck>
        <RangeCheck SoftHard="Soft" def:ItemOID="IT.LB.LBSCAT" Comparator="EQ">
          <CheckValue> </CheckValue>
        </RangeCheck>
        <RangeCheck SoftHard="Soft" def:ItemOID="IT.LB.LBSPEC" Comparator="EQ">
          <CheckValue>WHOLE BLOOD</CheckValue>
        </RangeCheck>
        <RangeCheck SoftHard="Soft" def:ItemOID="IT.LB.LBMETHOD" Comparator="EQ">
          <CheckValue>CALCULATION</CheckValue>
        </RangeCheck>
        <RangeCheck SoftHard="Soft" def:ItemOID="IT.LB.LBFAST" Comparator="EQ">
          <CheckValue>Y</CheckValue>
        </RangeCheck>
      </def:WhereClauseDef>
      <def:WhereClauseDef OID="WC.LB.LBSTRESC.BASO2">
        <RangeCheck SoftHard="Soft" def:ItemOID="IT.LB.LBTESTCD" Comparator="EQ">
          <CheckValue>BASO</CheckValue>
        </RangeCheck>
        <RangeCheck SoftHard="Soft" def:ItemOID="IT.LB.LBCAT" Comparator="EQ">
          <CheckValue>HEMATOLOGY</CheckValue>
        </RangeCheck>
        <RangeCheck SoftHard="Soft" def:ItemOID="IT.LB.LBSCAT" Comparator="EQ">
          <CheckValue>Differential</CheckValue>
        </RangeCheck>
        <RangeCheck SoftHard="Soft" def:ItemOID="IT.LB.LBSPEC" Comparator="EQ">
          <CheckValue>WHOLE BLOOD</CheckValue>
        </RangeCheck>
        <RangeCheck SoftHard="Soft" def:ItemOID="IT.LB.LBMETHOD" Comparator="EQ">
          <CheckValue>CALCULATION</CheckValue>
        </RangeCheck>
        <RangeCheck SoftHard="Soft" def:ItemOID="IT.LB.LBFAST" Comparator="EQ">
          <CheckValue>Y</CheckValue>
        </RangeCheck>
      </def:WhereClauseDef>
      <def:WhereClauseDef OID="WC.LB.LBSTRESC.CELLULAR">
        <RangeCheck SoftHard="Soft" def:ItemOID="IT.LB.LBTESTCD" Comparator="EQ">
          <CheckValue>CELLULAR</CheckValue>
        </RangeCheck>
        <RangeCheck SoftHard="Soft" def:ItemOID="IT.LB.LBCAT" Comparator="EQ">
          <CheckValue>BLOOD CELL MORPHOLOGY</CheckValue>
        </RangeCheck>
        <RangeCheck SoftHard="Soft" def:ItemOID="IT.LB.LBSCAT" Comparator="EQ">
          <CheckValue> </CheckValue>
        </RangeCheck>
        <RangeCheck SoftHard="Soft" def:ItemOID="IT.LB.LBSPEC" Comparator="EQ">
          <CheckValue>WHOLE BLOOD</CheckValue>
        </RangeCheck>
        <RangeCheck SoftHard="Soft" def:ItemOID="IT.LB.LBMETHOD" Comparator="EQ">
          <CheckValue>WRIGHT-GIEMSA STAIN</CheckValue>
        </RangeCheck>
        <RangeCheck SoftHard="Soft" def:ItemOID="IT.LB.LBFAST" Comparator="EQ">
          <CheckValue>Y</CheckValue>
        </RangeCheck>
      </def:WhereClauseDef>
      <def:WhereClauseDef OID="WC.LB.LBSTRESC.CL">
        <RangeCheck SoftHard="Soft" def:ItemOID="IT.LB.LBTESTCD" Comparator="EQ">
          <CheckValue>CL</CheckValue>
        </RangeCheck>
        <RangeCheck SoftHard="Soft" def:ItemOID="IT.LB.LBCAT" Comparator="EQ">
          <CheckValue>CLINICAL CHEMISTRY</CheckValue>
        </RangeCheck>
        <RangeCheck SoftHard="Soft" def:ItemOID="IT.LB.LBSCAT" Comparator="EQ">
          <CheckValue> </CheckValue>
        </RangeCheck>
        <RangeCheck SoftHard="Soft" def:ItemOID="IT.LB.LBSPEC" Comparator="EQ">
          <CheckValue>SERUM</CheckValue>
        </RangeCheck>
        <RangeCheck SoftHard="Soft" def:ItemOID="IT.LB.LBMETHOD" Comparator="EQ">
          <CheckValue>ION SELECTIVE ELECTRODE</CheckValue>
        </RangeCheck>
        <RangeCheck SoftHard="Soft" def:ItemOID="IT.LB.LBFAST" Comparator="EQ">
          <CheckValue>Y</CheckValue>
        </RangeCheck>
      </def:WhereClauseDef>
      <def:WhereClauseDef OID="WC.LB.LBSTRESC.CREAT">
        <RangeCheck SoftHard="Soft" def:ItemOID="IT.LB.LBTESTCD" Comparator="EQ">
          <CheckValue>CREAT</CheckValue>
        </RangeCheck>
        <RangeCheck SoftHard="Soft" def:ItemOID="IT.LB.LBCAT" Comparator="EQ">
          <CheckValue>CLINICAL CHEMISTRY</CheckValue>
        </RangeCheck>
        <RangeCheck SoftHard="Soft" def:ItemOID="IT.LB.LBSCAT" Comparator="EQ">
          <CheckValue> </CheckValue>
        </RangeCheck>
        <RangeCheck SoftHard="Soft" def:ItemOID="IT.LB.LBSPEC" Comparator="EQ">
          <CheckValue>SERUM</CheckValue>
        </RangeCheck>
        <RangeCheck SoftHard="Soft" def:ItemOID="IT.LB.LBMETHOD" Comparator="EQ">
          <CheckValue>JAFFE REACTION</CheckValue>
        </RangeCheck>
        <RangeCheck SoftHard="Soft" def:ItemOID="IT.LB.LBFAST" Comparator="EQ">
          <CheckValue>Y</CheckValue>
        </RangeCheck>
      </def:WhereClauseDef>
      <def:WhereClauseDef OID="WC.LB.LBSTRESC.CRENCE">
        <RangeCheck SoftHard="Soft" def:ItemOID="IT.LB.LBTESTCD" Comparator="EQ">
          <CheckValue>CRENCE</CheckValue>
        </RangeCheck>
        <RangeCheck SoftHard="Soft" def:ItemOID="IT.LB.LBCAT" Comparator="EQ">
          <CheckValue>BLOOD CELL MORPHOLOGY</CheckValue>
        </RangeCheck>
        <RangeCheck SoftHard="Soft" def:ItemOID="IT.LB.LBSCAT" Comparator="EQ">
          <CheckValue> </CheckValue>
        </RangeCheck>
        <RangeCheck SoftHard="Soft" def:ItemOID="IT.LB.LBSPEC" Comparator="EQ">
          <CheckValue>WHOLE BLOOD</CheckValue>
        </RangeCheck>
        <RangeCheck SoftHard="Soft" def:ItemOID="IT.LB.LBMETHOD" Comparator="EQ">
          <CheckValue>WRIGHT-GIEMSA STAIN</CheckValue>
        </RangeCheck>
        <RangeCheck SoftHard="Soft" def:ItemOID="IT.LB.LBFAST" Comparator="EQ">
          <CheckValue>Y</CheckValue>
        </RangeCheck>
      </def:WhereClauseDef>
      <def:WhereClauseDef OID="WC.LB.LBSTRESC.ECCENTCY">
        <RangeCheck SoftHard="Soft" def:ItemOID="IT.LB.LBTESTCD" Comparator="EQ">
          <CheckValue>ECCENTCY</CheckValue>
        </RangeCheck>
        <RangeCheck SoftHard="Soft" def:ItemOID="IT.LB.LBCAT" Comparator="EQ">
          <CheckValue>BLOOD CELL MORPHOLOGY</CheckValue>
        </RangeCheck>
        <RangeCheck SoftHard="Soft" def:ItemOID="IT.LB.LBSCAT" Comparator="EQ">
          <CheckValue> </CheckValue>
        </RangeCheck>
        <RangeCheck SoftHard="Soft" def:ItemOID="IT.LB.LBSPEC" Comparator="EQ">
          <CheckValue>WHOLE BLOOD</CheckValue>
        </RangeCheck>
        <RangeCheck SoftHard="Soft" def:ItemOID="IT.LB.LBMETHOD" Comparator="EQ">
          <CheckValue>WRIGHT-GIEMSA STAIN</CheckValue>
        </RangeCheck>
        <RangeCheck SoftHard="Soft" def:ItemOID="IT.LB.LBFAST" Comparator="EQ">
          <CheckValue>Y</CheckValue>
        </RangeCheck>
      </def:WhereClauseDef>
      <def:WhereClauseDef OID="WC.LB.LBSTRESC.EOS1">
        <RangeCheck SoftHard="Soft" def:ItemOID="IT.LB.LBTESTCD" Comparator="EQ">
          <CheckValue>EOS</CheckValue>
        </RangeCheck>
        <RangeCheck SoftHard="Soft" def:ItemOID="IT.LB.LBCAT" Comparator="EQ">
          <CheckValue>HEMATOLOGY</CheckValue>
        </RangeCheck>
        <RangeCheck SoftHard="Soft" def:ItemOID="IT.LB.LBSCAT" Comparator="EQ">
          <CheckValue> </CheckValue>
        </RangeCheck>
        <RangeCheck SoftHard="Soft" def:ItemOID="IT.LB.LBSPEC" Comparator="EQ">
          <CheckValue>WHOLE BLOOD</CheckValue>
        </RangeCheck>
        <RangeCheck SoftHard="Soft" def:ItemOID="IT.LB.LBMETHOD" Comparator="EQ">
          <CheckValue>CALCULATION</CheckValue>
        </RangeCheck>
        <RangeCheck SoftHard="Soft" def:ItemOID="IT.LB.LBFAST" Comparator="EQ">
          <CheckValue>Y</CheckValue>
        </RangeCheck>
      </def:WhereClauseDef>
      <def:WhereClauseDef OID="WC.LB.LBSTRESC.EOS2">
        <RangeCheck SoftHard="Soft" def:ItemOID="IT.LB.LBTESTCD" Comparator="EQ">
          <CheckValue>EOS</CheckValue>
        </RangeCheck>
        <RangeCheck SoftHard="Soft" def:ItemOID="IT.LB.LBCAT" Comparator="EQ">
          <CheckValue>HEMATOLOGY</CheckValue>
        </RangeCheck>
        <RangeCheck SoftHard="Soft" def:ItemOID="IT.LB.LBSCAT" Comparator="EQ">
          <CheckValue>Differential</CheckValue>
        </RangeCheck>
        <RangeCheck SoftHard="Soft" def:ItemOID="IT.LB.LBSPEC" Comparator="EQ">
          <CheckValue>WHOLE BLOOD</CheckValue>
        </RangeCheck>
        <RangeCheck SoftHard="Soft" def:ItemOID="IT.LB.LBMETHOD" Comparator="EQ">
          <CheckValue>CALCULATION</CheckValue>
        </RangeCheck>
        <RangeCheck SoftHard="Soft" def:ItemOID="IT.LB.LBFAST" Comparator="EQ">
          <CheckValue>Y</CheckValue>
        </RangeCheck>
      </def:WhereClauseDef>
      <def:WhereClauseDef OID="WC.LB.LBSTRESC.GLOBUL">
        <RangeCheck SoftHard="Soft" def:ItemOID="IT.LB.LBTESTCD" Comparator="EQ">
          <CheckValue>GLOBUL</CheckValue>
        </RangeCheck>
        <RangeCheck SoftHard="Soft" def:ItemOID="IT.LB.LBCAT" Comparator="EQ">
          <CheckValue>CLINICAL CHEMISTRY</CheckValue>
        </RangeCheck>
        <RangeCheck SoftHard="Soft" def:ItemOID="IT.LB.LBSCAT" Comparator="EQ">
          <CheckValue> </CheckValue>
        </RangeCheck>
        <RangeCheck SoftHard="Soft" def:ItemOID="IT.LB.LBSPEC" Comparator="EQ">
          <CheckValue>SERUM</CheckValue>
        </RangeCheck>
        <RangeCheck SoftHard="Soft" def:ItemOID="IT.LB.LBMETHOD" Comparator="EQ">
          <CheckValue>CALCULATION</CheckValue>
        </RangeCheck>
        <RangeCheck SoftHard="Soft" def:ItemOID="IT.LB.LBFAST" Comparator="EQ">
          <CheckValue>Y</CheckValue>
        </RangeCheck>
      </def:WhereClauseDef>
      <def:WhereClauseDef OID="WC.LB.LBSTRESC.GLUC">
        <RangeCheck SoftHard="Soft" def:ItemOID="IT.LB.LBTESTCD" Comparator="EQ">
          <CheckValue>GLUC</CheckValue>
        </RangeCheck>
        <RangeCheck SoftHard="Soft" def:ItemOID="IT.LB.LBCAT" Comparator="EQ">
          <CheckValue>CLINICAL CHEMISTRY</CheckValue>
        </RangeCheck>
        <RangeCheck SoftHard="Soft" def:ItemOID="IT.LB.LBSCAT" Comparator="EQ">
          <CheckValue> </CheckValue>
        </RangeCheck>
        <RangeCheck SoftHard="Soft" def:ItemOID="IT.LB.LBSPEC" Comparator="EQ">
          <CheckValue>SERUM</CheckValue>
        </RangeCheck>
        <RangeCheck SoftHard="Soft" def:ItemOID="IT.LB.LBMETHOD" Comparator="EQ">
          <CheckValue>ENZYMATIC COLORIMETRY</CheckValue>
        </RangeCheck>
        <RangeCheck SoftHard="Soft" def:ItemOID="IT.LB.LBFAST" Comparator="EQ">
          <CheckValue>Y</CheckValue>
        </RangeCheck>
      </def:WhereClauseDef>
      <def:WhereClauseDef OID="WC.LB.LBSTRESC.HCT">
        <RangeCheck SoftHard="Soft" def:ItemOID="IT.LB.LBTESTCD" Comparator="EQ">
          <CheckValue>HCT</CheckValue>
        </RangeCheck>
        <RangeCheck SoftHard="Soft" def:ItemOID="IT.LB.LBCAT" Comparator="EQ">
          <CheckValue>HEMATOLOGY</CheckValue>
        </RangeCheck>
        <RangeCheck SoftHard="Soft" def:ItemOID="IT.LB.LBSCAT" Comparator="EQ">
          <CheckValue> </CheckValue>
        </RangeCheck>
        <RangeCheck SoftHard="Soft" def:ItemOID="IT.LB.LBSPEC" Comparator="EQ">
          <CheckValue>WHOLE BLOOD</CheckValue>
        </RangeCheck>
        <RangeCheck SoftHard="Soft" def:ItemOID="IT.LB.LBMETHOD" Comparator="EQ">
          <CheckValue>CALCULATION</CheckValue>
        </RangeCheck>
        <RangeCheck SoftHard="Soft" def:ItemOID="IT.LB.LBFAST" Comparator="EQ">
          <CheckValue>Y</CheckValue>
        </RangeCheck>
      </def:WhereClauseDef>
      <def:WhereClauseDef OID="WC.LB.LBSTRESC.HEINZ">
        <RangeCheck SoftHard="Soft" def:ItemOID="IT.LB.LBTESTCD" Comparator="EQ">
          <CheckValue>HEINZ</CheckValue>
        </RangeCheck>
        <RangeCheck SoftHard="Soft" def:ItemOID="IT.LB.LBCAT" Comparator="EQ">
          <CheckValue>BLOOD CELL MORPHOLOGY</CheckValue>
        </RangeCheck>
        <RangeCheck SoftHard="Soft" def:ItemOID="IT.LB.LBSCAT" Comparator="EQ">
          <CheckValue> </CheckValue>
        </RangeCheck>
        <RangeCheck SoftHard="Soft" def:ItemOID="IT.LB.LBSPEC" Comparator="EQ">
          <CheckValue>WHOLE BLOOD</CheckValue>
        </RangeCheck>
        <RangeCheck SoftHard="Soft" def:ItemOID="IT.LB.LBMETHOD" Comparator="EQ">
          <CheckValue>WRIGHT-GIEMSA STAIN</CheckValue>
        </RangeCheck>
        <RangeCheck SoftHard="Soft" def:ItemOID="IT.LB.LBFAST" Comparator="EQ">
          <CheckValue>Y</CheckValue>
        </RangeCheck>
      </def:WhereClauseDef>
      <def:WhereClauseDef OID="WC.LB.LBSTRESC.HEMOLYSI">
        <RangeCheck SoftHard="Soft" def:ItemOID="IT.LB.LBTESTCD" Comparator="EQ">
          <CheckValue>HEMOLYSI</CheckValue>
        </RangeCheck>
        <RangeCheck SoftHard="Soft" def:ItemOID="IT.LB.LBCAT" Comparator="EQ">
          <CheckValue>CLINICAL CHEMISTRY</CheckValue>
        </RangeCheck>
        <RangeCheck SoftHard="Soft" def:ItemOID="IT.LB.LBSCAT" Comparator="EQ">
          <CheckValue> </CheckValue>
        </RangeCheck>
        <RangeCheck SoftHard="Soft" def:ItemOID="IT.LB.LBSPEC" Comparator="EQ">
          <CheckValue>SERUM</CheckValue>
        </RangeCheck>
        <RangeCheck SoftHard="Soft" def:ItemOID="IT.LB.LBMETHOD" Comparator="EQ">
          <CheckValue>COLORIMETRY</CheckValue>
        </RangeCheck>
        <RangeCheck SoftHard="Soft" def:ItemOID="IT.LB.LBFAST" Comparator="EQ">
          <CheckValue>Y</CheckValue>
        </RangeCheck>
      </def:WhereClauseDef>
      <def:WhereClauseDef OID="WC.LB.LBSTRESC.HGB">
        <RangeCheck SoftHard="Soft" def:ItemOID="IT.LB.LBTESTCD" Comparator="EQ">
          <CheckValue>HGB</CheckValue>
        </RangeCheck>
        <RangeCheck SoftHard="Soft" def:ItemOID="IT.LB.LBCAT" Comparator="EQ">
          <CheckValue>HEMATOLOGY</CheckValue>
        </RangeCheck>
        <RangeCheck SoftHard="Soft" def:ItemOID="IT.LB.LBSCAT" Comparator="EQ">
          <CheckValue> </CheckValue>
        </RangeCheck>
        <RangeCheck SoftHard="Soft" def:ItemOID="IT.LB.LBSPEC" Comparator="EQ">
          <CheckValue>WHOLE BLOOD</CheckValue>
        </RangeCheck>
        <RangeCheck SoftHard="Soft" def:ItemOID="IT.LB.LBMETHOD" Comparator="EQ">
          <CheckValue>COLORIMETRY</CheckValue>
        </RangeCheck>
        <RangeCheck SoftHard="Soft" def:ItemOID="IT.LB.LBFAST" Comparator="EQ">
          <CheckValue>Y</CheckValue>
        </RangeCheck>
      </def:WhereClauseDef>
      <def:WhereClauseDef OID="WC.LB.LBSTRESC.HOWJOL">
        <RangeCheck SoftHard="Soft" def:ItemOID="IT.LB.LBTESTCD" Comparator="EQ">
          <CheckValue>HOWJOL</CheckValue>
        </RangeCheck>
        <RangeCheck SoftHard="Soft" def:ItemOID="IT.LB.LBCAT" Comparator="EQ">
          <CheckValue>BLOOD CELL MORPHOLOGY</CheckValue>
        </RangeCheck>
        <RangeCheck SoftHard="Soft" def:ItemOID="IT.LB.LBSCAT" Comparator="EQ">
          <CheckValue> </CheckValue>
        </RangeCheck>
        <RangeCheck SoftHard="Soft" def:ItemOID="IT.LB.LBSPEC" Comparator="EQ">
          <CheckValue>WHOLE BLOOD</CheckValue>
        </RangeCheck>
        <RangeCheck SoftHard="Soft" def:ItemOID="IT.LB.LBMETHOD" Comparator="EQ">
          <CheckValue>WRIGHT-GIEMSA STAIN</CheckValue>
        </RangeCheck>
        <RangeCheck SoftHard="Soft" def:ItemOID="IT.LB.LBFAST" Comparator="EQ">
          <CheckValue>Y</CheckValue>
        </RangeCheck>
      </def:WhereClauseDef>
      <def:WhereClauseDef OID="WC.LB.LBSTRESC.K">
        <RangeCheck SoftHard="Soft" def:ItemOID="IT.LB.LBTESTCD" Comparator="EQ">
          <CheckValue>K</CheckValue>
        </RangeCheck>
        <RangeCheck SoftHard="Soft" def:ItemOID="IT.LB.LBCAT" Comparator="EQ">
          <CheckValue>CLINICAL CHEMISTRY</CheckValue>
        </RangeCheck>
        <RangeCheck SoftHard="Soft" def:ItemOID="IT.LB.LBSCAT" Comparator="EQ">
          <CheckValue> </CheckValue>
        </RangeCheck>
        <RangeCheck SoftHard="Soft" def:ItemOID="IT.LB.LBSPEC" Comparator="EQ">
          <CheckValue>SERUM</CheckValue>
        </RangeCheck>
        <RangeCheck SoftHard="Soft" def:ItemOID="IT.LB.LBMETHOD" Comparator="EQ">
          <CheckValue>ION SELECTIVE ELECTRODE</CheckValue>
        </RangeCheck>
        <RangeCheck SoftHard="Soft" def:ItemOID="IT.LB.LBFAST" Comparator="EQ">
          <CheckValue>Y</CheckValue>
        </RangeCheck>
      </def:WhereClauseDef>
      <def:WhereClauseDef OID="WC.LB.LBSTRESC.KERAT">
        <RangeCheck SoftHard="Soft" def:ItemOID="IT.LB.LBTESTCD" Comparator="EQ">
          <CheckValue>KERAT</CheckValue>
        </RangeCheck>
        <RangeCheck SoftHard="Soft" def:ItemOID="IT.LB.LBCAT" Comparator="EQ">
          <CheckValue>BLOOD CELL MORPHOLOGY</CheckValue>
        </RangeCheck>
        <RangeCheck SoftHard="Soft" def:ItemOID="IT.LB.LBSCAT" Comparator="EQ">
          <CheckValue> </CheckValue>
        </RangeCheck>
        <RangeCheck SoftHard="Soft" def:ItemOID="IT.LB.LBSPEC" Comparator="EQ">
          <CheckValue>WHOLE BLOOD</CheckValue>
        </RangeCheck>
        <RangeCheck SoftHard="Soft" def:ItemOID="IT.LB.LBMETHOD" Comparator="EQ">
          <CheckValue>WRIGHT-GIEMSA STAIN</CheckValue>
        </RangeCheck>
        <RangeCheck SoftHard="Soft" def:ItemOID="IT.LB.LBFAST" Comparator="EQ">
          <CheckValue>Y</CheckValue>
        </RangeCheck>
      </def:WhereClauseDef>
      <def:WhereClauseDef OID="WC.LB.LBSTRESC.LGUNSCE1">
        <RangeCheck SoftHard="Soft" def:ItemOID="IT.LB.LBTESTCD" Comparator="EQ">
          <CheckValue>LGUNSCE</CheckValue>
        </RangeCheck>
        <RangeCheck SoftHard="Soft" def:ItemOID="IT.LB.LBCAT" Comparator="EQ">
          <CheckValue>HEMATOLOGY</CheckValue>
        </RangeCheck>
        <RangeCheck SoftHard="Soft" def:ItemOID="IT.LB.LBSCAT" Comparator="EQ">
          <CheckValue> </CheckValue>
        </RangeCheck>
        <RangeCheck SoftHard="Soft" def:ItemOID="IT.LB.LBSPEC" Comparator="EQ">
          <CheckValue>WHOLE BLOOD</CheckValue>
        </RangeCheck>
        <RangeCheck SoftHard="Soft" def:ItemOID="IT.LB.LBMETHOD" Comparator="EQ">
          <CheckValue>CALCULATION</CheckValue>
        </RangeCheck>
        <RangeCheck SoftHard="Soft" def:ItemOID="IT.LB.LBFAST" Comparator="EQ">
          <CheckValue>Y</CheckValue>
        </RangeCheck>
      </def:WhereClauseDef>
      <def:WhereClauseDef OID="WC.LB.LBSTRESC.LGUNSCE2">
        <RangeCheck SoftHard="Soft" def:ItemOID="IT.LB.LBTESTCD" Comparator="EQ">
          <CheckValue>LGUNSCE</CheckValue>
        </RangeCheck>
        <RangeCheck SoftHard="Soft" def:ItemOID="IT.LB.LBCAT" Comparator="EQ">
          <CheckValue>HEMATOLOGY</CheckValue>
        </RangeCheck>
        <RangeCheck SoftHard="Soft" def:ItemOID="IT.LB.LBSCAT" Comparator="EQ">
          <CheckValue>Differential</CheckValue>
        </RangeCheck>
        <RangeCheck SoftHard="Soft" def:ItemOID="IT.LB.LBSPEC" Comparator="EQ">
          <CheckValue>WHOLE BLOOD</CheckValue>
        </RangeCheck>
        <RangeCheck SoftHard="Soft" def:ItemOID="IT.LB.LBMETHOD" Comparator="EQ">
          <CheckValue>CALCULATION</CheckValue>
        </RangeCheck>
        <RangeCheck SoftHard="Soft" def:ItemOID="IT.LB.LBFAST" Comparator="EQ">
          <CheckValue>Y</CheckValue>
        </RangeCheck>
      </def:WhereClauseDef>
      <def:WhereClauseDef OID="WC.LB.LBSTRESC.LYM1">
        <RangeCheck SoftHard="Soft" def:ItemOID="IT.LB.LBTESTCD" Comparator="EQ">
          <CheckValue>LYM</CheckValue>
        </RangeCheck>
        <RangeCheck SoftHard="Soft" def:ItemOID="IT.LB.LBCAT" Comparator="EQ">
          <CheckValue>HEMATOLOGY</CheckValue>
        </RangeCheck>
        <RangeCheck SoftHard="Soft" def:ItemOID="IT.LB.LBSCAT" Comparator="EQ">
          <CheckValue> </CheckValue>
        </RangeCheck>
        <RangeCheck SoftHard="Soft" def:ItemOID="IT.LB.LBSPEC" Comparator="EQ">
          <CheckValue>WHOLE BLOOD</CheckValue>
        </RangeCheck>
        <RangeCheck SoftHard="Soft" def:ItemOID="IT.LB.LBMETHOD" Comparator="EQ">
          <CheckValue>CALCULATION</CheckValue>
        </RangeCheck>
        <RangeCheck SoftHard="Soft" def:ItemOID="IT.LB.LBFAST" Comparator="EQ">
          <CheckValue>Y</CheckValue>
        </RangeCheck>
      </def:WhereClauseDef>
      <def:WhereClauseDef OID="WC.LB.LBSTRESC.LYM2">
        <RangeCheck SoftHard="Soft" def:ItemOID="IT.LB.LBTESTCD" Comparator="EQ">
          <CheckValue>LYM</CheckValue>
        </RangeCheck>
        <RangeCheck SoftHard="Soft" def:ItemOID="IT.LB.LBCAT" Comparator="EQ">
          <CheckValue>HEMATOLOGY</CheckValue>
        </RangeCheck>
        <RangeCheck SoftHard="Soft" def:ItemOID="IT.LB.LBSCAT" Comparator="EQ">
          <CheckValue>Differential</CheckValue>
        </RangeCheck>
        <RangeCheck SoftHard="Soft" def:ItemOID="IT.LB.LBSPEC" Comparator="EQ">
          <CheckValue>WHOLE BLOOD</CheckValue>
        </RangeCheck>
        <RangeCheck SoftHard="Soft" def:ItemOID="IT.LB.LBMETHOD" Comparator="EQ">
          <CheckValue>CALCULATION</CheckValue>
        </RangeCheck>
        <RangeCheck SoftHard="Soft" def:ItemOID="IT.LB.LBFAST" Comparator="EQ">
          <CheckValue>Y</CheckValue>
        </RangeCheck>
      </def:WhereClauseDef>
      <def:WhereClauseDef OID="WC.LB.LBSTRESC.LYMAT">
        <RangeCheck SoftHard="Soft" def:ItemOID="IT.LB.LBTESTCD" Comparator="EQ">
          <CheckValue>LYMAT</CheckValue>
        </RangeCheck>
        <RangeCheck SoftHard="Soft" def:ItemOID="IT.LB.LBCAT" Comparator="EQ">
          <CheckValue>BLOOD CELL MORPHOLOGY</CheckValue>
        </RangeCheck>
        <RangeCheck SoftHard="Soft" def:ItemOID="IT.LB.LBSCAT" Comparator="EQ">
          <CheckValue> </CheckValue>
        </RangeCheck>
        <RangeCheck SoftHard="Soft" def:ItemOID="IT.LB.LBSPEC" Comparator="EQ">
          <CheckValue>WHOLE BLOOD</CheckValue>
        </RangeCheck>
        <RangeCheck SoftHard="Soft" def:ItemOID="IT.LB.LBMETHOD" Comparator="EQ">
          <CheckValue>WRIGHT-GIEMSA STAIN</CheckValue>
        </RangeCheck>
        <RangeCheck SoftHard="Soft" def:ItemOID="IT.LB.LBFAST" Comparator="EQ">
          <CheckValue>Y</CheckValue>
        </RangeCheck>
      </def:WhereClauseDef>
      <def:WhereClauseDef OID="WC.LB.LBSTRESC.MCH">
        <RangeCheck SoftHard="Soft" def:ItemOID="IT.LB.LBTESTCD" Comparator="EQ">
          <CheckValue>MCH</CheckValue>
        </RangeCheck>
        <RangeCheck SoftHard="Soft" def:ItemOID="IT.LB.LBCAT" Comparator="EQ">
          <CheckValue>HEMATOLOGY</CheckValue>
        </RangeCheck>
        <RangeCheck SoftHard="Soft" def:ItemOID="IT.LB.LBSCAT" Comparator="EQ">
          <CheckValue> </CheckValue>
        </RangeCheck>
        <RangeCheck SoftHard="Soft" def:ItemOID="IT.LB.LBSPEC" Comparator="EQ">
          <CheckValue>WHOLE BLOOD</CheckValue>
        </RangeCheck>
        <RangeCheck SoftHard="Soft" def:ItemOID="IT.LB.LBMETHOD" Comparator="EQ">
          <CheckValue>CALCULATION</CheckValue>
        </RangeCheck>
        <RangeCheck SoftHard="Soft" def:ItemOID="IT.LB.LBFAST" Comparator="EQ">
          <CheckValue>Y</CheckValue>
        </RangeCheck>
      </def:WhereClauseDef>
      <def:WhereClauseDef OID="WC.LB.LBSTRESC.MCHC">
        <RangeCheck SoftHard="Soft" def:ItemOID="IT.LB.LBTESTCD" Comparator="EQ">
          <CheckValue>MCHC</CheckValue>
        </RangeCheck>
        <RangeCheck SoftHard="Soft" def:ItemOID="IT.LB.LBCAT" Comparator="EQ">
          <CheckValue>HEMATOLOGY</CheckValue>
        </RangeCheck>
        <RangeCheck SoftHard="Soft" def:ItemOID="IT.LB.LBSCAT" Comparator="EQ">
          <CheckValue> </CheckValue>
        </RangeCheck>
        <RangeCheck SoftHard="Soft" def:ItemOID="IT.LB.LBSPEC" Comparator="EQ">
          <CheckValue>WHOLE BLOOD</CheckValue>
        </RangeCheck>
        <RangeCheck SoftHard="Soft" def:ItemOID="IT.LB.LBMETHOD" Comparator="EQ">
          <CheckValue>CALCULATION</CheckValue>
        </RangeCheck>
        <RangeCheck SoftHard="Soft" def:ItemOID="IT.LB.LBFAST" Comparator="EQ">
          <CheckValue>Y</CheckValue>
        </RangeCheck>
      </def:WhereClauseDef>
      <def:WhereClauseDef OID="WC.LB.LBSTRESC.MCV">
        <RangeCheck SoftHard="Soft" def:ItemOID="IT.LB.LBTESTCD" Comparator="EQ">
          <CheckValue>MCV</CheckValue>
        </RangeCheck>
        <RangeCheck SoftHard="Soft" def:ItemOID="IT.LB.LBCAT" Comparator="EQ">
          <CheckValue>HEMATOLOGY</CheckValue>
        </RangeCheck>
        <RangeCheck SoftHard="Soft" def:ItemOID="IT.LB.LBSCAT" Comparator="EQ">
          <CheckValue> </CheckValue>
        </RangeCheck>
        <RangeCheck SoftHard="Soft" def:ItemOID="IT.LB.LBSPEC" Comparator="EQ">
          <CheckValue>WHOLE BLOOD</CheckValue>
        </RangeCheck>
        <RangeCheck SoftHard="Soft" def:ItemOID="IT.LB.LBMETHOD" Comparator="EQ">
          <CheckValue>FLOW CYTOMETRY</CheckValue>
        </RangeCheck>
        <RangeCheck SoftHard="Soft" def:ItemOID="IT.LB.LBFAST" Comparator="EQ">
          <CheckValue>Y</CheckValue>
        </RangeCheck>
      </def:WhereClauseDef>
      <def:WhereClauseDef OID="WC.LB.LBSTRESC.MONO1">
        <RangeCheck SoftHard="Soft" def:ItemOID="IT.LB.LBTESTCD" Comparator="EQ">
          <CheckValue>MONO</CheckValue>
        </RangeCheck>
        <RangeCheck SoftHard="Soft" def:ItemOID="IT.LB.LBCAT" Comparator="EQ">
          <CheckValue>HEMATOLOGY</CheckValue>
        </RangeCheck>
        <RangeCheck SoftHard="Soft" def:ItemOID="IT.LB.LBSCAT" Comparator="EQ">
          <CheckValue> </CheckValue>
        </RangeCheck>
        <RangeCheck SoftHard="Soft" def:ItemOID="IT.LB.LBSPEC" Comparator="EQ">
          <CheckValue>WHOLE BLOOD</CheckValue>
        </RangeCheck>
        <RangeCheck SoftHard="Soft" def:ItemOID="IT.LB.LBMETHOD" Comparator="EQ">
          <CheckValue>CALCULATION</CheckValue>
        </RangeCheck>
        <RangeCheck SoftHard="Soft" def:ItemOID="IT.LB.LBFAST" Comparator="EQ">
          <CheckValue>Y</CheckValue>
        </RangeCheck>
      </def:WhereClauseDef>
      <def:WhereClauseDef OID="WC.LB.LBSTRESC.MONO2">
        <RangeCheck SoftHard="Soft" def:ItemOID="IT.LB.LBTESTCD" Comparator="EQ">
          <CheckValue>MONO</CheckValue>
        </RangeCheck>
        <RangeCheck SoftHard="Soft" def:ItemOID="IT.LB.LBCAT" Comparator="EQ">
          <CheckValue>HEMATOLOGY</CheckValue>
        </RangeCheck>
        <RangeCheck SoftHard="Soft" def:ItemOID="IT.LB.LBSCAT" Comparator="EQ">
          <CheckValue>Differential</CheckValue>
        </RangeCheck>
        <RangeCheck SoftHard="Soft" def:ItemOID="IT.LB.LBSPEC" Comparator="EQ">
          <CheckValue>WHOLE BLOOD</CheckValue>
        </RangeCheck>
        <RangeCheck SoftHard="Soft" def:ItemOID="IT.LB.LBMETHOD" Comparator="EQ">
          <CheckValue>CALCULATION</CheckValue>
        </RangeCheck>
        <RangeCheck SoftHard="Soft" def:ItemOID="IT.LB.LBFAST" Comparator="EQ">
          <CheckValue>Y</CheckValue>
        </RangeCheck>
      </def:WhereClauseDef>
      <def:WhereClauseDef OID="WC.LB.LBSTRESC.MONOAT">
        <RangeCheck SoftHard="Soft" def:ItemOID="IT.LB.LBTESTCD" Comparator="EQ">
          <CheckValue>MONOAT</CheckValue>
        </RangeCheck>
        <RangeCheck SoftHard="Soft" def:ItemOID="IT.LB.LBCAT" Comparator="EQ">
          <CheckValue>BLOOD CELL MORPHOLOGY</CheckValue>
        </RangeCheck>
        <RangeCheck SoftHard="Soft" def:ItemOID="IT.LB.LBSCAT" Comparator="EQ">
          <CheckValue> </CheckValue>
        </RangeCheck>
        <RangeCheck SoftHard="Soft" def:ItemOID="IT.LB.LBSPEC" Comparator="EQ">
          <CheckValue>WHOLE BLOOD</CheckValue>
        </RangeCheck>
        <RangeCheck SoftHard="Soft" def:ItemOID="IT.LB.LBMETHOD" Comparator="EQ">
          <CheckValue>WRIGHT-GIEMSA STAIN</CheckValue>
        </RangeCheck>
        <RangeCheck SoftHard="Soft" def:ItemOID="IT.LB.LBFAST" Comparator="EQ">
          <CheckValue>Y</CheckValue>
        </RangeCheck>
      </def:WhereClauseDef>
      <def:WhereClauseDef OID="WC.LB.LBSTRESC.NEUT1">
        <RangeCheck SoftHard="Soft" def:ItemOID="IT.LB.LBTESTCD" Comparator="EQ">
          <CheckValue>NEUT</CheckValue>
        </RangeCheck>
        <RangeCheck SoftHard="Soft" def:ItemOID="IT.LB.LBCAT" Comparator="EQ">
          <CheckValue>HEMATOLOGY</CheckValue>
        </RangeCheck>
        <RangeCheck SoftHard="Soft" def:ItemOID="IT.LB.LBSCAT" Comparator="EQ">
          <CheckValue> </CheckValue>
        </RangeCheck>
        <RangeCheck SoftHard="Soft" def:ItemOID="IT.LB.LBSPEC" Comparator="EQ">
          <CheckValue>WHOLE BLOOD</CheckValue>
        </RangeCheck>
        <RangeCheck SoftHard="Soft" def:ItemOID="IT.LB.LBMETHOD" Comparator="EQ">
          <CheckValue>CALCULATION</CheckValue>
        </RangeCheck>
        <RangeCheck SoftHard="Soft" def:ItemOID="IT.LB.LBFAST" Comparator="EQ">
          <CheckValue>Y</CheckValue>
        </RangeCheck>
      </def:WhereClauseDef>
      <def:WhereClauseDef OID="WC.LB.LBSTRESC.NEUT2">
        <RangeCheck SoftHard="Soft" def:ItemOID="IT.LB.LBTESTCD" Comparator="EQ">
          <CheckValue>NEUT</CheckValue>
        </RangeCheck>
        <RangeCheck SoftHard="Soft" def:ItemOID="IT.LB.LBCAT" Comparator="EQ">
          <CheckValue>HEMATOLOGY</CheckValue>
        </RangeCheck>
        <RangeCheck SoftHard="Soft" def:ItemOID="IT.LB.LBSCAT" Comparator="EQ">
          <CheckValue>Differential</CheckValue>
        </RangeCheck>
        <RangeCheck SoftHard="Soft" def:ItemOID="IT.LB.LBSPEC" Comparator="EQ">
          <CheckValue>WHOLE BLOOD</CheckValue>
        </RangeCheck>
        <RangeCheck SoftHard="Soft" def:ItemOID="IT.LB.LBMETHOD" Comparator="EQ">
          <CheckValue>CALCULATION</CheckValue>
        </RangeCheck>
        <RangeCheck SoftHard="Soft" def:ItemOID="IT.LB.LBFAST" Comparator="EQ">
          <CheckValue>Y</CheckValue>
        </RangeCheck>
      </def:WhereClauseDef>
      <def:WhereClauseDef OID="WC.LB.LBSTRESC.NEUTB">
        <RangeCheck SoftHard="Soft" def:ItemOID="IT.LB.LBTESTCD" Comparator="EQ">
          <CheckValue>NEUTB</CheckValue>
        </RangeCheck>
        <RangeCheck SoftHard="Soft" def:ItemOID="IT.LB.LBCAT" Comparator="EQ">
          <CheckValue>HEMATOLOGY</CheckValue>
        </RangeCheck>
        <RangeCheck SoftHard="Soft" def:ItemOID="IT.LB.LBSCAT" Comparator="EQ">
          <CheckValue>Differential</CheckValue>
        </RangeCheck>
        <RangeCheck SoftHard="Soft" def:ItemOID="IT.LB.LBSPEC" Comparator="EQ">
          <CheckValue>WHOLE BLOOD</CheckValue>
        </RangeCheck>
        <RangeCheck SoftHard="Soft" def:ItemOID="IT.LB.LBMETHOD" Comparator="EQ">
          <CheckValue>CALCULATION</CheckValue>
        </RangeCheck>
        <RangeCheck SoftHard="Soft" def:ItemOID="IT.LB.LBFAST" Comparator="EQ">
          <CheckValue>Y</CheckValue>
        </RangeCheck>
      </def:WhereClauseDef>
      <def:WhereClauseDef OID="WC.LB.LBSTRESC.NEUTCYBS">
        <RangeCheck SoftHard="Soft" def:ItemOID="IT.LB.LBTESTCD" Comparator="EQ">
          <CheckValue>NEUTCYBS</CheckValue>
        </RangeCheck>
        <RangeCheck SoftHard="Soft" def:ItemOID="IT.LB.LBCAT" Comparator="EQ">
          <CheckValue>BLOOD CELL MORPHOLOGY</CheckValue>
        </RangeCheck>
        <RangeCheck SoftHard="Soft" def:ItemOID="IT.LB.LBSCAT" Comparator="EQ">
          <CheckValue> </CheckValue>
        </RangeCheck>
        <RangeCheck SoftHard="Soft" def:ItemOID="IT.LB.LBSPEC" Comparator="EQ">
          <CheckValue>WHOLE BLOOD</CheckValue>
        </RangeCheck>
        <RangeCheck SoftHard="Soft" def:ItemOID="IT.LB.LBMETHOD" Comparator="EQ">
          <CheckValue>WRIGHT-GIEMSA STAIN</CheckValue>
        </RangeCheck>
        <RangeCheck SoftHard="Soft" def:ItemOID="IT.LB.LBFAST" Comparator="EQ">
          <CheckValue>Y</CheckValue>
        </RangeCheck>
      </def:WhereClauseDef>
      <def:WhereClauseDef OID="WC.LB.LBSTRESC.PAPPEN">
        <RangeCheck SoftHard="Soft" def:ItemOID="IT.LB.LBTESTCD" Comparator="EQ">
          <CheckValue>PAPPEN</CheckValue>
        </RangeCheck>
        <RangeCheck SoftHard="Soft" def:ItemOID="IT.LB.LBCAT" Comparator="EQ">
          <CheckValue>BLOOD CELL MORPHOLOGY</CheckValue>
        </RangeCheck>
        <RangeCheck SoftHard="Soft" def:ItemOID="IT.LB.LBSCAT" Comparator="EQ">
          <CheckValue> </CheckValue>
        </RangeCheck>
        <RangeCheck SoftHard="Soft" def:ItemOID="IT.LB.LBSPEC" Comparator="EQ">
          <CheckValue>WHOLE BLOOD</CheckValue>
        </RangeCheck>
        <RangeCheck SoftHard="Soft" def:ItemOID="IT.LB.LBMETHOD" Comparator="EQ">
          <CheckValue>WRIGHT-GIEMSA STAIN</CheckValue>
        </RangeCheck>
        <RangeCheck SoftHard="Soft" def:ItemOID="IT.LB.LBFAST" Comparator="EQ">
          <CheckValue>Y</CheckValue>
        </RangeCheck>
      </def:WhereClauseDef>
      <def:WhereClauseDef OID="WC.LB.LBSTRESC.PLAT1">
        <RangeCheck SoftHard="Soft" def:ItemOID="IT.LB.LBTESTCD" Comparator="EQ">
          <CheckValue>PLAT</CheckValue>
        </RangeCheck>
        <RangeCheck SoftHard="Soft" def:ItemOID="IT.LB.LBCAT" Comparator="EQ">
          <CheckValue>BLOOD CELL MORPHOLOGY</CheckValue>
        </RangeCheck>
        <RangeCheck SoftHard="Soft" def:ItemOID="IT.LB.LBSCAT" Comparator="EQ">
          <CheckValue> </CheckValue>
        </RangeCheck>
        <RangeCheck SoftHard="Soft" def:ItemOID="IT.LB.LBSPEC" Comparator="EQ">
          <CheckValue>WHOLE BLOOD</CheckValue>
        </RangeCheck>
        <RangeCheck SoftHard="Soft" def:ItemOID="IT.LB.LBMETHOD" Comparator="EQ">
          <CheckValue>WRIGHT-GIEMSA STAIN</CheckValue>
        </RangeCheck>
        <RangeCheck SoftHard="Soft" def:ItemOID="IT.LB.LBFAST" Comparator="EQ">
          <CheckValue>Y</CheckValue>
        </RangeCheck>
      </def:WhereClauseDef>
      <def:WhereClauseDef OID="WC.LB.LBSTRESC.PLAT2">
        <RangeCheck SoftHard="Soft" def:ItemOID="IT.LB.LBTESTCD" Comparator="EQ">
          <CheckValue>PLAT</CheckValue>
        </RangeCheck>
        <RangeCheck SoftHard="Soft" def:ItemOID="IT.LB.LBCAT" Comparator="EQ">
          <CheckValue>HEMATOLOGY</CheckValue>
        </RangeCheck>
        <RangeCheck SoftHard="Soft" def:ItemOID="IT.LB.LBSCAT" Comparator="EQ">
          <CheckValue> </CheckValue>
        </RangeCheck>
        <RangeCheck SoftHard="Soft" def:ItemOID="IT.LB.LBSPEC" Comparator="EQ">
          <CheckValue>WHOLE BLOOD</CheckValue>
        </RangeCheck>
        <RangeCheck SoftHard="Soft" def:ItemOID="IT.LB.LBMETHOD" Comparator="EQ">
          <CheckValue>FLOW CYTOMETRY</CheckValue>
        </RangeCheck>
        <RangeCheck SoftHard="Soft" def:ItemOID="IT.LB.LBFAST" Comparator="EQ">
          <CheckValue>Y</CheckValue>
        </RangeCheck>
      </def:WhereClauseDef>
      <def:WhereClauseDef OID="WC.LB.LBSTRESC.PLATCLMP">
        <RangeCheck SoftHard="Soft" def:ItemOID="IT.LB.LBTESTCD" Comparator="EQ">
          <CheckValue>PLATCLMP</CheckValue>
        </RangeCheck>
        <RangeCheck SoftHard="Soft" def:ItemOID="IT.LB.LBCAT" Comparator="EQ">
          <CheckValue>BLOOD CELL MORPHOLOGY</CheckValue>
        </RangeCheck>
        <RangeCheck SoftHard="Soft" def:ItemOID="IT.LB.LBSCAT" Comparator="EQ">
          <CheckValue> </CheckValue>
        </RangeCheck>
        <RangeCheck SoftHard="Soft" def:ItemOID="IT.LB.LBSPEC" Comparator="EQ">
          <CheckValue>WHOLE BLOOD</CheckValue>
        </RangeCheck>
        <RangeCheck SoftHard="Soft" def:ItemOID="IT.LB.LBMETHOD" Comparator="EQ">
          <CheckValue>WRIGHT-GIEMSA STAIN</CheckValue>
        </RangeCheck>
        <RangeCheck SoftHard="Soft" def:ItemOID="IT.LB.LBFAST" Comparator="EQ">
          <CheckValue>Y</CheckValue>
        </RangeCheck>
      </def:WhereClauseDef>
      <def:WhereClauseDef OID="WC.LB.LBSTRESC.PLATLRG">
        <RangeCheck SoftHard="Soft" def:ItemOID="IT.LB.LBTESTCD" Comparator="EQ">
          <CheckValue>PLATLRG</CheckValue>
        </RangeCheck>
        <RangeCheck SoftHard="Soft" def:ItemOID="IT.LB.LBCAT" Comparator="EQ">
          <CheckValue>BLOOD CELL MORPHOLOGY</CheckValue>
        </RangeCheck>
        <RangeCheck SoftHard="Soft" def:ItemOID="IT.LB.LBSCAT" Comparator="EQ">
          <CheckValue> </CheckValue>
        </RangeCheck>
        <RangeCheck SoftHard="Soft" def:ItemOID="IT.LB.LBSPEC" Comparator="EQ">
          <CheckValue>WHOLE BLOOD</CheckValue>
        </RangeCheck>
        <RangeCheck SoftHard="Soft" def:ItemOID="IT.LB.LBMETHOD" Comparator="EQ">
          <CheckValue>WRIGHT-GIEMSA STAIN</CheckValue>
        </RangeCheck>
        <RangeCheck SoftHard="Soft" def:ItemOID="IT.LB.LBFAST" Comparator="EQ">
          <CheckValue>Y</CheckValue>
        </RangeCheck>
      </def:WhereClauseDef>
      <def:WhereClauseDef OID="WC.LB.LBSTRESC.POLYCHR">
        <RangeCheck SoftHard="Soft" def:ItemOID="IT.LB.LBTESTCD" Comparator="EQ">
          <CheckValue>POLYCHR</CheckValue>
        </RangeCheck>
        <RangeCheck SoftHard="Soft" def:ItemOID="IT.LB.LBCAT" Comparator="EQ">
          <CheckValue>BLOOD CELL MORPHOLOGY</CheckValue>
        </RangeCheck>
        <RangeCheck SoftHard="Soft" def:ItemOID="IT.LB.LBSCAT" Comparator="EQ">
          <CheckValue> </CheckValue>
        </RangeCheck>
        <RangeCheck SoftHard="Soft" def:ItemOID="IT.LB.LBSPEC" Comparator="EQ">
          <CheckValue>WHOLE BLOOD</CheckValue>
        </RangeCheck>
        <RangeCheck SoftHard="Soft" def:ItemOID="IT.LB.LBMETHOD" Comparator="EQ">
          <CheckValue>WRIGHT-GIEMSA STAIN</CheckValue>
        </RangeCheck>
        <RangeCheck SoftHard="Soft" def:ItemOID="IT.LB.LBFAST" Comparator="EQ">
          <CheckValue>Y</CheckValue>
        </RangeCheck>
      </def:WhereClauseDef>
      <def:WhereClauseDef OID="WC.LB.LBSTRESC.PROT">
        <RangeCheck SoftHard="Soft" def:ItemOID="IT.LB.LBTESTCD" Comparator="EQ">
          <CheckValue>PROT</CheckValue>
        </RangeCheck>
        <RangeCheck SoftHard="Soft" def:ItemOID="IT.LB.LBCAT" Comparator="EQ">
          <CheckValue>CLINICAL CHEMISTRY</CheckValue>
        </RangeCheck>
        <RangeCheck SoftHard="Soft" def:ItemOID="IT.LB.LBSCAT" Comparator="EQ">
          <CheckValue> </CheckValue>
        </RangeCheck>
        <RangeCheck SoftHard="Soft" def:ItemOID="IT.LB.LBSPEC" Comparator="EQ">
          <CheckValue>SERUM</CheckValue>
        </RangeCheck>
        <RangeCheck SoftHard="Soft" def:ItemOID="IT.LB.LBMETHOD" Comparator="EQ">
          <CheckValue>COLORIMETRY</CheckValue>
        </RangeCheck>
        <RangeCheck SoftHard="Soft" def:ItemOID="IT.LB.LBFAST" Comparator="EQ">
          <CheckValue>Y</CheckValue>
        </RangeCheck>
      </def:WhereClauseDef>
      <def:WhereClauseDef OID="WC.LB.LBSTRESC.PYKNOTIC">
        <RangeCheck SoftHard="Soft" def:ItemOID="IT.LB.LBTESTCD" Comparator="EQ">
          <CheckValue>PYKNOTIC</CheckValue>
        </RangeCheck>
        <RangeCheck SoftHard="Soft" def:ItemOID="IT.LB.LBCAT" Comparator="EQ">
          <CheckValue>BLOOD CELL MORPHOLOGY</CheckValue>
        </RangeCheck>
        <RangeCheck SoftHard="Soft" def:ItemOID="IT.LB.LBSCAT" Comparator="EQ">
          <CheckValue> </CheckValue>
        </RangeCheck>
        <RangeCheck SoftHard="Soft" def:ItemOID="IT.LB.LBSPEC" Comparator="EQ">
          <CheckValue>WHOLE BLOOD</CheckValue>
        </RangeCheck>
        <RangeCheck SoftHard="Soft" def:ItemOID="IT.LB.LBMETHOD" Comparator="EQ">
          <CheckValue>WRIGHT-GIEMSA STAIN</CheckValue>
        </RangeCheck>
        <RangeCheck SoftHard="Soft" def:ItemOID="IT.LB.LBFAST" Comparator="EQ">
          <CheckValue>Y</CheckValue>
        </RangeCheck>
      </def:WhereClauseDef>
      <def:WhereClauseDef OID="WC.LB.LBSTRESC.RBC">
        <RangeCheck SoftHard="Soft" def:ItemOID="IT.LB.LBTESTCD" Comparator="EQ">
          <CheckValue>RBC</CheckValue>
        </RangeCheck>
        <RangeCheck SoftHard="Soft" def:ItemOID="IT.LB.LBCAT" Comparator="EQ">
          <CheckValue>HEMATOLOGY</CheckValue>
        </RangeCheck>
        <RangeCheck SoftHard="Soft" def:ItemOID="IT.LB.LBSCAT" Comparator="EQ">
          <CheckValue> </CheckValue>
        </RangeCheck>
        <RangeCheck SoftHard="Soft" def:ItemOID="IT.LB.LBSPEC" Comparator="EQ">
          <CheckValue>WHOLE BLOOD</CheckValue>
        </RangeCheck>
        <RangeCheck SoftHard="Soft" def:ItemOID="IT.LB.LBMETHOD" Comparator="EQ">
          <CheckValue>FLOW CYTOMETRY</CheckValue>
        </RangeCheck>
        <RangeCheck SoftHard="Soft" def:ItemOID="IT.LB.LBFAST" Comparator="EQ">
          <CheckValue>Y</CheckValue>
        </RangeCheck>
      </def:WhereClauseDef>
      <def:WhereClauseDef OID="WC.LB.LBSTRESC.RBCAGGLU">
        <RangeCheck SoftHard="Soft" def:ItemOID="IT.LB.LBTESTCD" Comparator="EQ">
          <CheckValue>RBCAGGLU</CheckValue>
        </RangeCheck>
        <RangeCheck SoftHard="Soft" def:ItemOID="IT.LB.LBCAT" Comparator="EQ">
          <CheckValue>BLOOD CELL MORPHOLOGY</CheckValue>
        </RangeCheck>
        <RangeCheck SoftHard="Soft" def:ItemOID="IT.LB.LBSCAT" Comparator="EQ">
          <CheckValue> </CheckValue>
        </RangeCheck>
        <RangeCheck SoftHard="Soft" def:ItemOID="IT.LB.LBSPEC" Comparator="EQ">
          <CheckValue>WHOLE BLOOD</CheckValue>
        </RangeCheck>
        <RangeCheck SoftHard="Soft" def:ItemOID="IT.LB.LBMETHOD" Comparator="EQ">
          <CheckValue>WRIGHT-GIEMSA STAIN</CheckValue>
        </RangeCheck>
        <RangeCheck SoftHard="Soft" def:ItemOID="IT.LB.LBFAST" Comparator="EQ">
          <CheckValue>Y</CheckValue>
        </RangeCheck>
      </def:WhereClauseDef>
      <def:WhereClauseDef OID="WC.LB.LBSTRESC.RBCGHOST">
        <RangeCheck SoftHard="Soft" def:ItemOID="IT.LB.LBTESTCD" Comparator="EQ">
          <CheckValue>RBCGHOST</CheckValue>
        </RangeCheck>
        <RangeCheck SoftHard="Soft" def:ItemOID="IT.LB.LBCAT" Comparator="EQ">
          <CheckValue>BLOOD CELL MORPHOLOGY</CheckValue>
        </RangeCheck>
        <RangeCheck SoftHard="Soft" def:ItemOID="IT.LB.LBSCAT" Comparator="EQ">
          <CheckValue> </CheckValue>
        </RangeCheck>
        <RangeCheck SoftHard="Soft" def:ItemOID="IT.LB.LBSPEC" Comparator="EQ">
          <CheckValue>WHOLE BLOOD</CheckValue>
        </RangeCheck>
        <RangeCheck SoftHard="Soft" def:ItemOID="IT.LB.LBMETHOD" Comparator="EQ">
          <CheckValue>WRIGHT-GIEMSA STAIN</CheckValue>
        </RangeCheck>
        <RangeCheck SoftHard="Soft" def:ItemOID="IT.LB.LBFAST" Comparator="EQ">
          <CheckValue>Y</CheckValue>
        </RangeCheck>
      </def:WhereClauseDef>
      <def:WhereClauseDef OID="WC.LB.LBSTRESC.RBCNUC">
        <RangeCheck SoftHard="Soft" def:ItemOID="IT.LB.LBTESTCD" Comparator="EQ">
          <CheckValue>RBCNUC</CheckValue>
        </RangeCheck>
        <RangeCheck SoftHard="Soft" def:ItemOID="IT.LB.LBCAT" Comparator="EQ">
          <CheckValue>BLOOD CELL MORPHOLOGY</CheckValue>
        </RangeCheck>
        <RangeCheck SoftHard="Soft" def:ItemOID="IT.LB.LBSCAT" Comparator="EQ">
          <CheckValue> </CheckValue>
        </RangeCheck>
        <RangeCheck SoftHard="Soft" def:ItemOID="IT.LB.LBSPEC" Comparator="EQ">
          <CheckValue>WHOLE BLOOD</CheckValue>
        </RangeCheck>
        <RangeCheck SoftHard="Soft" def:ItemOID="IT.LB.LBMETHOD" Comparator="EQ">
          <CheckValue>WRIGHT-GIEMSA STAIN</CheckValue>
        </RangeCheck>
        <RangeCheck SoftHard="Soft" def:ItemOID="IT.LB.LBFAST" Comparator="EQ">
          <CheckValue>Y</CheckValue>
        </RangeCheck>
      </def:WhereClauseDef>
      <def:WhereClauseDef OID="WC.LB.LBSTRESC.RBCNUCLE">
        <RangeCheck SoftHard="Soft" def:ItemOID="IT.LB.LBTESTCD" Comparator="EQ">
          <CheckValue>RBCNUCLE</CheckValue>
        </RangeCheck>
        <RangeCheck SoftHard="Soft" def:ItemOID="IT.LB.LBCAT" Comparator="EQ">
          <CheckValue>HEMATOLOGY</CheckValue>
        </RangeCheck>
        <RangeCheck SoftHard="Soft" def:ItemOID="IT.LB.LBSCAT" Comparator="EQ">
          <CheckValue>Differential</CheckValue>
        </RangeCheck>
        <RangeCheck SoftHard="Soft" def:ItemOID="IT.LB.LBSPEC" Comparator="EQ">
          <CheckValue>WHOLE BLOOD</CheckValue>
        </RangeCheck>
        <RangeCheck SoftHard="Soft" def:ItemOID="IT.LB.LBMETHOD" Comparator="EQ">
          <CheckValue>WRIGHT-GIEMSA STAIN</CheckValue>
        </RangeCheck>
        <RangeCheck SoftHard="Soft" def:ItemOID="IT.LB.LBFAST" Comparator="EQ">
          <CheckValue>Y</CheckValue>
        </RangeCheck>
      </def:WhereClauseDef>
      <def:WhereClauseDef OID="WC.LB.LBSTRESC.RDW">
        <RangeCheck SoftHard="Soft" def:ItemOID="IT.LB.LBTESTCD" Comparator="EQ">
          <CheckValue>RDW</CheckValue>
        </RangeCheck>
        <RangeCheck SoftHard="Soft" def:ItemOID="IT.LB.LBCAT" Comparator="EQ">
          <CheckValue>HEMATOLOGY</CheckValue>
        </RangeCheck>
        <RangeCheck SoftHard="Soft" def:ItemOID="IT.LB.LBSCAT" Comparator="EQ">
          <CheckValue> </CheckValue>
        </RangeCheck>
        <RangeCheck SoftHard="Soft" def:ItemOID="IT.LB.LBSPEC" Comparator="EQ">
          <CheckValue>WHOLE BLOOD</CheckValue>
        </RangeCheck>
        <RangeCheck SoftHard="Soft" def:ItemOID="IT.LB.LBMETHOD" Comparator="EQ">
          <CheckValue>FLOW CYTOMETRY</CheckValue>
        </RangeCheck>
        <RangeCheck SoftHard="Soft" def:ItemOID="IT.LB.LBFAST" Comparator="EQ">
          <CheckValue>Y</CheckValue>
        </RangeCheck>
      </def:WhereClauseDef>
      <def:WhereClauseDef OID="WC.LB.LBSTRESC.RETI">
        <RangeCheck SoftHard="Soft" def:ItemOID="IT.LB.LBTESTCD" Comparator="EQ">
          <CheckValue>RETI</CheckValue>
        </RangeCheck>
        <RangeCheck SoftHard="Soft" def:ItemOID="IT.LB.LBCAT" Comparator="EQ">
          <CheckValue>HEMATOLOGY</CheckValue>
        </RangeCheck>
        <RangeCheck SoftHard="Soft" def:ItemOID="IT.LB.LBSCAT" Comparator="EQ">
          <CheckValue> </CheckValue>
        </RangeCheck>
        <RangeCheck SoftHard="Soft" def:ItemOID="IT.LB.LBSPEC" Comparator="EQ">
          <CheckValue>WHOLE BLOOD</CheckValue>
        </RangeCheck>
        <RangeCheck SoftHard="Soft" def:ItemOID="IT.LB.LBMETHOD" Comparator="EQ">
          <CheckValue>CALCULATION</CheckValue>
        </RangeCheck>
        <RangeCheck SoftHard="Soft" def:ItemOID="IT.LB.LBFAST" Comparator="EQ">
          <CheckValue>Y</CheckValue>
        </RangeCheck>
      </def:WhereClauseDef>
      <def:WhereClauseDef OID="WC.LB.LBSTRESC.ROULEAUX">
        <RangeCheck SoftHard="Soft" def:ItemOID="IT.LB.LBTESTCD" Comparator="EQ">
          <CheckValue>ROULEAUX</CheckValue>
        </RangeCheck>
        <RangeCheck SoftHard="Soft" def:ItemOID="IT.LB.LBCAT" Comparator="EQ">
          <CheckValue>BLOOD CELL MORPHOLOGY</CheckValue>
        </RangeCheck>
        <RangeCheck SoftHard="Soft" def:ItemOID="IT.LB.LBSCAT" Comparator="EQ">
          <CheckValue> </CheckValue>
        </RangeCheck>
        <RangeCheck SoftHard="Soft" def:ItemOID="IT.LB.LBSPEC" Comparator="EQ">
          <CheckValue>WHOLE BLOOD</CheckValue>
        </RangeCheck>
        <RangeCheck SoftHard="Soft" def:ItemOID="IT.LB.LBMETHOD" Comparator="EQ">
          <CheckValue>WRIGHT-GIEMSA STAIN</CheckValue>
        </RangeCheck>
        <RangeCheck SoftHard="Soft" def:ItemOID="IT.LB.LBFAST" Comparator="EQ">
          <CheckValue>Y</CheckValue>
        </RangeCheck>
      </def:WhereClauseDef>
      <def:WhereClauseDef OID="WC.LB.LBSTRESC.SCHISTO">
        <RangeCheck SoftHard="Soft" def:ItemOID="IT.LB.LBTESTCD" Comparator="EQ">
          <CheckValue>SCHISTO</CheckValue>
        </RangeCheck>
        <RangeCheck SoftHard="Soft" def:ItemOID="IT.LB.LBCAT" Comparator="EQ">
          <CheckValue>BLOOD CELL MORPHOLOGY</CheckValue>
        </RangeCheck>
        <RangeCheck SoftHard="Soft" def:ItemOID="IT.LB.LBSCAT" Comparator="EQ">
          <CheckValue> </CheckValue>
        </RangeCheck>
        <RangeCheck SoftHard="Soft" def:ItemOID="IT.LB.LBSPEC" Comparator="EQ">
          <CheckValue>WHOLE BLOOD</CheckValue>
        </RangeCheck>
        <RangeCheck SoftHard="Soft" def:ItemOID="IT.LB.LBMETHOD" Comparator="EQ">
          <CheckValue>WRIGHT-GIEMSA STAIN</CheckValue>
        </RangeCheck>
        <RangeCheck SoftHard="Soft" def:ItemOID="IT.LB.LBFAST" Comparator="EQ">
          <CheckValue>Y</CheckValue>
        </RangeCheck>
      </def:WhereClauseDef>
      <def:WhereClauseDef OID="WC.LB.LBSTRESC.SMDGCE">
        <RangeCheck SoftHard="Soft" def:ItemOID="IT.LB.LBTESTCD" Comparator="EQ">
          <CheckValue>SMDGCE</CheckValue>
        </RangeCheck>
        <RangeCheck SoftHard="Soft" def:ItemOID="IT.LB.LBCAT" Comparator="EQ">
          <CheckValue>BLOOD CELL MORPHOLOGY</CheckValue>
        </RangeCheck>
        <RangeCheck SoftHard="Soft" def:ItemOID="IT.LB.LBSCAT" Comparator="EQ">
          <CheckValue> </CheckValue>
        </RangeCheck>
        <RangeCheck SoftHard="Soft" def:ItemOID="IT.LB.LBSPEC" Comparator="EQ">
          <CheckValue>WHOLE BLOOD</CheckValue>
        </RangeCheck>
        <RangeCheck SoftHard="Soft" def:ItemOID="IT.LB.LBMETHOD" Comparator="EQ">
          <CheckValue>WRIGHT-GIEMSA STAIN</CheckValue>
        </RangeCheck>
        <RangeCheck SoftHard="Soft" def:ItemOID="IT.LB.LBFAST" Comparator="EQ">
          <CheckValue>Y</CheckValue>
        </RangeCheck>
      </def:WhereClauseDef>
      <def:WhereClauseDef OID="WC.LB.LBSTRESC.SODIUM">
        <RangeCheck SoftHard="Soft" def:ItemOID="IT.LB.LBTESTCD" Comparator="EQ">
          <CheckValue>SODIUM</CheckValue>
        </RangeCheck>
        <RangeCheck SoftHard="Soft" def:ItemOID="IT.LB.LBCAT" Comparator="EQ">
          <CheckValue>CLINICAL CHEMISTRY</CheckValue>
        </RangeCheck>
        <RangeCheck SoftHard="Soft" def:ItemOID="IT.LB.LBSCAT" Comparator="EQ">
          <CheckValue> </CheckValue>
        </RangeCheck>
        <RangeCheck SoftHard="Soft" def:ItemOID="IT.LB.LBSPEC" Comparator="EQ">
          <CheckValue>SERUM</CheckValue>
        </RangeCheck>
        <RangeCheck SoftHard="Soft" def:ItemOID="IT.LB.LBMETHOD" Comparator="EQ">
          <CheckValue>ION SELECTIVE ELECTRODE</CheckValue>
        </RangeCheck>
        <RangeCheck SoftHard="Soft" def:ItemOID="IT.LB.LBFAST" Comparator="EQ">
          <CheckValue>Y</CheckValue>
        </RangeCheck>
      </def:WhereClauseDef>
      <def:WhereClauseDef OID="WC.LB.LBSTRESC.SPHERO">
        <RangeCheck SoftHard="Soft" def:ItemOID="IT.LB.LBTESTCD" Comparator="EQ">
          <CheckValue>SPHERO</CheckValue>
        </RangeCheck>
        <RangeCheck SoftHard="Soft" def:ItemOID="IT.LB.LBCAT" Comparator="EQ">
          <CheckValue>BLOOD CELL MORPHOLOGY</CheckValue>
        </RangeCheck>
        <RangeCheck SoftHard="Soft" def:ItemOID="IT.LB.LBSCAT" Comparator="EQ">
          <CheckValue> </CheckValue>
        </RangeCheck>
        <RangeCheck SoftHard="Soft" def:ItemOID="IT.LB.LBSPEC" Comparator="EQ">
          <CheckValue>WHOLE BLOOD</CheckValue>
        </RangeCheck>
        <RangeCheck SoftHard="Soft" def:ItemOID="IT.LB.LBMETHOD" Comparator="EQ">
          <CheckValue>WRIGHT-GIEMSA STAIN</CheckValue>
        </RangeCheck>
        <RangeCheck SoftHard="Soft" def:ItemOID="IT.LB.LBFAST" Comparator="EQ">
          <CheckValue>Y</CheckValue>
        </RangeCheck>
      </def:WhereClauseDef>
      <def:WhereClauseDef OID="WC.LB.LBSTRESC.STIPBASO">
        <RangeCheck SoftHard="Soft" def:ItemOID="IT.LB.LBTESTCD" Comparator="EQ">
          <CheckValue>STIPBASO</CheckValue>
        </RangeCheck>
        <RangeCheck SoftHard="Soft" def:ItemOID="IT.LB.LBCAT" Comparator="EQ">
          <CheckValue>BLOOD CELL MORPHOLOGY</CheckValue>
        </RangeCheck>
        <RangeCheck SoftHard="Soft" def:ItemOID="IT.LB.LBSCAT" Comparator="EQ">
          <CheckValue> </CheckValue>
        </RangeCheck>
        <RangeCheck SoftHard="Soft" def:ItemOID="IT.LB.LBSPEC" Comparator="EQ">
          <CheckValue>WHOLE BLOOD</CheckValue>
        </RangeCheck>
        <RangeCheck SoftHard="Soft" def:ItemOID="IT.LB.LBMETHOD" Comparator="EQ">
          <CheckValue>WRIGHT-GIEMSA STAIN</CheckValue>
        </RangeCheck>
        <RangeCheck SoftHard="Soft" def:ItemOID="IT.LB.LBFAST" Comparator="EQ">
          <CheckValue>Y</CheckValue>
        </RangeCheck>
      </def:WhereClauseDef>
      <def:WhereClauseDef OID="WC.LB.LBSTRESC.UNPOIKIL">
        <RangeCheck SoftHard="Soft" def:ItemOID="IT.LB.LBTESTCD" Comparator="EQ">
          <CheckValue>UNPOIKIL</CheckValue>
        </RangeCheck>
        <RangeCheck SoftHard="Soft" def:ItemOID="IT.LB.LBCAT" Comparator="EQ">
          <CheckValue>BLOOD CELL MORPHOLOGY</CheckValue>
        </RangeCheck>
        <RangeCheck SoftHard="Soft" def:ItemOID="IT.LB.LBSCAT" Comparator="EQ">
          <CheckValue> </CheckValue>
        </RangeCheck>
        <RangeCheck SoftHard="Soft" def:ItemOID="IT.LB.LBSPEC" Comparator="EQ">
          <CheckValue>WHOLE BLOOD</CheckValue>
        </RangeCheck>
        <RangeCheck SoftHard="Soft" def:ItemOID="IT.LB.LBMETHOD" Comparator="EQ">
          <CheckValue>WRIGHT-GIEMSA STAIN</CheckValue>
        </RangeCheck>
        <RangeCheck SoftHard="Soft" def:ItemOID="IT.LB.LBFAST" Comparator="EQ">
          <CheckValue>Y</CheckValue>
        </RangeCheck>
      </def:WhereClauseDef>
      <def:WhereClauseDef OID="WC.LB.LBSTRESC.UREAN">
        <RangeCheck SoftHard="Soft" def:ItemOID="IT.LB.LBTESTCD" Comparator="EQ">
          <CheckValue>UREAN</CheckValue>
        </RangeCheck>
        <RangeCheck SoftHard="Soft" def:ItemOID="IT.LB.LBCAT" Comparator="EQ">
          <CheckValue>CLINICAL CHEMISTRY</CheckValue>
        </RangeCheck>
        <RangeCheck SoftHard="Soft" def:ItemOID="IT.LB.LBSCAT" Comparator="EQ">
          <CheckValue> </CheckValue>
        </RangeCheck>
        <RangeCheck SoftHard="Soft" def:ItemOID="IT.LB.LBSPEC" Comparator="EQ">
          <CheckValue>SERUM</CheckValue>
        </RangeCheck>
        <RangeCheck SoftHard="Soft" def:ItemOID="IT.LB.LBMETHOD" Comparator="EQ">
          <CheckValue>COLORIMETRY</CheckValue>
        </RangeCheck>
        <RangeCheck SoftHard="Soft" def:ItemOID="IT.LB.LBFAST" Comparator="EQ">
          <CheckValue>Y</CheckValue>
        </RangeCheck>
      </def:WhereClauseDef>
      <def:WhereClauseDef OID="WC.LB.LBSTRESC.WBC">
        <RangeCheck SoftHard="Soft" def:ItemOID="IT.LB.LBTESTCD" Comparator="EQ">
          <CheckValue>WBC</CheckValue>
        </RangeCheck>
        <RangeCheck SoftHard="Soft" def:ItemOID="IT.LB.LBCAT" Comparator="EQ">
          <CheckValue>HEMATOLOGY</CheckValue>
        </RangeCheck>
        <RangeCheck SoftHard="Soft" def:ItemOID="IT.LB.LBSCAT" Comparator="EQ">
          <CheckValue> </CheckValue>
        </RangeCheck>
        <RangeCheck SoftHard="Soft" def:ItemOID="IT.LB.LBSPEC" Comparator="EQ">
          <CheckValue>WHOLE BLOOD</CheckValue>
        </RangeCheck>
        <RangeCheck SoftHard="Soft" def:ItemOID="IT.LB.LBMETHOD" Comparator="EQ">
          <CheckValue>FLOW CYTOMETRY</CheckValue>
        </RangeCheck>
        <RangeCheck SoftHard="Soft" def:ItemOID="IT.LB.LBFAST" Comparator="EQ">
          <CheckValue>Y</CheckValue>
        </RangeCheck>
      </def:WhereClauseDef>
      <def:WhereClauseDef OID="WC.LB.LBSTRESC.WBCAGGLU">
        <RangeCheck SoftHard="Soft" def:ItemOID="IT.LB.LBTESTCD" Comparator="EQ">
          <CheckValue>WBCAGGLU</CheckValue>
        </RangeCheck>
        <RangeCheck SoftHard="Soft" def:ItemOID="IT.LB.LBCAT" Comparator="EQ">
          <CheckValue>BLOOD CELL MORPHOLOGY</CheckValue>
        </RangeCheck>
        <RangeCheck SoftHard="Soft" def:ItemOID="IT.LB.LBSCAT" Comparator="EQ">
          <CheckValue> </CheckValue>
        </RangeCheck>
        <RangeCheck SoftHard="Soft" def:ItemOID="IT.LB.LBSPEC" Comparator="EQ">
          <CheckValue>WHOLE BLOOD</CheckValue>
        </RangeCheck>
        <RangeCheck SoftHard="Soft" def:ItemOID="IT.LB.LBMETHOD" Comparator="EQ">
          <CheckValue>NEW METHYLENE BLUE</CheckValue>
        </RangeCheck>
        <RangeCheck SoftHard="Soft" def:ItemOID="IT.LB.LBFAST" Comparator="EQ">
          <CheckValue>Y</CheckValue>
        </RangeCheck>
      </def:WhereClauseDef>
      <def:WhereClauseDef OID="WC.PC.PCORRES.DRUG">
        <RangeCheck SoftHard="Soft" def:ItemOID="IT.PC.PCTESTCD" Comparator="EQ">
          <CheckValue>DRUG</CheckValue>
        </RangeCheck>
        <RangeCheck SoftHard="Soft" def:ItemOID="IT.PC.PCCAT" Comparator="EQ">
          <CheckValue>ANALYTE</CheckValue>
        </RangeCheck>
        <RangeCheck SoftHard="Soft" def:ItemOID="IT.PC.PCSPEC" Comparator="EQ">
          <CheckValue>PLASMA</CheckValue>
        </RangeCheck>
      </def:WhereClauseDef>
      <def:WhereClauseDef OID="WC.PC.PCSTRESC.DRUG">
        <RangeCheck SoftHard="Soft" def:ItemOID="IT.PC.PCTESTCD" Comparator="EQ">
          <CheckValue>DRUG</CheckValue>
        </RangeCheck>
        <RangeCheck SoftHard="Soft" def:ItemOID="IT.PC.PCCAT" Comparator="EQ">
          <CheckValue>ANALYTE</CheckValue>
        </RangeCheck>
        <RangeCheck SoftHard="Soft" def:ItemOID="IT.PC.PCSPEC" Comparator="EQ">
          <CheckValue>PLASMA</CheckValue>
        </RangeCheck>
      </def:WhereClauseDef>
      <def:WhereClauseDef OID="WC.SUPPCL.QVAL.CLRESMOD">
        <RangeCheck SoftHard="Soft" def:ItemOID="IT.SUPPCL.QNAM" Comparator="EQ">
          <CheckValue>CLRESMOD</CheckValue>
        </RangeCheck>
      </def:WhereClauseDef>
      <def:WhereClauseDef OID="WC.TS.TSVAL.AGETXT">
        <RangeCheck SoftHard="Soft" def:ItemOID="IT.TS.TSPARMCD" Comparator="EQ">
          <CheckValue>AGETXT</CheckValue>
        </RangeCheck>
      </def:WhereClauseDef>
      <def:WhereClauseDef OID="WC.TS.TSVAL.AGEU">
        <RangeCheck SoftHard="Soft" def:ItemOID="IT.TS.TSPARMCD" Comparator="EQ">
          <CheckValue>AGEU</CheckValue>
        </RangeCheck>
      </def:WhereClauseDef>
      <def:WhereClauseDef OID="WC.TS.TSVAL.DOSDUR">
        <RangeCheck SoftHard="Soft" def:ItemOID="IT.TS.TSPARMCD" Comparator="EQ">
          <CheckValue>DOSDUR</CheckValue>
        </RangeCheck>
      </def:WhereClauseDef>
      <def:WhereClauseDef OID="WC.TS.TSVAL.DOSENDTC">
        <RangeCheck SoftHard="Soft" def:ItemOID="IT.TS.TSPARMCD" Comparator="EQ">
          <CheckValue>DOSENDTC</CheckValue>
        </RangeCheck>
      </def:WhereClauseDef>
      <def:WhereClauseDef OID="WC.TS.TSVAL.DOSSTDTC">
        <RangeCheck SoftHard="Soft" def:ItemOID="IT.TS.TSPARMCD" Comparator="EQ">
          <CheckValue>DOSSTDTC</CheckValue>
        </RangeCheck>
      </def:WhereClauseDef>
      <def:WhereClauseDef OID="WC.TS.TSVAL.EXPENDTC">
        <RangeCheck SoftHard="Soft" def:ItemOID="IT.TS.TSPARMCD" Comparator="EQ">
          <CheckValue>EXPENDTC</CheckValue>
        </RangeCheck>
      </def:WhereClauseDef>
      <def:WhereClauseDef OID="WC.TS.TSVAL.EXPSTDTC">
        <RangeCheck SoftHard="Soft" def:ItemOID="IT.TS.TSPARMCD" Comparator="EQ">
          <CheckValue>EXPSTDTC</CheckValue>
        </RangeCheck>
      </def:WhereClauseDef>
      <def:WhereClauseDef OID="WC.TS.TSVAL.GLPFL">
        <RangeCheck SoftHard="Soft" def:ItemOID="IT.TS.TSPARMCD" Comparator="EQ">
          <CheckValue>GLPFL</CheckValue>
        </RangeCheck>
      </def:WhereClauseDef>
      <def:WhereClauseDef OID="WC.TS.TSVAL.PCLASS">
        <RangeCheck SoftHard="Soft" def:ItemOID="IT.TS.TSPARMCD" Comparator="EQ">
          <CheckValue>PCLASS</CheckValue>
        </RangeCheck>
      </def:WhereClauseDef>
      <def:WhereClauseDef OID="WC.TS.TSVAL.ROUTE">
        <RangeCheck SoftHard="Soft" def:ItemOID="IT.TS.TSPARMCD" Comparator="EQ">
          <CheckValue>ROUTE</CheckValue>
        </RangeCheck>
      </def:WhereClauseDef>
      <def:WhereClauseDef OID="WC.TS.TSVAL.SDESIGN">
        <RangeCheck SoftHard="Soft" def:ItemOID="IT.TS.TSPARMCD" Comparator="EQ">
          <CheckValue>SDESIGN</CheckValue>
        </RangeCheck>
      </def:WhereClauseDef>
      <def:WhereClauseDef OID="WC.TS.TSVAL.SLENGTH">
        <RangeCheck SoftHard="Soft" def:ItemOID="IT.TS.TSPARMCD" Comparator="EQ">
          <CheckValue>SLENGTH</CheckValue>
        </RangeCheck>
      </def:WhereClauseDef>
      <def:WhereClauseDef OID="WC.TS.TSVAL.SNDCTVER">
        <RangeCheck SoftHard="Soft" def:ItemOID="IT.TS.TSPARMCD" Comparator="EQ">
          <CheckValue>SNDCTVER</CheckValue>
        </RangeCheck>
      </def:WhereClauseDef>
      <def:WhereClauseDef OID="WC.TS.TSVAL.SNDIGVER">
        <RangeCheck SoftHard="Soft" def:ItemOID="IT.TS.TSPARMCD" Comparator="EQ">
          <CheckValue>SNDIGVER</CheckValue>
        </RangeCheck>
      </def:WhereClauseDef>
      <def:WhereClauseDef OID="WC.TS.TSVAL.SPECIES">
        <RangeCheck SoftHard="Soft" def:ItemOID="IT.TS.TSPARMCD" Comparator="EQ">
          <CheckValue>SPECIES</CheckValue>
        </RangeCheck>
      </def:WhereClauseDef>
      <def:WhereClauseDef OID="WC.TS.TSVAL.SPLANSUB">
        <RangeCheck SoftHard="Soft" def:ItemOID="IT.TS.TSPARMCD" Comparator="EQ">
          <CheckValue>SPLANSUB</CheckValue>
        </RangeCheck>
      </def:WhereClauseDef>
      <def:WhereClauseDef OID="WC.TS.TSVAL.SPLRNAM">
        <RangeCheck SoftHard="Soft" def:ItemOID="IT.TS.TSPARMCD" Comparator="EQ">
          <CheckValue>SPLRNAM</CheckValue>
        </RangeCheck>
      </def:WhereClauseDef>
      <def:WhereClauseDef OID="WC.TS.TSVAL.SPREFID">
        <RangeCheck SoftHard="Soft" def:ItemOID="IT.TS.TSPARMCD" Comparator="EQ">
          <CheckValue>SPREFID</CheckValue>
        </RangeCheck>
      </def:WhereClauseDef>
      <def:WhereClauseDef OID="WC.TS.TSVAL.SRANDOM">
        <RangeCheck SoftHard="Soft" def:ItemOID="IT.TS.TSPARMCD" Comparator="EQ">
          <CheckValue>SRANDOM</CheckValue>
        </RangeCheck>
      </def:WhereClauseDef>
      <def:WhereClauseDef OID="WC.TS.TSVAL.SSPONSOR">
        <RangeCheck SoftHard="Soft" def:ItemOID="IT.TS.TSPARMCD" Comparator="EQ">
          <CheckValue>SSPONSOR</CheckValue>
        </RangeCheck>
      </def:WhereClauseDef>
      <def:WhereClauseDef OID="WC.TS.TSVAL.SSTYP">
        <RangeCheck SoftHard="Soft" def:ItemOID="IT.TS.TSPARMCD" Comparator="EQ">
          <CheckValue>SSTYP</CheckValue>
        </RangeCheck>
      </def:WhereClauseDef>
      <def:WhereClauseDef OID="WC.TS.TSVAL.STCAT">
        <RangeCheck SoftHard="Soft" def:ItemOID="IT.TS.TSPARMCD" Comparator="EQ">
          <CheckValue>STCAT</CheckValue>
        </RangeCheck>
      </def:WhereClauseDef>
      <def:WhereClauseDef OID="WC.TS.TSVAL.STDIR">
        <RangeCheck SoftHard="Soft" def:ItemOID="IT.TS.TSPARMCD" Comparator="EQ">
          <CheckValue>STDIR</CheckValue>
        </RangeCheck>
      </def:WhereClauseDef>
      <def:WhereClauseDef OID="WC.TS.TSVAL.STENDTC">
        <RangeCheck SoftHard="Soft" def:ItemOID="IT.TS.TSPARMCD" Comparator="EQ">
          <CheckValue>STENDTC</CheckValue>
        </RangeCheck>
      </def:WhereClauseDef>
      <def:WhereClauseDef OID="WC.TS.TSVAL.STITLE">
        <RangeCheck SoftHard="Soft" def:ItemOID="IT.TS.TSPARMCD" Comparator="EQ">
          <CheckValue>STITLE</CheckValue>
        </RangeCheck>
      </def:WhereClauseDef>
      <def:WhereClauseDef OID="WC.TS.TSVAL.STRAIN">
        <RangeCheck SoftHard="Soft" def:ItemOID="IT.TS.TSPARMCD" Comparator="EQ">
          <CheckValue>STRAIN</CheckValue>
        </RangeCheck>
      </def:WhereClauseDef>
      <def:WhereClauseDef OID="WC.TS.TSVAL.STSTDTC">
        <RangeCheck SoftHard="Soft" def:ItemOID="IT.TS.TSPARMCD" Comparator="EQ">
          <CheckValue>STSTDTC</CheckValue>
        </RangeCheck>
      </def:WhereClauseDef>
      <def:WhereClauseDef OID="WC.TS.TSVAL.TFCNTRY">
        <RangeCheck SoftHard="Soft" def:ItemOID="IT.TS.TSPARMCD" Comparator="EQ">
          <CheckValue>TFCNTRY</CheckValue>
        </RangeCheck>
      </def:WhereClauseDef>
      <def:WhereClauseDef OID="WC.TS.TSVAL.TRMSAC">
        <RangeCheck SoftHard="Soft" def:ItemOID="IT.TS.TSPARMCD" Comparator="EQ">
          <CheckValue>TRMSAC</CheckValue>
        </RangeCheck>
      </def:WhereClauseDef>
      <def:WhereClauseDef OID="WC.TS.TSVAL.TRT">
        <RangeCheck SoftHard="Soft" def:ItemOID="IT.TS.TSPARMCD" Comparator="EQ">
          <CheckValue>TRT</CheckValue>
        </RangeCheck>
      </def:WhereClauseDef>
      <def:WhereClauseDef OID="WC.TS.TSVAL.TRTCAS">
        <RangeCheck SoftHard="Soft" def:ItemOID="IT.TS.TSPARMCD" Comparator="EQ">
          <CheckValue>TRTCAS</CheckValue>
        </RangeCheck>
      </def:WhereClauseDef>
      <def:WhereClauseDef OID="WC.TS.TSVAL.TRTUNII">
        <RangeCheck SoftHard="Soft" def:ItemOID="IT.TS.TSPARMCD" Comparator="EQ">
          <CheckValue>TRTUNII</CheckValue>
        </RangeCheck>
      </def:WhereClauseDef>
      <def:WhereClauseDef OID="WC.TS.TSVAL.TRTV">
        <RangeCheck SoftHard="Soft" def:ItemOID="IT.TS.TSPARMCD" Comparator="EQ">
          <CheckValue>TRTV</CheckValue>
        </RangeCheck>
      </def:WhereClauseDef>
      <def:WhereClauseDef OID="WC.TS.TSVAL.TSTFLOC">
        <RangeCheck SoftHard="Soft" def:ItemOID="IT.TS.TSPARMCD" Comparator="EQ">
          <CheckValue>TSTFLOC</CheckValue>
        </RangeCheck>
      </def:WhereClauseDef>
      <def:WhereClauseDef OID="WC.TS.TSVAL.TSTFNAM">
        <RangeCheck SoftHard="Soft" def:ItemOID="IT.TS.TSPARMCD" Comparator="EQ">
          <CheckValue>TSTFNAM</CheckValue>
        </RangeCheck>
      </def:WhereClauseDef>
      <def:WhereClauseDef OID="WC.TX.TXVAL.ARMCD">
        <RangeCheck SoftHard="Soft" def:ItemOID="IT.TX.TXPARMCD" Comparator="EQ">
          <CheckValue>ARMCD</CheckValue>
        </RangeCheck>
      </def:WhereClauseDef>
      <def:WhereClauseDef OID="WC.TX.TXVAL.GRPLBL">
        <RangeCheck SoftHard="Soft" def:ItemOID="IT.TX.TXPARMCD" Comparator="EQ">
          <CheckValue>GRPLBL</CheckValue>
        </RangeCheck>
      </def:WhereClauseDef>
      <def:WhereClauseDef OID="WC.TX.TXVAL.SETLBL">
        <RangeCheck SoftHard="Soft" def:ItemOID="IT.TX.TXPARMCD" Comparator="EQ">
          <CheckValue>SETLBL</CheckValue>
        </RangeCheck>
      </def:WhereClauseDef>
      <def:WhereClauseDef OID="WC.TX.TXVAL.SPGRPCD">
        <RangeCheck SoftHard="Soft" def:ItemOID="IT.TX.TXPARMCD" Comparator="EQ">
          <CheckValue>SPGRPCD</CheckValue>
        </RangeCheck>
      </def:WhereClauseDef>
      <def:WhereClauseDef OID="WC.TX.TXVAL.SPLANSUB">
        <RangeCheck SoftHard="Soft" def:ItemOID="IT.TX.TXPARMCD" Comparator="EQ">
          <CheckValue>SPLANSUB</CheckValue>
        </RangeCheck>
      </def:WhereClauseDef>
      <def:WhereClauseDef OID="WC.TX.TXVAL.TRTDOS">
        <RangeCheck SoftHard="Soft" def:ItemOID="IT.TX.TXPARMCD" Comparator="EQ">
          <CheckValue>TRTDOS</CheckValue>
        </RangeCheck>
      </def:WhereClauseDef>
      <def:WhereClauseDef OID="WC.TX.TXVAL.TRTDOSU">
        <RangeCheck SoftHard="Soft" def:ItemOID="IT.TX.TXPARMCD" Comparator="EQ">
          <CheckValue>TRTDOSU</CheckValue>
        </RangeCheck>
      </def:WhereClauseDef>
      <def:WhereClauseDef OID="WC.VS.VSORRES.TEMP1">
        <RangeCheck SoftHard="Soft" def:ItemOID="IT.VS.VSTESTCD" Comparator="EQ">
          <CheckValue>TEMP</CheckValue>
        </RangeCheck>
        <RangeCheck SoftHard="Soft" def:ItemOID="IT.VS.VSCAT" Comparator="EQ">
          <CheckValue>CONTINUOUS MONITORING</CheckValue>
        </RangeCheck>
      </def:WhereClauseDef>
      <def:WhereClauseDef OID="WC.VS.VSORRES.TEMP2">
        <RangeCheck SoftHard="Soft" def:ItemOID="IT.VS.VSTESTCD" Comparator="EQ">
          <CheckValue>TEMP</CheckValue>
        </RangeCheck>
        <RangeCheck SoftHard="Soft" def:ItemOID="IT.VS.VSCAT" Comparator="EQ">
          <CheckValue>PHYSICAL EXAM</CheckValue>
        </RangeCheck>
      </def:WhereClauseDef>
      <def:WhereClauseDef OID="WC.VS.VSSTRESC.TEMP1">
        <RangeCheck SoftHard="Soft" def:ItemOID="IT.VS.VSTESTCD" Comparator="EQ">
          <CheckValue>TEMP</CheckValue>
        </RangeCheck>
        <RangeCheck SoftHard="Soft" def:ItemOID="IT.VS.VSCAT" Comparator="EQ">
          <CheckValue>CONTINUOUS MONITORING</CheckValue>
        </RangeCheck>
      </def:WhereClauseDef>
      <def:WhereClauseDef OID="WC.VS.VSSTRESC.TEMP2">
        <RangeCheck SoftHard="Soft" def:ItemOID="IT.VS.VSTESTCD" Comparator="EQ">
          <CheckValue>TEMP</CheckValue>
        </RangeCheck>
        <RangeCheck SoftHard="Soft" def:ItemOID="IT.VS.VSCAT" Comparator="EQ">
          <CheckValue>PHYSICAL EXAM</CheckValue>
        </RangeCheck>
      </def:WhereClauseDef>
      <ItemGroupDef OID="IG.TA" Domain="TA" Name="TA" Repeating="No" IsReferenceData="Yes" SASDatasetName="TA" Purpose="Tabulation" def:Structure="One record per planned Element per Arm" def:Class="TRIAL DESIGN" def:ArchiveLocationID="LF.TA">
        <Description>
          <TranslatedText xml:lang="en">Trial Arms</TranslatedText>
        </Description>
        <ItemRef ItemOID="IT.TA.STUDYID" OrderNumber="1" Mandatory="Yes" KeySequence="1"/>
        <ItemRef ItemOID="IT.TA.DOMAIN" OrderNumber="2" Mandatory="Yes"/>
        <ItemRef ItemOID="IT.TA.ARMCD" OrderNumber="3" Mandatory="Yes" KeySequence="2"/>
        <ItemRef ItemOID="IT.TA.ARM" OrderNumber="4" Mandatory="Yes"/>
        <ItemRef ItemOID="IT.TA.TAETORD" OrderNumber="5" Mandatory="Yes" KeySequence="3"/>
        <ItemRef ItemOID="IT.TA.ETCD" OrderNumber="6" Mandatory="Yes"/>
        <ItemRef ItemOID="IT.TA.ELEMENT" OrderNumber="7" Mandatory="No"/>
        <ItemRef ItemOID="IT.TA.EPOCH" OrderNumber="8" Mandatory="No"/>
        <def:leaf ID="LF.TA" xlink:href="ta.xpt">
          <def:title>ta.xpt</def:title>
        </def:leaf>
      </ItemGroupDef>
      <ItemGroupDef OID="IG.TE" Domain="TE" Name="TE" Repeating="No" IsReferenceData="Yes" SASDatasetName="TE" Purpose="Tabulation" def:Structure="One record per planned Element" def:Class="TRIAL DESIGN" def:ArchiveLocationID="LF.TE">
        <Description>
          <TranslatedText xml:lang="en">Trial Elements</TranslatedText>
        </Description>
        <ItemRef ItemOID="IT.TE.STUDYID" OrderNumber="1" Mandatory="Yes" KeySequence="1"/>
        <ItemRef ItemOID="IT.TE.DOMAIN" OrderNumber="2" Mandatory="Yes"/>
        <ItemRef ItemOID="IT.TE.ETCD" OrderNumber="3" Mandatory="Yes" KeySequence="2"/>
        <ItemRef ItemOID="IT.TE.ELEMENT" OrderNumber="4" Mandatory="Yes"/>
        <ItemRef ItemOID="IT.TE.TESTRL" OrderNumber="5" Mandatory="Yes"/>
        <ItemRef ItemOID="IT.TE.TEENRL" OrderNumber="6" Mandatory="No"/>
        <def:leaf ID="LF.TE" xlink:href="te.xpt">
          <def:title>te.xpt</def:title>
        </def:leaf>
      </ItemGroupDef>
      <ItemGroupDef OID="IG.TS" Domain="TS" Name="TS" Repeating="No" IsReferenceData="Yes" SASDatasetName="TS" Purpose="Tabulation" def:Structure="One record per trial summary parameter value" def:Class="TRIAL DESIGN" def:ArchiveLocationID="LF.TS">
        <Description>
          <TranslatedText xml:lang="en">Trial Summary</TranslatedText>
        </Description>
        <ItemRef ItemOID="IT.TS.STUDYID" OrderNumber="1" Mandatory="Yes" KeySequence="1"/>
        <ItemRef ItemOID="IT.TS.DOMAIN" OrderNumber="2" Mandatory="Yes"/>
        <ItemRef ItemOID="IT.TS.TSSEQ" OrderNumber="3" Mandatory="Yes"/>
        <ItemRef ItemOID="IT.TS.TSGRPID" OrderNumber="4" Mandatory="No" KeySequence="2"/>
        <ItemRef ItemOID="IT.TS.TSPARMCD" OrderNumber="5" Mandatory="Yes" KeySequence="3"/>
        <ItemRef ItemOID="IT.TS.TSPARM" OrderNumber="6" Mandatory="Yes"/>
        <ItemRef ItemOID="IT.TS.TSVAL" OrderNumber="7" Mandatory="Yes" KeySequence="4"/>
        <ItemRef ItemOID="IT.TS.TSVALNF" OrderNumber="8" Mandatory="Yes"/>
        <def:leaf ID="LF.TS" xlink:href="ts.xpt">
          <def:title>ts.xpt</def:title>
        </def:leaf>
      </ItemGroupDef>
      <ItemGroupDef OID="IG.TX" Domain="TX" Name="TX" Repeating="No" IsReferenceData="Yes" SASDatasetName="TX" Purpose="Tabulation" def:Structure="One record per trial set parameter per trial set" def:Class="TRIAL DESIGN" def:ArchiveLocationID="LF.TX">
        <Description>
          <TranslatedText xml:lang="en">Trial Sets</TranslatedText>
        </Description>
        <ItemRef ItemOID="IT.TX.STUDYID" OrderNumber="1" Mandatory="Yes" KeySequence="1"/>
        <ItemRef ItemOID="IT.TX.DOMAIN" OrderNumber="2" Mandatory="Yes"/>
        <ItemRef ItemOID="IT.TX.SETCD" OrderNumber="3" Mandatory="Yes" KeySequence="2"/>
        <ItemRef ItemOID="IT.TX.SET" OrderNumber="4" Mandatory="Yes"/>
        <ItemRef ItemOID="IT.TX.TXSEQ" OrderNumber="5" Mandatory="Yes"/>
        <ItemRef ItemOID="IT.TX.TXPARMCD" OrderNumber="6" Mandatory="Yes" KeySequence="3"/>
        <ItemRef ItemOID="IT.TX.TXPARM" OrderNumber="7" Mandatory="Yes"/>
        <ItemRef ItemOID="IT.TX.TXVAL" OrderNumber="8" Mandatory="Yes"/>
        <def:leaf ID="LF.TX" xlink:href="tx.xpt">
          <def:title>tx.xpt</def:title>
        </def:leaf>
      </ItemGroupDef>
      <ItemGroupDef OID="IG.DM" Domain="DM" Name="DM" Repeating="No" IsReferenceData="No" SASDatasetName="DM" Purpose="Tabulation" def:Structure="One record per subject" def:Class="SPECIAL PURPOSE" def:ArchiveLocationID="LF.DM">
        <Description>
          <TranslatedText xml:lang="en">Demographics</TranslatedText>
        </Description>
        <ItemRef ItemOID="IT.DM.STUDYID" OrderNumber="1" Mandatory="Yes" KeySequence="1"/>
        <ItemRef ItemOID="IT.DM.DOMAIN" OrderNumber="2" Mandatory="Yes"/>
        <ItemRef ItemOID="IT.DM.USUBJID" OrderNumber="3" Mandatory="Yes" KeySequence="2" MethodOID="MT.COMPUSUBJID"/>
        <ItemRef ItemOID="IT.DM.SUBJID" OrderNumber="4" Mandatory="Yes"/>
        <ItemRef ItemOID="IT.DM.RFSTDTC" OrderNumber="5" Mandatory="Yes"/>
        <ItemRef ItemOID="IT.DM.RFENDTC" OrderNumber="6" Mandatory="No"/>
        <ItemRef ItemOID="IT.DM.RFXSTDTC" OrderNumber="7" Mandatory="No"/>
        <ItemRef ItemOID="IT.DM.RFXENDTC" OrderNumber="8" Mandatory="No"/>
        <ItemRef ItemOID="IT.DM.BRTHDTC" OrderNumber="9" Mandatory="No"/>
        <ItemRef ItemOID="IT.DM.AGE" OrderNumber="10" Mandatory="No" MethodOID="MT.COMPAGE"/>
        <ItemRef ItemOID="IT.DM.AGEU" OrderNumber="11" Mandatory="No"/>
        <ItemRef ItemOID="IT.DM.SEX" OrderNumber="12" Mandatory="Yes"/>
        <ItemRef ItemOID="IT.DM.ARMCD" OrderNumber="13" Mandatory="No"/>
        <ItemRef ItemOID="IT.DM.ARM" OrderNumber="14" Mandatory="No"/>
        <ItemRef ItemOID="IT.DM.SETCD" OrderNumber="15" Mandatory="Yes"/>
        <def:leaf ID="LF.DM" xlink:href="dm.xpt">
          <def:title>dm.xpt</def:title>
        </def:leaf>
      </ItemGroupDef>
      <ItemGroupDef OID="IG.SE" Domain="SE" Name="SE" Repeating="Yes" IsReferenceData="No" SASDatasetName="SE" Purpose="Tabulation" def:Structure="One record per element experienced per subject" def:Class="SPECIAL PURPOSE" def:ArchiveLocationID="LF.SE">
        <Description>
          <TranslatedText xml:lang="en">Subject Elements</TranslatedText>
        </Description>
        <ItemRef ItemOID="IT.SE.STUDYID" OrderNumber="1" Mandatory="Yes" KeySequence="1"/>
        <ItemRef ItemOID="IT.SE.DOMAIN" OrderNumber="2" Mandatory="Yes"/>
        <ItemRef ItemOID="IT.SE.USUBJID" OrderNumber="3" Mandatory="Yes" KeySequence="2" MethodOID="MT.COMPUSUBJID"/>
        <ItemRef ItemOID="IT.SE.SESEQ" OrderNumber="4" Mandatory="Yes"/>
        <ItemRef ItemOID="IT.SE.ETCD" OrderNumber="5" Mandatory="Yes" KeySequence="3"/>
        <ItemRef ItemOID="IT.SE.ELEMENT" OrderNumber="6" Mandatory="No"/>
        <ItemRef ItemOID="IT.SE.SESTDTC" OrderNumber="7" Mandatory="Yes" KeySequence="4"/>
        <ItemRef ItemOID="IT.SE.SEENDTC" OrderNumber="8" Mandatory="No"/>
        <def:leaf ID="LF.SE" xlink:href="se.xpt">
          <def:title>se.xpt</def:title>
        </def:leaf>
      </ItemGroupDef>
      <ItemGroupDef OID="IG.EX" Domain="EX" Name="EX" Repeating="Yes" IsReferenceData="No" SASDatasetName="EX" Purpose="Tabulation" def:Structure="One record per constant dosing interval treatment per subject or pool" def:Class="INTERVENTIONS" def:ArchiveLocationID="LF.EX">
        <Description>
          <TranslatedText xml:lang="en">Exposure</TranslatedText>
        </Description>
        <ItemRef ItemOID="IT.EX.STUDYID" OrderNumber="1" Mandatory="Yes" KeySequence="1"/>
        <ItemRef ItemOID="IT.EX.DOMAIN" OrderNumber="2" Mandatory="Yes"/>
        <ItemRef ItemOID="IT.EX.USUBJID" OrderNumber="3" Mandatory="No" KeySequence="2" MethodOID="MT.COMPUSUBJID"/>
        <ItemRef ItemOID="IT.EX.EXSEQ" OrderNumber="4" Mandatory="Yes"/>
        <ItemRef ItemOID="IT.EX.EXTRT" OrderNumber="5" Mandatory="Yes" KeySequence="3"/>
        <ItemRef ItemOID="IT.EX.EXDOSE" OrderNumber="6" Mandatory="No"/>
        <ItemRef ItemOID="IT.EX.EXDOSU" OrderNumber="7" Mandatory="No"/>
        <ItemRef ItemOID="IT.EX.EXDOSFRM" OrderNumber="8" Mandatory="No"/>
        <ItemRef ItemOID="IT.EX.EXDOSFRQ" OrderNumber="9" Mandatory="Yes"/>
        <ItemRef ItemOID="IT.EX.EXROUTE" OrderNumber="10" Mandatory="Yes" KeySequence="4"/>
        <ItemRef ItemOID="IT.EX.EXLOT" OrderNumber="11" Mandatory="No"/>
        <ItemRef ItemOID="IT.EX.EXTRTV" OrderNumber="12" Mandatory="No"/>
        <ItemRef ItemOID="IT.EX.EXVAMT" OrderNumber="13" Mandatory="No"/>
        <ItemRef ItemOID="IT.EX.EXVAMTU" OrderNumber="14" Mandatory="No"/>
        <ItemRef ItemOID="IT.EX.EXSTDTC" OrderNumber="15" Mandatory="No" KeySequence="6"/>
        <ItemRef ItemOID="IT.EX.EXSTDY" OrderNumber="16" Mandatory="No" MethodOID="MT.COMPEXSTDY"/>
        <def:leaf ID="LF.EX" xlink:href="ex.xpt">
          <def:title>ex.xpt</def:title>
        </def:leaf>
      </ItemGroupDef>
      <ItemGroupDef OID="IG.DS" Domain="DS" Name="DS" Repeating="No" IsReferenceData="No" SASDatasetName="DS" Purpose="Tabulation" def:Structure="One record per subject" def:Class="EVENTS" def:ArchiveLocationID="LF.DS">
        <Description>
          <TranslatedText xml:lang="en">Disposition</TranslatedText>
        </Description>
        <ItemRef ItemOID="IT.DS.STUDYID" OrderNumber="1" Mandatory="Yes" KeySequence="1"/>
        <ItemRef ItemOID="IT.DS.DOMAIN" OrderNumber="2" Mandatory="Yes"/>
        <ItemRef ItemOID="IT.DS.USUBJID" OrderNumber="3" Mandatory="Yes" KeySequence="2" MethodOID="MT.COMPUSUBJID"/>
        <ItemRef ItemOID="IT.DS.DSSEQ" OrderNumber="4" Mandatory="Yes"/>
        <ItemRef ItemOID="IT.DS.DSTERM" OrderNumber="5" Mandatory="Yes"/>
        <ItemRef ItemOID="IT.DS.DSDECOD" OrderNumber="6" Mandatory="Yes"/>
        <ItemRef ItemOID="IT.DS.DSUSCHFL" OrderNumber="7" Mandatory="No"/>
        <ItemRef ItemOID="IT.DS.DSSTDTC" OrderNumber="8" Mandatory="Yes"/>
        <ItemRef ItemOID="IT.DS.DSSTDY" OrderNumber="9" Mandatory="No" MethodOID="MT.COMPSTDY"/>
        <ItemRef ItemOID="IT.DS.DSNOMDY" OrderNumber="10" Mandatory="No"/>
        <ItemRef ItemOID="IT.DS.DSNOMLBL" OrderNumber="11" Mandatory="No"/>
        <def:leaf ID="LF.DS" xlink:href="ds.xpt">
          <def:title>ds.xpt</def:title>
        </def:leaf>
      </ItemGroupDef>
      <ItemGroupDef OID="IG.BW" Domain="BW" Name="BW" Repeating="Yes" IsReferenceData="No" SASDatasetName="BW" Purpose="Tabulation" def:Structure="One record per test per observation time per subject" def:Class="FINDINGS" def:ArchiveLocationID="LF.BW">
        <Description>
          <TranslatedText xml:lang="en">Body Weight</TranslatedText>
        </Description>
        <ItemRef ItemOID="IT.BW.STUDYID" OrderNumber="1" Mandatory="Yes" KeySequence="1"/>
        <ItemRef ItemOID="IT.BW.DOMAIN" OrderNumber="2" Mandatory="Yes"/>
        <ItemRef ItemOID="IT.BW.USUBJID" OrderNumber="3" Mandatory="Yes" KeySequence="2" MethodOID="MT.COMPUSUBJID"/>
        <ItemRef ItemOID="IT.BW.BWSEQ" OrderNumber="4" Mandatory="Yes"/>
        <ItemRef ItemOID="IT.BW.BWTESTCD" OrderNumber="5" Mandatory="Yes" KeySequence="3"/>
        <ItemRef ItemOID="IT.BW.BWTEST" OrderNumber="6" Mandatory="Yes"/>
        <ItemRef ItemOID="IT.BW.BWORRES" OrderNumber="7" Mandatory="No"/>
        <ItemRef ItemOID="IT.BW.BWORRESU" OrderNumber="8" Mandatory="No"/>
        <ItemRef ItemOID="IT.BW.BWSTRESC" OrderNumber="9" Mandatory="No" MethodOID="MT.COMPSTRESC"/>
        <ItemRef ItemOID="IT.BW.BWSTRESN" OrderNumber="10" Mandatory="No" MethodOID="MT.COMPSTRESN"/>
        <ItemRef ItemOID="IT.BW.BWSTRESU" OrderNumber="11" Mandatory="No" MethodOID="MT.COMPSTRESU"/>
        <ItemRef ItemOID="IT.BW.BWBLFL" OrderNumber="12" Mandatory="No" MethodOID="MT.COMPBLFL"/>
        <ItemRef ItemOID="IT.BW.BWDTC" OrderNumber="13" Mandatory="No" KeySequence="4"/>
        <ItemRef ItemOID="IT.BW.BWDY" OrderNumber="14" Mandatory="No" MethodOID="MT.COMPDY"/>
        <ItemRef ItemOID="IT.BW.BWNOMDY" OrderNumber="15" Mandatory="No"/>
        <ItemRef ItemOID="IT.BW.BWNOMLBL" OrderNumber="16" Mandatory="No"/>
        <def:leaf ID="LF.BW" xlink:href="bw.xpt">
          <def:title>bw.xpt</def:title>
        </def:leaf>
      </ItemGroupDef>
      <ItemGroupDef OID="IG.CL" Domain="CL" Name="CL" Repeating="Yes" IsReferenceData="No" SASDatasetName="CL" Purpose="Tabulation" def:Structure="One record per finding per observation time per subject or pool" def:Class="FINDINGS" def:ArchiveLocationID="LF.CL">
        <Description>
          <TranslatedText xml:lang="en">Clinical Observations</TranslatedText>
        </Description>
        <ItemRef ItemOID="IT.CL.STUDYID" OrderNumber="1" Mandatory="Yes" KeySequence="1"/>
        <ItemRef ItemOID="IT.CL.DOMAIN" OrderNumber="2" Mandatory="Yes"/>
        <ItemRef ItemOID="IT.CL.USUBJID" OrderNumber="3" Mandatory="No" KeySequence="2" MethodOID="MT.COMPUSUBJID"/>
        <ItemRef ItemOID="IT.CL.CLSEQ" OrderNumber="4" Mandatory="Yes"/>
        <ItemRef ItemOID="IT.CL.CLTESTCD" OrderNumber="5" Mandatory="Yes" KeySequence="3"/>
        <ItemRef ItemOID="IT.CL.CLTEST" OrderNumber="6" Mandatory="Yes"/>
        <ItemRef ItemOID="IT.CL.CLCAT" OrderNumber="7" Mandatory="Yes" KeySequence="4"/>
        <ItemRef ItemOID="IT.CL.CLSCAT" OrderNumber="8" Mandatory="No" KeySequence="5"/>
        <ItemRef ItemOID="IT.CL.CLORRES" OrderNumber="9" Mandatory="No" KeySequence="6" MethodOID="MT.COMPCLORRES"/>
        <ItemRef ItemOID="IT.CL.CLSTRESC" OrderNumber="10" Mandatory="No" MethodOID="MT.COMPSTRESC"/>
        <ItemRef ItemOID="IT.CL.CLLOC" OrderNumber="11" Mandatory="No" KeySequence="7"/>
        <ItemRef ItemOID="IT.CL.CLUSCHFL" OrderNumber="12" Mandatory="No"/>
        <ItemRef ItemOID="IT.CL.CLDTC" OrderNumber="13" Mandatory="No" KeySequence="8"/>
        <ItemRef ItemOID="IT.CL.CLDY" OrderNumber="14" Mandatory="No" MethodOID="MT.COMPDY"/>
        <ItemRef ItemOID="IT.CL.CLNOMDY" OrderNumber="15" Mandatory="No"/>
        <ItemRef ItemOID="IT.CL.CLNOMLBL" OrderNumber="16" Mandatory="No"/>
        <ItemRef ItemOID="IT.CL.CLTPT" OrderNumber="17" Mandatory="No"/>
        <ItemRef ItemOID="IT.CL.CLTPTNUM" OrderNumber="18" Mandatory="No"/>
        <ItemRef ItemOID="IT.CL.CLELTM" OrderNumber="19" Mandatory="No"/>
        <ItemRef ItemOID="IT.CL.CLTPTREF" OrderNumber="20" Mandatory="No"/>
        <ItemRef ItemOID="IT.CL.CLRFTDTC" OrderNumber="21" Mandatory="No"/>
        <def:leaf ID="LF.CL" xlink:href="cl.xpt">
          <def:title>cl.xpt</def:title>
        </def:leaf>
      </ItemGroupDef>
      <ItemGroupDef OID="IG.CV" Domain="CV" Name="CV" Repeating="Yes" IsReferenceData="No" SASDatasetName="CV" Purpose="Tabulation" def:Structure="One record per test per observation time or evaluation interval per subject" def:Class="FINDINGS" def:ArchiveLocationID="LF.CV">
        <Description>
          <TranslatedText xml:lang="en">Cardiovascular Test Results</TranslatedText>
        </Description>
        <ItemRef ItemOID="IT.CV.STUDYID" OrderNumber="1" Mandatory="Yes" KeySequence="1"/>
        <ItemRef ItemOID="IT.CV.DOMAIN" OrderNumber="2" Mandatory="Yes"/>
        <ItemRef ItemOID="IT.CV.USUBJID" OrderNumber="3" Mandatory="Yes" KeySequence="2" MethodOID="MT.COMPUSUBJID"/>
        <ItemRef ItemOID="IT.CV.CVSEQ" OrderNumber="4" Mandatory="Yes"/>
        <ItemRef ItemOID="IT.CV.CVTESTCD" OrderNumber="5" Mandatory="Yes" KeySequence="3"/>
        <ItemRef ItemOID="IT.CV.CVTEST" OrderNumber="6" Mandatory="Yes"/>
        <ItemRef ItemOID="IT.CV.CVPOS" OrderNumber="7" Mandatory="No"/>
        <ItemRef ItemOID="IT.CV.CVORRES" OrderNumber="8" Mandatory="No"/>
        <ItemRef ItemOID="IT.CV.CVORRESU" OrderNumber="9" Mandatory="No"/>
        <ItemRef ItemOID="IT.CV.CVSTRESC" OrderNumber="10" Mandatory="No" MethodOID="MT.COMPSTRESC"/>
        <ItemRef ItemOID="IT.CV.CVSTRESN" OrderNumber="11" Mandatory="No" MethodOID="MT.COMPSTRESN"/>
        <ItemRef ItemOID="IT.CV.CVSTRESU" OrderNumber="12" Mandatory="No" MethodOID="MT.COMPSTRESU"/>
        <ItemRef ItemOID="IT.CV.CVMETHOD" OrderNumber="13" Mandatory="No"/>
        <ItemRef ItemOID="IT.CV.CVCSTATE" OrderNumber="14" Mandatory="No"/>
        <ItemRef ItemOID="IT.CV.CVBLFL" OrderNumber="15" Mandatory="No" MethodOID="MT.COMPBLFL"/>
        <ItemRef ItemOID="IT.CV.CVDTC" OrderNumber="16" Mandatory="No" KeySequence="4"/>
        <ItemRef ItemOID="IT.CV.CVENDTC" OrderNumber="17" Mandatory="No"/>
        <ItemRef ItemOID="IT.CV.CVDY" OrderNumber="18" Mandatory="No" MethodOID="MT.COMPDY"/>
        <ItemRef ItemOID="IT.CV.CVENDY" OrderNumber="19" Mandatory="No" MethodOID="MT.COMPENDY"/>
        <ItemRef ItemOID="IT.CV.CVNOMDY" OrderNumber="20" Mandatory="No"/>
        <ItemRef ItemOID="IT.CV.CVNOMLBL" OrderNumber="21" Mandatory="No"/>
        <ItemRef ItemOID="IT.CV.CVTPT" OrderNumber="22" Mandatory="No"/>
        <ItemRef ItemOID="IT.CV.CVTPTNUM" OrderNumber="23" Mandatory="No"/>
        <ItemRef ItemOID="IT.CV.CVELTM" OrderNumber="24" Mandatory="No"/>
        <ItemRef ItemOID="IT.CV.CVTPTREF" OrderNumber="25" Mandatory="No"/>
        <ItemRef ItemOID="IT.CV.CVRFTDTC" OrderNumber="26" Mandatory="No"/>
        <ItemRef ItemOID="IT.CV.CVSTINT" OrderNumber="27" Mandatory="No"/>
        <ItemRef ItemOID="IT.CV.CVENINT" OrderNumber="28" Mandatory="No"/>
        <def:leaf ID="LF.CV" xlink:href="cv.xpt">
          <def:title>cv.xpt</def:title>
        </def:leaf>
      </ItemGroupDef>
      <ItemGroupDef OID="IG.EG" Domain="EG" Name="EG" Repeating="Yes" IsReferenceData="No" SASDatasetName="EG" Purpose="Tabulation" def:Structure="One record per test per observation time per subject" def:Class="FINDINGS" def:ArchiveLocationID="LF.EG">
        <Description>
          <TranslatedText xml:lang="en">ECG Test Results</TranslatedText>
        </Description>
        <ItemRef ItemOID="IT.EG.STUDYID" OrderNumber="1" Mandatory="Yes" KeySequence="1"/>
        <ItemRef ItemOID="IT.EG.DOMAIN" OrderNumber="2" Mandatory="Yes"/>
        <ItemRef ItemOID="IT.EG.USUBJID" OrderNumber="3" Mandatory="Yes" KeySequence="2" MethodOID="MT.COMPUSUBJID"/>
        <ItemRef ItemOID="IT.EG.EGSEQ" OrderNumber="4" Mandatory="Yes"/>
        <ItemRef ItemOID="IT.EG.EGTESTCD" OrderNumber="5" Mandatory="Yes" KeySequence="3"/>
        <ItemRef ItemOID="IT.EG.EGTEST" OrderNumber="6" Mandatory="Yes"/>
        <ItemRef ItemOID="IT.EG.EGCAT" OrderNumber="7" Mandatory="No"/>
        <ItemRef ItemOID="IT.EG.EGPOS" OrderNumber="8" Mandatory="No"/>
        <ItemRef ItemOID="IT.EG.EGORRES" OrderNumber="9" Mandatory="No"/>
        <ItemRef ItemOID="IT.EG.EGORRESU" OrderNumber="10" Mandatory="No"/>
        <ItemRef ItemOID="IT.EG.EGSTRESC" OrderNumber="11" Mandatory="No" MethodOID="MT.COMPSTRESC"/>
        <ItemRef ItemOID="IT.EG.EGSTRESN" OrderNumber="12" Mandatory="No" MethodOID="MT.COMPSTRESN"/>
        <ItemRef ItemOID="IT.EG.EGSTRESU" OrderNumber="13" Mandatory="No" MethodOID="MT.COMPSTRESU"/>
        <ItemRef ItemOID="IT.EG.EGMETHOD" OrderNumber="14" Mandatory="No"/>
        <ItemRef ItemOID="IT.EG.EGLEAD" OrderNumber="15" Mandatory="No"/>
        <ItemRef ItemOID="IT.EG.EGCSTATE" OrderNumber="16" Mandatory="No"/>
        <ItemRef ItemOID="IT.EG.EGBLFL" OrderNumber="17" Mandatory="No" MethodOID="MT.COMPBLFL"/>
        <ItemRef ItemOID="IT.EG.EGDTC" OrderNumber="18" Mandatory="No" KeySequence="4"/>
        <ItemRef ItemOID="IT.EG.EGENDTC" OrderNumber="19" Mandatory="No"/>
        <ItemRef ItemOID="IT.EG.EGDY" OrderNumber="20" Mandatory="No" MethodOID="MT.COMPDY"/>
        <ItemRef ItemOID="IT.EG.EGENDY" OrderNumber="21" Mandatory="No" MethodOID="MT.COMPENDY"/>
