KeyWords: MedDRA, MedDRA at a Glance
Script: 
  Desc   : > 
    The MedDRA at a Glance Analysis Panel shows the user the adverse events 
     that occurred in the study according to their place in the MedDRA 
     hierarchy and allows them to compare any two arms according to a number 
     of statistics.
  Name   : ae_meddra_w_flag_generation_v1.sas 
  GCR    : r135
  SRV    : 12345
  Source : FDA JumpStart
  Target : https://github.com/phuse-org/phuse-scripts/blob/master/tested/SAS/SpecDocs/Analysis%20Panel%20Instructions.doc
  Title  : MedDRA at a Glance Analysis Panel
  Topic  : MedDRA
  Type   : Analysis
  Subtype: TFL
Package:
  name : SAS Analysis Panels
  title: FDA JumpStart analysis package
Language: 
  name   : SAS
  version: 9.2.x, 9.4.x
Comments: >
  The MedDRA at a Glance Analysis Panel shows the user the adverse events
  that occurred in the study according to their place in the MedDRA 
  hierarchy, using the system organ class (SOC), high-level group term 
  (HLGT), high-level term (HLT), and preferred term (PT). The user can 
  choose which two arms to compare and set thresholds which determine 
  whether the risk difference, relative risk, or negative log p-value 
  for difference in proportion between the two arms is a signal of interest. 
  The user can also sort and filter by any of the information contained in 
  the report.
  Dataset Requirements:
     Demographics          (DM)
     Adverse Event           (AE)
     Exposure           (EX)     
     MedDRA hierarchy – need to specify what version of MedDRA
     Designated Medical Events
  Variable Requirements:
     DM      - Actual Arm                (ACTARM)
          - Planned Treatment Arm     (ARM)
          - Subject ID               (USUBJID)
          - Planned Arm Code               (ARMCD)
          - Subject Reference Start Date/Time     (RFSTDTC)
          - Subject Reference End Date/Time     (RFENDTC)
     AE     - Subject ID               (USUBJID)
          - Body system/organ class     (AEBODSYS)
          - Dictionary Derived Term     (AEDECOD)
          - Toxicity Grade               (AETOXGR)
          -Adverse Event Start Date/Time     (AESTDTC)
     EX     - Subject ID          (USUBJID)
          - Exposure Start Date/Time     (EXSTDTC)
          - Exposure End Date/Time     (EXENDTC)
     MedDRA Hierarchy for correct version
     Designated Medical Events
Inputs:
  datasets: dat1, dat2, dat3
  P1: String - dataset name
  P2: Number - depart id
  P3: String - subject id
Outputs:
  datasets: out1, out2, out3
  O1:
  O2:
Authors: 
  - name   : David Kretch 
    email  : david.kretch@us.ibm.com
    company: FDA/IBM
    date   : 02/12/2011
  - name   : 
    email  : 
    company: 
    date   : 
Qualification: 
  LastQualDate: MM/DD/YYYY 
  LastQualBy: FirstName LastName
  Stage: T
  Document: a link to latest documentation 
  Note: C - Contributed; D - Development; T - Testing; Q - Qualified
Stages: 
  - Date: 02/02/2016
    Name: Austin Taylor <Austin.Taylor@fda.hhs.gov>
    Stage: C 
    Docs: https://github.com/phuse-org/phuse-scripts/blob/master/tested/SAS/SpecDocs/MedDRA%20at%20a%20Glance%20Analysis%20Specifications%20(12-8-2015).doc
  - Date: 03/08/2016
    Name: Yanmei Li
    Stage: T
    Docs: https://github.com/phuse-org/phuse-scripts/blob/master/tested/SAS/MedDRA/ae_meddra_w_flag_generation_v1.docx
Rating: 
  - User: Yanmei Li
    Date: 03/08/2016
    Association: Lilly
    Stars: 4.5
  - User: htu 
    Date: 03/10/2016 
    Association: Accenture
    Stars: 5
