"STUDYID","DOMAIN","USUBJID","BWSEQ","BWTESTCD","BWTEST","BWORRES","BWORRESU","BWSTRESC","BWSTRESN","BWSTRESU","BWSTAT","BWREASND","BWBLFL","BWFAST","BWEXCLFL","BWREASEX","VISITDY","BWDTC","BWDY"
"PDS2014","BW","PDS2014-0001",1,"BW","Body Weight","299.9","g","299.9",299.9,"g",NA,NA,NA,NA,NA,NA,-4,"2010-12-07T10:33:05",-4
"PDS2014","BW","PDS2014-0001",2,"BW","Body Weight","331.5","g","331.5",331.5,"g",NA,NA,"Y",NA,NA,NA,1,"2010-12-11T09:30:45",1
"PDS2014","BW","PDS2014-0001",3,"BW","Body Weight","333.3","g","333.3",333.3,"g",NA,NA,NA,NA,NA,NA,2,"2010-12-12T10:26:08",2
"PDS2014","BW","PDS2014-0001",4,"BW","Body Weight","337.4","g","337.4",337.4,"g",NA,NA,NA,NA,NA,NA,3,"2010-12-13T11:02:13",3
"PDS2014","BW","PDS2014-0001",5,"BW","Body Weight","342.4","g","342.4",342.4,"g",NA,NA,NA,NA,NA,NA,4,"2010-12-14T09:45:52",4
"PDS2014","BW","PDS2014-0001",6,"BW","Body Weight","351.2","g","351.2",351.2,"g",NA,NA,NA,NA,NA,NA,5,"2010-12-15T08:30:03",5
"PDS2014","BW","PDS2014-0001",7,"BW","Body Weight","356","g","356",356,"g",NA,NA,NA,NA,NA,NA,6,"2010-12-16T08:52:09",6
"PDS2014","BW","PDS2014-0001",8,"BW","Body Weight","366.3","g","366.3",366.3,"g",NA,NA,NA,NA,NA,NA,7,"2010-12-17T07:58:00",7
"PDS2014","BW","PDS2014-0001",9,"BW","Body Weight","369.2","g","369.2",369.2,"g",NA,NA,NA,NA,NA,NA,8,"2010-12-18T08:04:08",8
"PDS2014","BW","PDS2014-0001",10,"BW","Body Weight","368.2","g","368.2",368.2,"g",NA,NA,NA,NA,NA,NA,9,"2010-12-19T11:35:13",9
"PDS2014","BW","PDS2014-0001",11,"BW","Body Weight","375.6","g","375.6",375.6,"g",NA,NA,NA,NA,NA,NA,10,"2010-12-20T10:49:26",10
"PDS2014","BW","PDS2014-0001",12,"BW","Body Weight","384.9","g","384.9",384.9,"g",NA,NA,NA,NA,NA,NA,11,"2010-12-21T07:22:17",11
"PDS2014","BW","PDS2014-0001",13,"BW","Body Weight","387.3","g","387.3",387.3,"g",NA,NA,NA,NA,NA,NA,12,"2010-12-22T08:01:54",12
"PDS2014","BW","PDS2014-0001",14,"BW","Body Weight","397.6","g","397.6",397.6,"g",NA,NA,NA,NA,NA,NA,13,"2010-12-23T07:21:22",13
"PDS2014","BW","PDS2014-0001",15,"BW","Body Weight","397.8","g","397.8",397.8,"g",NA,NA,NA,NA,NA,NA,14,"2010-12-24T07:52:20",14
"PDS2014","BW","PDS2014-0001",16,"BW","Body Weight","402.6","g","402.6",402.6,"g",NA,NA,NA,NA,NA,NA,15,"2010-12-25T07:27:00",15
"PDS2014","BW","PDS2014-0001",17,"BW","Body Weight","404.5","g","404.5",404.5,"g",NA,NA,NA,NA,NA,NA,16,"2010-12-26T07:04:54",16
"PDS2014","BW","PDS2014-0001",18,"BW","Body Weight","413.5","g","413.5",413.5,"g",NA,NA,NA,NA,NA,NA,17,"2010-12-27T09:51:24",17
"PDS2014","BW","PDS2014-0001",19,"BW","Body Weight","415.9","g","415.9",415.9,"g",NA,NA,NA,NA,NA,NA,18,"2010-12-28T07:49:32",18
"PDS2014","BW","PDS2014-0001",20,"BW","Body Weight","420.5","g","420.5",420.5,"g",NA,NA,NA,NA,NA,NA,19,"2010-12-29T09:22:58",19
"PDS2014","BW","PDS2014-0001",21,"BW","Body Weight","424.5","g","424.5",424.5,"g",NA,NA,NA,NA,NA,NA,20,"2010-12-30T08:00:57",20
"PDS2014","BW","PDS2014-0001",22,"BW","Body Weight","427.8","g","427.8",427.8,"g",NA,NA,NA,NA,NA,NA,21,"2010-12-31T08:45:07",21
"PDS2014","BW","PDS2014-0001",23,"BW","Body Weight","434.9","g","434.9",434.9,"g",NA,NA,NA,NA,NA,NA,22,"2011-01-01T06:37:02",22
"PDS2014","BW","PDS2014-0001",24,"BW","Body Weight","433.8","g","433.8",433.8,"g",NA,NA,NA,NA,NA,NA,23,"2011-01-02T08:11:06",23
"PDS2014","BW","PDS2014-0001",25,"BW","Body Weight","432.4","g","432.4",432.4,"g",NA,NA,NA,NA,NA,NA,24,"2011-01-03T08:31:04",24
"PDS2014","BW","PDS2014-0001",26,"BW","Body Weight","437.7","g","437.7",437.7,"g",NA,NA,NA,NA,NA,NA,25,"2011-01-04T08:20:42",25
"PDS2014","BW","PDS2014-0001",27,"BW","Body Weight","439.9","g","439.9",439.9,"g",NA,NA,NA,NA,NA,NA,26,"2011-01-05T08:11:26",26
"PDS2014","BW","PDS2014-0001",28,"BW","Body Weight","443.3","g","443.3",443.3,"g",NA,NA,NA,NA,NA,NA,27,"2011-01-06T08:49:25",27
"PDS2014","BW","PDS2014-0001",29,"BW","Body Weight","436.4","g","436.4",436.4,"g",NA,NA,NA,NA,NA,NA,28,"2011-01-07T07:14:11",28
"PDS2014","BW","PDS2014-0001",30,"BW","Body Weight","440.1","g","440.1",440.1,"g",NA,NA,NA,NA,NA,NA,29,"2011-01-08T07:12:32",29
"PDS2014","BW","PDS2014-0001",31,"BW","Body Weight","410.6","g","410.6",410.6,"g",NA,NA,NA,NA,NA,NA,30,"2011-01-09T07:34:03",30
"PDS2014","BW","PDS2014-0001",32,"TERMBW","Terminal Body Weight","411.7","g","411.7",411.7,"g",NA,NA,NA,NA,NA,NA,30,"2011-01-09T09:41:00",30
"PDS2014","BW","PDS2014-0002",33,"BW","Body Weight","289.6","g","289.6",289.6,"g",NA,NA,NA,NA,NA,NA,-4,"2010-12-07T10:34:39",-4
"PDS2014","BW","PDS2014-0002",34,"BW","Body Weight","322.6","g","322.6",322.6,"g",NA,NA,"Y",NA,NA,NA,1,"2010-12-11T09:30:21",1
"PDS2014","BW","PDS2014-0002",35,"BW","Body Weight","319.7","g","319.7",319.7,"g",NA,NA,NA,NA,NA,NA,2,"2010-12-12T10:28:16",2
"PDS2014","BW","PDS2014-0002",36,"BW","Body Weight","327.9","g","327.9",327.9,"g",NA,NA,NA,NA,NA,NA,3,"2010-12-13T11:01:35",3
"PDS2014","BW","PDS2014-0002",37,"BW","Body Weight","332.9","g","332.9",332.9,"g",NA,NA,NA,NA,NA,NA,4,"2010-12-14T09:45:11",4
"PDS2014","BW","PDS2014-0002",38,"BW","Body Weight","338.3","g","338.3",338.3,"g",NA,NA,NA,NA,NA,NA,5,"2010-12-15T08:30:19",5
"PDS2014","BW","PDS2014-0002",39,"BW","Body Weight","355.1","g","355.1",355.1,"g",NA,NA,NA,NA,NA,NA,6,"2010-12-16T08:51:54",6
"PDS2014","BW","PDS2014-0002",40,"BW","Body Weight","351","g","351",351,"g",NA,NA,NA,NA,NA,NA,7,"2010-12-17T07:57:37",7
"PDS2014","BW","PDS2014-0002",41,"BW","Body Weight","357.8","g","357.8",357.8,"g",NA,NA,NA,NA,NA,NA,8,"2010-12-18T07:47:52",8
"PDS2014","BW","PDS2014-0002",42,"BW","Body Weight","356.1","g","356.1",356.1,"g",NA,NA,NA,NA,NA,NA,9,"2010-12-19T11:33:08",9
"PDS2014","BW","PDS2014-0002",43,"BW","Body Weight","349.9","g","349.9",349.9,"g",NA,NA,NA,NA,NA,NA,10,"2010-12-20T10:50:33",10
"PDS2014","BW","PDS2014-0002",44,"BW","Body Weight","370.8","g","370.8",370.8,"g",NA,NA,NA,NA,NA,NA,11,"2010-12-21T07:21:55",11
"PDS2014","BW","PDS2014-0002",45,"BW","Body Weight","364.7","g","364.7",364.7,"g",NA,NA,NA,NA,NA,NA,12,"2010-12-22T08:01:15",12
"PDS2014","BW","PDS2014-0002",46,"BW","Body Weight","374.4","g","374.4",374.4,"g",NA,NA,NA,NA,NA,NA,13,"2010-12-23T07:20:48",13
"PDS2014","BW","PDS2014-0002",47,"BW","Body Weight","378.6","g","378.6",378.6,"g",NA,NA,NA,NA,NA,NA,14,"2010-12-24T07:51:17",14
"PDS2014","BW","PDS2014-0002",48,"BW","Body Weight","384.9","g","384.9",384.9,"g",NA,NA,NA,NA,NA,NA,15,"2010-12-25T07:25:31",15
"PDS2014","BW","PDS2014-0002",49,"BW","Body Weight","386.2","g","386.2",386.2,"g",NA,NA,NA,NA,NA,NA,16,"2010-12-26T07:04:28",16
"PDS2014","BW","PDS2014-0002",50,"BW","Body Weight","392.1","g","392.1",392.1,"g",NA,NA,NA,NA,NA,NA,17,"2010-12-27T09:52:29",17
"PDS2014","BW","PDS2014-0002",51,"BW","Body Weight","399.3","g","399.3",399.3,"g",NA,NA,NA,NA,NA,NA,18,"2010-12-28T07:48:14",18
"PDS2014","BW","PDS2014-0002",52,"BW","Body Weight","400.2","g","400.2",400.2,"g",NA,NA,NA,NA,NA,NA,19,"2010-12-29T09:24:59",19
"PDS2014","BW","PDS2014-0002",53,"BW","Body Weight","405.9","g","405.9",405.9,"g",NA,NA,NA,NA,NA,NA,20,"2010-12-30T07:59:54",20
"PDS2014","BW","PDS2014-0002",54,"BW","Body Weight","407.5","g","407.5",407.5,"g",NA,NA,NA,NA,NA,NA,21,"2010-12-31T08:46:56",21
"PDS2014","BW","PDS2014-0002",55,"BW","Body Weight","415.1","g","415.1",415.1,"g",NA,NA,NA,NA,NA,NA,22,"2011-01-01T06:37:50",22
"PDS2014","BW","PDS2014-0002",56,"BW","Body Weight","415.9","g","415.9",415.9,"g",NA,NA,NA,NA,NA,NA,23,"2011-01-02T08:11:48",23
"PDS2014","BW","PDS2014-0002",57,"BW","Body Weight","412.9","g","412.9",412.9,"g",NA,NA,NA,NA,NA,NA,24,"2011-01-03T08:31:40",24
"PDS2014","BW","PDS2014-0002",58,"BW","Body Weight","414.4","g","414.4",414.4,"g",NA,NA,NA,NA,NA,NA,25,"2011-01-04T08:22:11",25
"PDS2014","BW","PDS2014-0002",59,"BW","Body Weight","420.8","g","420.8",420.8,"g",NA,NA,NA,NA,NA,NA,26,"2011-01-05T08:13:05",26
"PDS2014","BW","PDS2014-0002",60,"BW","Body Weight","419.5","g","419.5",419.5,"g",NA,NA,NA,NA,NA,NA,27,"2011-01-06T08:48:41",27
"PDS2014","BW","PDS2014-0002",61,"BW","Body Weight","428.8","g","428.8",428.8,"g",NA,NA,NA,NA,NA,NA,28,"2011-01-07T07:14:35",28
"PDS2014","BW","PDS2014-0002",62,"BW","Body Weight","424.3","g","424.3",424.3,"g",NA,NA,NA,NA,NA,NA,29,"2011-01-08T07:12:11",29
"PDS2014","BW","PDS2014-0002",63,"BW","Body Weight","389.1","g","389.1",389.1,"g",NA,NA,NA,NA,NA,NA,30,"2011-01-09T07:41:36",30
"PDS2014","BW","PDS2014-0002",64,"TERMBW","Terminal Body Weight","389.1","g","389.1",389.1,"g",NA,NA,NA,NA,NA,NA,30,"2011-01-09T11:26:20",30
"PDS2014","BW","PDS2014-0003",65,"BW","Body Weight","303","g","303",303,"g",NA,NA,NA,NA,NA,NA,-4,"2010-12-07T10:39:48",-4
"PDS2014","BW","PDS2014-0003",66,"BW","Body Weight","347.3","g","347.3",347.3,"g",NA,NA,"Y",NA,NA,NA,1,"2010-12-11T09:30:01",1
"PDS2014","BW","PDS2014-0003",67,"BW","Body Weight","347.9","g","347.9",347.9,"g",NA,NA,NA,NA,NA,NA,2,"2010-12-12T10:26:59",2
"PDS2014","BW","PDS2014-0003",68,"BW","Body Weight","357.5","g","357.5",357.5,"g",NA,NA,NA,NA,NA,NA,3,"2010-12-13T11:00:44",3
"PDS2014","BW","PDS2014-0003",69,"BW","Body Weight","369.9","g","369.9",369.9,"g",NA,NA,NA,NA,NA,NA,4,"2010-12-14T09:46:55",4
"PDS2014","BW","PDS2014-0003",70,"BW","Body Weight","376.5","g","376.5",376.5,"g",NA,NA,NA,NA,NA,NA,5,"2010-12-15T08:29:31",5
"PDS2014","BW","PDS2014-0003",71,"BW","Body Weight","388.8","g","388.8",388.8,"g",NA,NA,NA,NA,NA,NA,6,"2010-12-16T08:52:37",6
"PDS2014","BW","PDS2014-0003",72,"BW","Body Weight","402.7","g","402.7",402.7,"g",NA,NA,NA,NA,NA,NA,7,"2010-12-17T07:56:23",7
"PDS2014","BW","PDS2014-0003",73,"BW","Body Weight","417.9","g","417.9",417.9,"g",NA,NA,NA,NA,NA,NA,8,"2010-12-18T08:03:16",8
"PDS2014","BW","PDS2014-0003",74,"BW","Body Weight","422.5","g","422.5",422.5,"g",NA,NA,NA,NA,NA,NA,9,"2010-12-19T11:34:32",9
"PDS2014","BW","PDS2014-0003",75,"BW","Body Weight","421.5","g","421.5",421.5,"g",NA,NA,NA,NA,NA,NA,10,"2010-12-20T10:50:13",10
"PDS2014","BW","PDS2014-0003",76,"BW","Body Weight","446.7","g","446.7",446.7,"g",NA,NA,NA,NA,NA,NA,11,"2010-12-21T07:20:58",11
"PDS2014","BW","PDS2014-0003",77,"BW","Body Weight","444.9","g","444.9",444.9,"g",NA,NA,NA,NA,NA,NA,12,"2010-12-22T08:02:18",12
"PDS2014","BW","PDS2014-0003",78,"BW","Body Weight","452.8","g","452.8",452.8,"g",NA,NA,NA,NA,NA,NA,13,"2010-12-23T07:20:22",13
"PDS2014","BW","PDS2014-0003",79,"BW","Body Weight","460.6","g","460.6",460.6,"g",NA,NA,NA,NA,NA,NA,14,"2010-12-24T07:50:34",14
"PDS2014","BW","PDS2014-0003",80,"BW","Body Weight","471.4","g","471.4",471.4,"g",NA,NA,NA,NA,NA,NA,15,"2010-12-25T07:26:29",15
"PDS2014","BW","PDS2014-0003",81,"BW","Body Weight","472.2","g","472.2",472.2,"g",NA,NA,NA,NA,NA,NA,16,"2010-12-26T07:05:22",16
"PDS2014","BW","PDS2014-0003",82,"BW","Body Weight","474.6","g","474.6",474.6,"g",NA,NA,NA,NA,NA,NA,17,"2010-12-27T09:52:54",17
"PDS2014","BW","PDS2014-0003",83,"BW","Body Weight","485.5","g","485.5",485.5,"g",NA,NA,NA,NA,NA,NA,18,"2010-12-28T07:48:48",18
"PDS2014","BW","PDS2014-0003",84,"BW","Body Weight","485.3","g","485.3",485.3,"g",NA,NA,NA,NA,NA,NA,19,"2010-12-29T09:25:37",19
"PDS2014","BW","PDS2014-0003",85,"BW","Body Weight","501.5","g","501.5",501.5,"g",NA,NA,NA,NA,NA,NA,20,"2010-12-30T07:59:18",20
"PDS2014","BW","PDS2014-0003",86,"BW","Body Weight","501.2","g","501.2",501.2,"g",NA,NA,NA,NA,NA,NA,21,"2010-12-31T08:46:20",21
"PDS2014","BW","PDS2014-0003",87,"BW","Body Weight","506.1","g","506.1",506.1,"g",NA,NA,NA,NA,NA,NA,22,"2011-01-01T06:33:50",22
"PDS2014","BW","PDS2014-0003",88,"BW","Body Weight","506","g","506",506,"g",NA,NA,NA,NA,NA,NA,23,"2011-01-02T08:12:08",23
"PDS2014","BW","PDS2014-0003",89,"BW","Body Weight","519.7","g","519.7",519.7,"g",NA,NA,NA,NA,NA,NA,24,"2011-01-03T08:31:20",24
"PDS2014","BW","PDS2014-0003",90,"BW","Body Weight","518","g","518",518,"g",NA,NA,NA,NA,NA,NA,25,"2011-01-04T08:22:36",25
"PDS2014","BW","PDS2014-0003",91,"BW","Body Weight","525.8","g","525.8",525.8,"g",NA,NA,NA,NA,NA,NA,26,"2011-01-05T08:11:51",26
"PDS2014","BW","PDS2014-0003",92,"BW","Body Weight","520.4","g","520.4",520.4,"g",NA,NA,NA,NA,NA,NA,27,"2011-01-06T08:47:52",27
"PDS2014","BW","PDS2014-0003",93,"BW","Body Weight","528.8","g","528.8",528.8,"g",NA,NA,NA,NA,NA,NA,28,"2011-01-07T07:14:59",28
"PDS2014","BW","PDS2014-0003",94,"BW","Body Weight","525.2","g","525.2",525.2,"g",NA,NA,NA,NA,NA,NA,29,"2011-01-08T07:08:12",29
"PDS2014","BW","PDS2014-0003",95,"BW","Body Weight","485","g","485",485,"g",NA,NA,NA,NA,NA,NA,30,"2011-01-09T07:43:15",30
"PDS2014","BW","PDS2014-0003",96,"TERMBW","Terminal Body Weight","485","g","485",485,"g",NA,NA,NA,NA,NA,NA,30,"2011-01-09T14:03:48",30
"PDS2014","BW","PDS2014-0004",97,"BW","Body Weight","294.6","g","294.6",294.6,"g",NA,NA,NA,NA,NA,NA,-4,"2010-12-07T10:40:58",-4
"PDS2014","BW","PDS2014-0004",98,"BW","Body Weight","331.8","g","331.8",331.8,"g",NA,NA,"Y",NA,NA,NA,1,"2010-12-11T09:24:31",1
"PDS2014","BW","PDS2014-0004",99,"BW","Body Weight","341.4","g","341.4",341.4,"g",NA,NA,NA,NA,NA,NA,2,"2010-12-12T10:27:26",2
"PDS2014","BW","PDS2014-0004",100,"BW","Body Weight","346.7","g","346.7",346.7,"g",NA,NA,NA,NA,NA,NA,3,"2010-12-13T11:01:14",3
"PDS2014","BW","PDS2014-0004",101,"BW","Body Weight","353.7","g","353.7",353.7,"g",NA,NA,NA,NA,NA,NA,4,"2010-12-14T09:46:11",4
"PDS2014","BW","PDS2014-0004",102,"BW","Body Weight","362.1","g","362.1",362.1,"g",NA,NA,NA,NA,NA,NA,5,"2010-12-15T08:30:55",5
"PDS2014","BW","PDS2014-0004",103,"BW","Body Weight","367","g","367",367,"g",NA,NA,NA,NA,NA,NA,6,"2010-12-16T08:52:51",6
"PDS2014","BW","PDS2014-0004",104,"BW","Body Weight","371.7","g","371.7",371.7,"g",NA,NA,NA,NA,NA,NA,7,"2010-12-17T07:57:16",7
"PDS2014","BW","PDS2014-0004",105,"BW","Body Weight","375.9","g","375.9",375.9,"g",NA,NA,NA,NA,NA,NA,8,"2010-12-18T08:02:38",8
"PDS2014","BW","PDS2014-0004",106,"BW","Body Weight","376.5","g","376.5",376.5,"g",NA,NA,NA,NA,NA,NA,9,"2010-12-19T11:35:34",9
"PDS2014","BW","PDS2014-0004",107,"BW","Body Weight","383.6","g","383.6",383.6,"g",NA,NA,NA,NA,NA,NA,10,"2010-12-20T10:49:02",10
"PDS2014","BW","PDS2014-0004",108,"BW","Body Weight","400.3","g","400.3",400.3,"g",NA,NA,NA,NA,NA,NA,11,"2010-12-21T07:21:26",11
"PDS2014","BW","PDS2014-0004",109,"BW","Body Weight","391.4","g","391.4",391.4,"g",NA,NA,NA,NA,NA,NA,12,"2010-12-22T08:01:34",12
"PDS2014","BW","PDS2014-0004",110,"BW","Body Weight","407.6","g","407.6",407.6,"g",NA,NA,NA,NA,NA,NA,13,"2010-12-23T07:21:45",13
"PDS2014","BW","PDS2014-0004",111,"BW","Body Weight","405.6","g","405.6",405.6,"g",NA,NA,NA,NA,NA,NA,14,"2010-12-24T07:50:09",14
"PDS2014","BW","PDS2014-0004",112,"BW","Body Weight","406.7","g","406.7",406.7,"g",NA,NA,NA,NA,NA,NA,15,"2010-12-25T07:23:12",15
"PDS2014","BW","PDS2014-0004",113,"BW","Body Weight","409.4","g","409.4",409.4,"g",NA,NA,NA,NA,NA,NA,16,"2010-12-26T07:03:31",16
"PDS2014","BW","PDS2014-0004",114,"BW","Body Weight","419.9","g","419.9",419.9,"g",NA,NA,NA,NA,NA,NA,17,"2010-12-27T09:52:14",17
"PDS2014","BW","PDS2014-0004",115,"BW","Body Weight","425.1","g","425.1",425.1,"g",NA,NA,NA,NA,NA,NA,18,"2010-12-28T07:49:53",18
"PDS2014","BW","PDS2014-0004",116,"BW","Body Weight","425.5","g","425.5",425.5,"g",NA,NA,NA,NA,NA,NA,19,"2010-12-29T09:24:37",19
"PDS2014","BW","PDS2014-0004",117,"BW","Body Weight","437","g","437",437,"g",NA,NA,NA,NA,NA,NA,20,"2010-12-30T08:00:25",20
"PDS2014","BW","PDS2014-0004",118,"BW","Body Weight","442.9","g","442.9",442.9,"g",NA,NA,NA,NA,NA,NA,21,"2010-12-31T08:46:03",21
"PDS2014","BW","PDS2014-0004",119,"BW","Body Weight","455.4","g","455.4",455.4,"g",NA,NA,NA,NA,NA,NA,22,"2011-01-01T06:37:25",22
"PDS2014","BW","PDS2014-0004",120,"BW","Body Weight","451.4","g","451.4",451.4,"g",NA,NA,NA,NA,NA,NA,23,"2011-01-02T08:11:26",23
"PDS2014","BW","PDS2014-0004",121,"BW","Body Weight","451.7","g","451.7",451.7,"g",NA,NA,NA,NA,NA,NA,24,"2011-01-03T08:30:34",24
"PDS2014","BW","PDS2014-0004",122,"BW","Body Weight","460.5","g","460.5",460.5,"g",NA,NA,NA,NA,NA,NA,25,"2011-01-04T08:21:16",25
"PDS2014","BW","PDS2014-0004",123,"BW","Body Weight","461.4","g","461.4",461.4,"g",NA,NA,NA,NA,NA,NA,26,"2011-01-05T08:12:40",26
"PDS2014","BW","PDS2014-0004",124,"BW","Body Weight","466.6","g","466.6",466.6,"g",NA,NA,NA,NA,NA,NA,27,"2011-01-06T08:48:57",27
"PDS2014","BW","PDS2014-0004",125,"BW","Body Weight","468.8","g","468.8",468.8,"g",NA,NA,NA,NA,NA,NA,28,"2011-01-07T07:13:48",28
"PDS2014","BW","PDS2014-0004",126,"BW","Body Weight","471.4","g","471.4",471.4,"g",NA,NA,NA,NA,NA,NA,29,"2011-01-08T07:09:02",29
"PDS2014","BW","PDS2014-0004",127,"BW","Body Weight","436.1","g","436.1",436.1,"g",NA,NA,NA,NA,NA,NA,30,"2011-01-09T07:44:33",30
"PDS2014","BW","PDS2014-0004",128,"TERMBW","Terminal Body Weight","436.1","g","436.1",436.1,"g",NA,NA,NA,NA,NA,NA,30,"2011-01-09T10:55:15",30
"PDS2014","BW","PDS2014-0005",129,"BW","Body Weight","274","g","274",274,"g",NA,NA,NA,NA,NA,NA,-4,"2010-12-07T10:36:16",-4
"PDS2014","BW","PDS2014-0005",130,"BW","Body Weight","305.4","g","305.4",305.4,"g",NA,NA,"Y",NA,NA,NA,1,"2010-12-11T09:28:46",1
"PDS2014","BW","PDS2014-0005",131,"BW","Body Weight","306.8","g","306.8",306.8,"g",NA,NA,NA,NA,NA,NA,2,"2010-12-12T10:27:51",2
"PDS2014","BW","PDS2014-0005",132,"BW","Body Weight","315.3","g","315.3",315.3,"g",NA,NA,NA,NA,NA,NA,3,"2010-12-13T11:01:54",3
"PDS2014","BW","PDS2014-0005",133,"BW","Body Weight","318","g","318",318,"g",NA,NA,NA,NA,NA,NA,4,"2010-12-14T09:46:33",4
"PDS2014","BW","PDS2014-0005",134,"BW","Body Weight","324.7","g","324.7",324.7,"g",NA,NA,NA,NA,NA,NA,5,"2010-12-15T08:30:38",5
"PDS2014","BW","PDS2014-0005",135,"BW","Body Weight","330.6","g","330.6",330.6,"g",NA,NA,NA,NA,NA,NA,6,"2010-12-16T08:52:23",6
"PDS2014","BW","PDS2014-0005",136,"BW","Body Weight","337.5","g","337.5",337.5,"g",NA,NA,NA,NA,NA,NA,7,"2010-12-17T07:56:53",7
"PDS2014","BW","PDS2014-0005",137,"BW","Body Weight","348.3","g","348.3",348.3,"g",NA,NA,NA,NA,NA,NA,8,"2010-12-18T08:03:46",8
"PDS2014","BW","PDS2014-0005",138,"BW","Body Weight","345.6","g","345.6",345.6,"g",NA,NA,NA,NA,NA,NA,9,"2010-12-19T11:34:51",9
"PDS2014","BW","PDS2014-0005",139,"BW","Body Weight","349.7","g","349.7",349.7,"g",NA,NA,NA,NA,NA,NA,10,"2010-12-20T10:49:46",10
"PDS2014","BW","PDS2014-0005",140,"BW","Body Weight","360.4","g","360.4",360.4,"g",NA,NA,NA,NA,NA,NA,11,"2010-12-21T07:22:38",11
"PDS2014","BW","PDS2014-0005",141,"BW","Body Weight","357.6","g","357.6",357.6,"g",NA,NA,NA,NA,NA,NA,12,"2010-12-22T08:02:37",12
"PDS2014","BW","PDS2014-0005",142,"BW","Body Weight","369.1","g","369.1",369.1,"g",NA,NA,NA,NA,NA,NA,13,"2010-12-23T07:21:05",13
"PDS2014","BW","PDS2014-0005",143,"BW","Body Weight","370.9","g","370.9",370.9,"g",NA,NA,NA,NA,NA,NA,14,"2010-12-24T07:50:56",14
"PDS2014","BW","PDS2014-0005",144,"BW","Body Weight","376","g","376",376,"g",NA,NA,NA,NA,NA,NA,15,"2010-12-25T07:25:56",15
"PDS2014","BW","PDS2014-0005",145,"BW","Body Weight","376.2","g","376.2",376.2,"g",NA,NA,NA,NA,NA,NA,16,"2010-12-26T07:05:50",16
"PDS2014","BW","PDS2014-0005",146,"BW","Body Weight","385.5","g","385.5",385.5,"g",NA,NA,NA,NA,NA,NA,17,"2010-12-27T09:51:44",17
"PDS2014","BW","PDS2014-0005",147,"BW","Body Weight","392.2","g","392.2",392.2,"g",NA,NA,NA,NA,NA,NA,18,"2010-12-28T07:49:11",18
"PDS2014","BW","PDS2014-0005",148,"BW","Body Weight","397.3","g","397.3",397.3,"g",NA,NA,NA,NA,NA,NA,19,"2010-12-29T09:23:22",19
"PDS2014","BW","PDS2014-0005",149,"BW","Body Weight","403.7","g","403.7",403.7,"g",NA,NA,NA,NA,NA,NA,20,"2010-12-30T08:01:21",20
"PDS2014","BW","PDS2014-0005",150,"BW","Body Weight","410.5","g","410.5",410.5,"g",NA,NA,NA,NA,NA,NA,21,"2010-12-31T08:45:31",21
"PDS2014","BW","PDS2014-0005",151,"BW","Body Weight","410.4","g","410.4",410.4,"g",NA,NA,NA,NA,NA,NA,22,"2011-01-01T06:36:37",22
"PDS2014","BW","PDS2014-0005",152,"BW","Body Weight","410.5","g","410.5",410.5,"g",NA,NA,NA,NA,NA,NA,23,"2011-01-02T08:10:47",23
"PDS2014","BW","PDS2014-0005",153,"BW","Body Weight","419.8","g","419.8",419.8,"g",NA,NA,NA,NA,NA,NA,24,"2011-01-03T08:29:56",24
"PDS2014","BW","PDS2014-0005",154,"BW","Body Weight","417","g","417",417,"g",NA,NA,NA,NA,NA,NA,25,"2011-01-04T08:21:48",25
"PDS2014","BW","PDS2014-0005",155,"BW","Body Weight","419.8","g","419.8",419.8,"g",NA,NA,NA,NA,NA,NA,26,"2011-01-05T08:12:24",26
"PDS2014","BW","PDS2014-0005",156,"BW","Body Weight","422.9","g","422.9",422.9,"g",NA,NA,NA,NA,NA,NA,27,"2011-01-06T08:48:21",27
"PDS2014","BW","PDS2014-0005",157,"BW","Body Weight","429.3","g","429.3",429.3,"g",NA,NA,NA,NA,NA,NA,28,"2011-01-07T07:13:25",28
"PDS2014","BW","PDS2014-0005",158,"BW","Body Weight","429.9","g","429.9",429.9,"g",NA,NA,NA,NA,NA,NA,29,"2011-01-08T07:11:44",29
"PDS2014","BW","PDS2014-0005",159,"BW","Body Weight","389.1","g","389.1",389.1,"g",NA,NA,NA,NA,NA,NA,30,"2011-01-09T07:45:39",30
"PDS2014","BW","PDS2014-0005",160,"TERMBW","Terminal Body Weight","389.1","g","389.1",389.1,"g",NA,NA,NA,NA,NA,NA,30,"2011-01-09T14:07:14",30
"PDS2014","BW","PDS2014-0006",161,"BW","Body Weight","294.4","g","294.4",294.4,"g",NA,NA,NA,NA,NA,NA,-4,"2010-12-07T10:35:45",-4
"PDS2014","BW","PDS2014-0006",162,"BW","Body Weight","290.3","g","290.3",290.3,"g",NA,NA,"Y",NA,NA,NA,1,"2010-12-11T09:32:54",1
"PDS2014","BW","PDS2014-0006",163,"BW","Body Weight","298.9","g","298.9",298.9,"g",NA,NA,NA,NA,NA,NA,2,"2010-12-12T10:32:31",2
"PDS2014","BW","PDS2014-0006",164,"BW","Body Weight","302.3","g","302.3",302.3,"g",NA,NA,NA,NA,NA,NA,3,"2010-12-13T11:04:32",3
"PDS2014","BW","PDS2014-0006",165,"BW","Body Weight","305.8","g","305.8",305.8,"g",NA,NA,NA,NA,NA,NA,4,"2010-12-14T09:47:44",4
"PDS2014","BW","PDS2014-0006",166,"BW","Body Weight","314.6","g","314.6",314.6,"g",NA,NA,NA,NA,NA,NA,5,"2010-12-15T08:31:57",5
"PDS2014","BW","PDS2014-0006",167,"BW","Body Weight","306.6","g","306.6",306.6,"g",NA,NA,NA,NA,NA,NA,6,"2010-12-16T08:53:16",6
"PDS2014","BW","PDS2014-0006",168,"BW","Body Weight","312.8","g","312.8",312.8,"g",NA,NA,NA,NA,NA,NA,7,"2010-12-17T08:00:20",7
"PDS2014","BW","PDS2014-0006",169,"BW","Body Weight","325","g","325",325,"g",NA,NA,NA,NA,NA,NA,8,"2010-12-18T08:05:46",8
"PDS2014","BW","PDS2014-0006",170,"BW","Body Weight","324.3","g","324.3",324.3,"g",NA,NA,NA,NA,NA,NA,9,"2010-12-19T11:36:35",9
"PDS2014","BW","PDS2014-0006",171,"BW","Body Weight","327.5","g","327.5",327.5,"g",NA,NA,NA,NA,NA,NA,10,"2010-12-20T10:56:34",10
"PDS2014","BW","PDS2014-0006",172,"BW","Body Weight","332.2","g","332.2",332.2,"g",NA,NA,NA,NA,NA,NA,11,"2010-12-21T07:24:29",11
"PDS2014","BW","PDS2014-0006",173,"BW","Body Weight","337.7","g","337.7",337.7,"g",NA,NA,NA,NA,NA,NA,12,"2010-12-22T08:06:01",12
"PDS2014","BW","PDS2014-0006",174,"BW","Body Weight","344.9","g","344.9",344.9,"g",NA,NA,NA,NA,NA,NA,13,"2010-12-23T07:25:43",13
"PDS2014","BW","PDS2014-0006",175,"BW","Body Weight","345.8","g","345.8",345.8,"g",NA,NA,NA,NA,NA,NA,14,"2010-12-24T07:55:33",14
"PDS2014","BW","PDS2014-0006",176,"BW","Body Weight","353.7","g","353.7",353.7,"g",NA,NA,NA,NA,NA,NA,15,"2010-12-25T07:29:04",15
"PDS2014","BW","PDS2014-0006",177,"BW","Body Weight","356.9","g","356.9",356.9,"g",NA,NA,NA,NA,NA,NA,16,"2010-12-26T07:08:54",16
"PDS2014","BW","PDS2014-0006",178,"BW","Body Weight","360.8","g","360.8",360.8,"g",NA,NA,NA,NA,NA,NA,17,"2010-12-27T09:54:46",17
"PDS2014","BW","PDS2014-0006",179,"BW","Body Weight","366.9","g","366.9",366.9,"g",NA,NA,NA,NA,NA,NA,18,"2010-12-28T07:53:17",18
"PDS2014","BW","PDS2014-0006",180,"BW","Body Weight","374.2","g","374.2",374.2,"g",NA,NA,NA,NA,NA,NA,19,"2010-12-29T09:29:02",19
"PDS2014","BW","PDS2014-0006",181,"BW","Body Weight","378.7","g","378.7",378.7,"g",NA,NA,NA,NA,NA,NA,20,"2010-12-30T08:04:21",20
"PDS2014","BW","PDS2014-0006",182,"BW","Body Weight","388.8","g","388.8",388.8,"g",NA,NA,NA,NA,NA,NA,21,"2010-12-31T08:47:20",21
"PDS2014","BW","PDS2014-0006",183,"BW","Body Weight","386.3","g","386.3",386.3,"g",NA,NA,NA,NA,NA,NA,22,"2011-01-01T06:39:14",22
"PDS2014","BW","PDS2014-0006",184,"BW","Body Weight","393","g","393",393,"g",NA,NA,NA,NA,NA,NA,23,"2011-01-02T08:14:17",23
"PDS2014","BW","PDS2014-0006",185,"BW","Body Weight","394.8","g","394.8",394.8,"g",NA,NA,NA,NA,NA,NA,24,"2011-01-03T08:32:42",24
"PDS2014","BW","PDS2014-0006",186,"BW","Body Weight","388.6","g","388.6",388.6,"g",NA,NA,NA,NA,NA,NA,25,"2011-01-04T08:23:23",25
"PDS2014","BW","PDS2014-0006",187,"BW","Body Weight","392","g","392",392,"g",NA,NA,NA,NA,NA,NA,26,"2011-01-05T08:14:49",26
"PDS2014","BW","PDS2014-0006",188,"BW","Body Weight","392.2","g","392.2",392.2,"g",NA,NA,NA,NA,NA,NA,27,"2011-01-06T08:50:56",27
"PDS2014","BW","PDS2014-0006",189,"BW","Body Weight","393.4","g","393.4",393.4,"g",NA,NA,NA,NA,NA,NA,28,"2011-01-07T07:23:00",28
"PDS2014","BW","PDS2014-0006",190,"BW","Body Weight","400","g","400",400,"g",NA,NA,NA,NA,NA,NA,29,"2011-01-08T07:13:40",29
"PDS2014","BW","PDS2014-0006",191,"BW","Body Weight","391.8","g","391.8",391.8,"g",NA,NA,NA,NA,NA,NA,30,"2011-01-09T10:52:59",30
"PDS2014","BW","PDS2014-0006",192,"BW","Body Weight","361.6","g","361.6",361.6,"g",NA,NA,NA,NA,NA,NA,31,"2011-01-10T08:00:13",31
"PDS2014","BW","PDS2014-0006",193,"TERMBW","Terminal Body Weight","361.6","g","361.6",361.6,"g",NA,NA,NA,NA,NA,NA,31,"2011-01-10T10:16:15",31
"PDS2014","BW","PDS2014-0007",194,"BW","Body Weight","275.1","g","275.1",275.1,"g",NA,NA,NA,NA,NA,NA,-4,"2010-12-07T10:32:03",-4
"PDS2014","BW","PDS2014-0007",195,"BW","Body Weight","289.7","g","289.7",289.7,"g",NA,NA,"Y",NA,NA,NA,1,"2010-12-11T09:32:26",1
"PDS2014","BW","PDS2014-0007",196,"BW","Body Weight","299.3","g","299.3",299.3,"g",NA,NA,NA,NA,NA,NA,2,"2010-12-12T10:31:28",2
"PDS2014","BW","PDS2014-0007",197,"BW","Body Weight","305.2","g","305.2",305.2,"g",NA,NA,NA,NA,NA,NA,3,"2010-12-13T11:05:28",3
"PDS2014","BW","PDS2014-0007",198,"BW","Body Weight","317.8","g","317.8",317.8,"g",NA,NA,NA,NA,NA,NA,4,"2010-12-14T09:49:00",4
"PDS2014","BW","PDS2014-0007",199,"BW","Body Weight","327.3","g","327.3",327.3,"g",NA,NA,NA,NA,NA,NA,5,"2010-12-15T08:33:16",5
"PDS2014","BW","PDS2014-0007",200,"BW","Body Weight","331.4","g","331.4",331.4,"g",NA,NA,NA,NA,NA,NA,6,"2010-12-16T08:54:55",6
"PDS2014","BW","PDS2014-0007",201,"BW","Body Weight","345.7","g","345.7",345.7,"g",NA,NA,NA,NA,NA,NA,7,"2010-12-17T07:59:30",7
"PDS2014","BW","PDS2014-0007",202,"BW","Body Weight","349.8","g","349.8",349.8,"g",NA,NA,NA,NA,NA,NA,8,"2010-12-18T08:06:17",8
"PDS2014","BW","PDS2014-0007",203,"BW","Body Weight","359.5","g","359.5",359.5,"g",NA,NA,NA,NA,NA,NA,9,"2010-12-19T11:37:04",9
"PDS2014","BW","PDS2014-0007",204,"BW","Body Weight","359.3","g","359.3",359.3,"g",NA,NA,NA,NA,NA,NA,10,"2010-12-20T10:55:38",10
"PDS2014","BW","PDS2014-0007",205,"BW","Body Weight","368.6","g","368.6",368.6,"g",NA,NA,NA,NA,NA,NA,11,"2010-12-21T07:25:54",11
"PDS2014","BW","PDS2014-0007",206,"BW","Body Weight","370.6","g","370.6",370.6,"g",NA,NA,NA,NA,NA,NA,12,"2010-12-22T08:04:29",12
"PDS2014","BW","PDS2014-0007",207,"BW","Body Weight","380.9","g","380.9",380.9,"g",NA,NA,NA,NA,NA,NA,13,"2010-12-23T07:24:05",13
"PDS2014","BW","PDS2014-0007",208,"BW","Body Weight","383.2","g","383.2",383.2,"g",NA,NA,NA,NA,NA,NA,14,"2010-12-24T07:54:25",14
"PDS2014","BW","PDS2014-0007",209,"BW","Body Weight","390.8","g","390.8",390.8,"g",NA,NA,NA,NA,NA,NA,15,"2010-12-25T07:27:33",15
"PDS2014","BW","PDS2014-0007",210,"BW","Body Weight","393.7","g","393.7",393.7,"g",NA,NA,NA,NA,NA,NA,16,"2010-12-26T07:07:09",16
"PDS2014","BW","PDS2014-0007",211,"BW","Body Weight","399.3","g","399.3",399.3,"g",NA,NA,NA,NA,NA,NA,17,"2010-12-27T09:55:12",17
"PDS2014","BW","PDS2014-0007",212,"BW","Body Weight","400.9","g","400.9",400.9,"g",NA,NA,NA,NA,NA,NA,18,"2010-12-28T07:50:21",18
"PDS2014","BW","PDS2014-0007",213,"BW","Body Weight","411.9","g","411.9",411.9,"g",NA,NA,NA,NA,NA,NA,19,"2010-12-29T09:29:32",19
"PDS2014","BW","PDS2014-0007",214,"BW","Body Weight","416.5","g","416.5",416.5,"g",NA,NA,NA,NA,NA,NA,20,"2010-12-30T08:01:58",20
"PDS2014","BW","PDS2014-0007",215,"BW","Body Weight","424.8","g","424.8",424.8,"g",NA,NA,NA,NA,NA,NA,21,"2010-12-31T08:49:06",21
"PDS2014","BW","PDS2014-0007",216,"BW","Body Weight","427.4","g","427.4",427.4,"g",NA,NA,NA,NA,NA,NA,22,"2011-01-01T06:41:19",22
"PDS2014","BW","PDS2014-0007",217,"BW","Body Weight","426.5","g","426.5",426.5,"g",NA,NA,NA,NA,NA,NA,23,"2011-01-02T08:12:45",23
"PDS2014","BW","PDS2014-0007",218,"BW","Body Weight","428.7","g","428.7",428.7,"g",NA,NA,NA,NA,NA,NA,24,"2011-01-03T08:33:22",24
"PDS2014","BW","PDS2014-0007",219,"BW","Body Weight","429.1","g","429.1",429.1,"g",NA,NA,NA,NA,NA,NA,25,"2011-01-04T08:26:01",25
"PDS2014","BW","PDS2014-0007",220,"BW","Body Weight","427.8","g","427.8",427.8,"g",NA,NA,NA,NA,NA,NA,26,"2011-01-05T08:13:45",26
"PDS2014","BW","PDS2014-0007",221,"BW","Body Weight","436.1","g","436.1",436.1,"g",NA,NA,NA,NA,NA,NA,27,"2011-01-06T08:51:22",27
"PDS2014","BW","PDS2014-0007",222,"BW","Body Weight","434","g","434",434,"g",NA,NA,NA,NA,NA,NA,28,"2011-01-07T07:22:05",28
"PDS2014","BW","PDS2014-0007",223,"BW","Body Weight","430.8","g","430.8",430.8,"g",NA,NA,NA,NA,NA,NA,29,"2011-01-08T07:15:52",29
"PDS2014","BW","PDS2014-0007",224,"BW","Body Weight","438.8","g","438.8",438.8,"g",NA,NA,NA,NA,NA,NA,30,"2011-01-09T10:52:00",30
"PDS2014","BW","PDS2014-0007",225,"BW","Body Weight","396.5","g","396.5",396.5,"g",NA,NA,NA,NA,NA,NA,31,"2011-01-10T08:11:32",31
"PDS2014","BW","PDS2014-0007",226,"TERMBW","Terminal Body Weight","396.5","g","396.5",396.5,"g",NA,NA,NA,NA,NA,NA,31,"2011-01-10T13:36:10",31
"PDS2014","BW","PDS2014-0008",227,"BW","Body Weight","290.5","g","290.5",290.5,"g",NA,NA,NA,NA,NA,NA,-4,"2010-12-07T10:34:20",-4
"PDS2014","BW","PDS2014-0008",228,"BW","Body Weight","284.8","g","284.8",284.8,"g",NA,NA,"Y",NA,NA,NA,1,"2010-12-11T09:31:35",1
"PDS2014","BW","PDS2014-0008",229,"BW","Body Weight","284.5","g","284.5",284.5,"g",NA,NA,NA,NA,NA,NA,2,"2010-12-12T10:29:04",2
"PDS2014","BW","PDS2014-0008",230,"BW","Body Weight","285.8","g","285.8",285.8,"g",NA,NA,NA,NA,NA,NA,3,"2010-12-13T11:08:28",3
"PDS2014","BW","PDS2014-0008",231,"BW","Body Weight","291.5","g","291.5",291.5,"g",NA,NA,NA,NA,NA,NA,4,"2010-12-14T09:49:38",4
"PDS2014","BW","PDS2014-0008",232,"BW","Body Weight","294","g","294",294,"g",NA,NA,NA,NA,NA,NA,5,"2010-12-15T08:31:14",5
"PDS2014","BW","PDS2014-0008",233,"BW","Body Weight","299.6","g","299.6",299.6,"g",NA,NA,NA,NA,NA,NA,6,"2010-12-16T08:53:46",6
"PDS2014","BW","PDS2014-0008",234,"BW","Body Weight","304.3","g","304.3",304.3,"g",NA,NA,NA,NA,NA,NA,7,"2010-12-17T08:01:22",7
"PDS2014","BW","PDS2014-0008",235,"BW","Body Weight","305.6","g","305.6",305.6,"g",NA,NA,NA,NA,NA,NA,8,"2010-12-18T08:07:15",8
"PDS2014","BW","PDS2014-0008",236,"BW","Body Weight","307","g","307",307,"g",NA,NA,NA,NA,NA,NA,9,"2010-12-19T11:40:08",9
"PDS2014","BW","PDS2014-0008",237,"BW","Body Weight","309.5","g","309.5",309.5,"g",NA,NA,NA,NA,NA,NA,10,"2010-12-20T10:55:03",10
"PDS2014","BW","PDS2014-0008",238,"BW","Body Weight","317.4","g","317.4",317.4,"g",NA,NA,NA,NA,NA,NA,11,"2010-12-21T07:23:12",11
"PDS2014","BW","PDS2014-0008",239,"BW","Body Weight","322.3","g","322.3",322.3,"g",NA,NA,NA,NA,NA,NA,12,"2010-12-22T08:04:56",12
"PDS2014","BW","PDS2014-0008",240,"BW","Body Weight","328","g","328",328,"g",NA,NA,NA,NA,NA,NA,13,"2010-12-23T07:23:29",13
"PDS2014","BW","PDS2014-0008",241,"BW","Body Weight","329.8","g","329.8",329.8,"g",NA,NA,NA,NA,NA,NA,14,"2010-12-24T07:54:53",14
"PDS2014","BW","PDS2014-0008",242,"BW","Body Weight","325.9","g","325.9",325.9,"g",NA,NA,NA,NA,NA,NA,15,"2010-12-25T07:30:34",15
"PDS2014","BW","PDS2014-0008",243,"BW","Body Weight","336.9","g","336.9",336.9,"g",NA,NA,NA,NA,NA,NA,16,"2010-12-26T07:07:58",16
"PDS2014","BW","PDS2014-0008",244,"BW","Body Weight","332.8","g","332.8",332.8,"g",NA,NA,NA,NA,NA,NA,17,"2010-12-27T09:55:34",17
"PDS2014","BW","PDS2014-0008",245,"BW","Body Weight","342.3","g","342.3",342.3,"g",NA,NA,NA,NA,NA,NA,18,"2010-12-28T07:52:39",18
"PDS2014","BW","PDS2014-0008",246,"BW","Body Weight","342.8","g","342.8",342.8,"g",NA,NA,NA,NA,NA,NA,19,"2010-12-29T09:29:56",19
"PDS2014","BW","PDS2014-0008",247,"BW","Body Weight","351.1","g","351.1",351.1,"g",NA,NA,NA,NA,NA,NA,20,"2010-12-30T08:03:13",20
"PDS2014","BW","PDS2014-0008",248,"BW","Body Weight","352.2","g","352.2",352.2,"g",NA,NA,NA,NA,NA,NA,21,"2010-12-31T08:49:27",21
"PDS2014","BW","PDS2014-0008",249,"BW","Body Weight","346.1","g","346.1",346.1,"g",NA,NA,NA,NA,NA,NA,22,"2011-01-01T06:41:43",22
"PDS2014","BW","PDS2014-0008",250,"BW","Body Weight","352.9","g","352.9",352.9,"g",NA,NA,NA,NA,NA,NA,23,"2011-01-02T08:13:49",23
"PDS2014","BW","PDS2014-0008",251,"BW","Body Weight","349.2","g","349.2",349.2,"g",NA,NA,NA,NA,NA,NA,24,"2011-01-03T08:33:05",24
"PDS2014","BW","PDS2014-0008",252,"BW","Body Weight","346","g","346",346,"g",NA,NA,NA,NA,NA,NA,25,"2011-01-04T08:25:14",25
"PDS2014","BW","PDS2014-0008",253,"BW","Body Weight","351.9","g","351.9",351.9,"g",NA,NA,NA,NA,NA,NA,26,"2011-01-05T08:16:42",26
"PDS2014","BW","PDS2014-0008",254,"BW","Body Weight","355.3","g","355.3",355.3,"g",NA,NA,NA,NA,NA,NA,27,"2011-01-06T08:50:20",27
"PDS2014","BW","PDS2014-0008",255,"BW","Body Weight","357.1","g","357.1",357.1,"g",NA,NA,NA,NA,NA,NA,28,"2011-01-07T07:21:10",28
"PDS2014","BW","PDS2014-0008",256,"BW","Body Weight","358.5","g","358.5",358.5,"g",NA,NA,NA,NA,NA,NA,29,"2011-01-08T07:13:00",29
"PDS2014","BW","PDS2014-0008",257,"BW","Body Weight","360.2","g","360.2",360.2,"g",NA,NA,NA,NA,NA,NA,30,"2011-01-09T10:47:55",30
"PDS2014","BW","PDS2014-0008",258,"BW","Body Weight","329.8","g","329.8",329.8,"g",NA,NA,NA,NA,NA,NA,31,"2011-01-10T08:12:40",31
"PDS2014","BW","PDS2014-0008",259,"TERMBW","Terminal Body Weight","329.8","g","329.8",329.8,"g",NA,NA,NA,NA,NA,NA,31,"2011-01-10T10:11:31",31
"PDS2014","BW","PDS2014-0009",260,"BW","Body Weight","272.5","g","272.5",272.5,"g",NA,NA,NA,NA,NA,NA,-4,"2010-12-07T10:37:50",-4
"PDS2014","BW","PDS2014-0009",261,"BW","Body Weight","255.2","g","255.2",255.2,"g",NA,NA,"Y",NA,NA,NA,1,"2010-12-11T09:32:04",1
"PDS2014","BW","PDS2014-0009",262,"BW","Body Weight","251.4","g","251.4",251.4,"g",NA,NA,NA,NA,NA,NA,2,"2010-12-12T10:33:07",2
"PDS2014","BW","PDS2014-0009",263,"BW","Body Weight","257.6","g","257.6",257.6,"g",NA,NA,NA,NA,NA,NA,3,"2010-12-13T11:02:37",3
"PDS2014","BW","PDS2014-0009",264,"BW","Body Weight","261.2","g","261.2",261.2,"g",NA,NA,NA,NA,NA,NA,4,"2010-12-14T09:51:33",4
"PDS2014","BW","PDS2014-0009",265,"BW","Body Weight","261.7","g","261.7",261.7,"g",NA,NA,NA,NA,NA,NA,5,"2010-12-15T08:32:46",5
"PDS2014","BW","PDS2014-0009",266,"BW","Body Weight","264.8","g","264.8",264.8,"g",NA,NA,NA,NA,NA,NA,6,"2010-12-16T08:54:17",6
"PDS2014","BW","PDS2014-0009",267,"BW","Body Weight","266.8","g","266.8",266.8,"g",NA,NA,NA,NA,NA,NA,7,"2010-12-17T07:58:46",7
"PDS2014","BW","PDS2014-0009",268,"BW","Body Weight","269.7","g","269.7",269.7,"g",NA,NA,NA,NA,NA,NA,8,"2010-12-18T08:09:13",8
"PDS2014","BW","PDS2014-0009",269,"BW","Body Weight","276.3","g","276.3",276.3,"g",NA,NA,NA,NA,NA,NA,9,"2010-12-19T11:39:27",9
"PDS2014","BW","PDS2014-0009",270,"BW","Body Weight","272.8","g","272.8",272.8,"g",NA,NA,NA,NA,NA,NA,10,"2010-12-20T10:56:02",10
"PDS2014","BW","PDS2014-0009",271,"BW","Body Weight","276.3","g","276.3",276.3,"g",NA,NA,NA,NA,NA,NA,11,"2010-12-21T07:25:16",11
"PDS2014","BW","PDS2014-0009",272,"BW","Body Weight","284.9","g","284.9",284.9,"g",NA,NA,NA,NA,NA,NA,12,"2010-12-22T08:03:55",12
"PDS2014","BW","PDS2014-0009",273,"BW","Body Weight","283.7","g","283.7",283.7,"g",NA,NA,NA,NA,NA,NA,13,"2010-12-23T07:22:14",13
"PDS2014","BW","PDS2014-0009",274,"BW","Body Weight","285.6","g","285.6",285.6,"g",NA,NA,NA,NA,NA,NA,14,"2010-12-24T07:52:44",14
"PDS2014","BW","PDS2014-0009",275,"BW","Body Weight","285.4","g","285.4",285.4,"g",NA,NA,NA,NA,NA,NA,15,"2010-12-25T07:31:28",15
"PDS2014","BW","PDS2014-0009",276,"BW","Body Weight","293.1","g","293.1",293.1,"g",NA,NA,NA,NA,NA,NA,16,"2010-12-26T07:08:25",16
"PDS2014","BW","PDS2014-0009",277,"BW","Body Weight","288.7","g","288.7",288.7,"g",NA,NA,NA,NA,NA,NA,17,"2010-12-27T09:53:44",17
"PDS2014","BW","PDS2014-0009",278,"BW","Body Weight","295.4","g","295.4",295.4,"g",NA,NA,NA,NA,NA,NA,18,"2010-12-28T07:50:50",18
"PDS2014","BW","PDS2014-0009",279,"BW","Body Weight","297.5","g","297.5",297.5,"g",NA,NA,NA,NA,NA,NA,19,"2010-12-29T09:26:11",19
"PDS2014","BW","PDS2014-0009",280,"BW","Body Weight","298.7","g","298.7",298.7,"g",NA,NA,NA,NA,NA,NA,20,"2010-12-30T08:03:50",20
"PDS2014","BW","PDS2014-0009",281,"BW","Body Weight","299.4","g","299.4",299.4,"g",NA,NA,NA,NA,NA,NA,21,"2010-12-31T08:48:31",21
"PDS2014","BW","PDS2014-0009",282,"BW","Body Weight","299.8","g","299.8",299.8,"g",NA,NA,NA,NA,NA,NA,22,"2011-01-01T06:40:48",22
"PDS2014","BW","PDS2014-0009",283,"BW","Body Weight","309.3","g","309.3",309.3,"g",NA,NA,NA,NA,NA,NA,23,"2011-01-02T08:13:26",23
"PDS2014","BW","PDS2014-0009",284,"BW","Body Weight","302.5","g","302.5",302.5,"g",NA,NA,NA,NA,NA,NA,24,"2011-01-03T08:32:24",24
"PDS2014","BW","PDS2014-0009",285,"BW","Body Weight","304.2","g","304.2",304.2,"g",NA,NA,NA,NA,NA,NA,25,"2011-01-04T08:24:13",25
"PDS2014","BW","PDS2014-0009",286,"BW","Body Weight","301.4","g","301.4",301.4,"g",NA,NA,NA,NA,NA,NA,26,"2011-01-05T08:14:15",26
"PDS2014","BW","PDS2014-0009",287,"BW","Body Weight","307.1","g","307.1",307.1,"g",NA,NA,NA,NA,NA,NA,27,"2011-01-06T08:49:59",27
"PDS2014","BW","PDS2014-0009",288,"BW","Body Weight","307.2","g","307.2",307.2,"g",NA,NA,NA,NA,NA,NA,28,"2011-01-07T07:21:33",28
"PDS2014","BW","PDS2014-0009",289,"BW","Body Weight","306.1","g","306.1",306.1,"g",NA,NA,NA,NA,NA,NA,29,"2011-01-08T07:14:35",29
"PDS2014","BW","PDS2014-0009",290,"BW","Body Weight","313.6","g","313.6",313.6,"g",NA,NA,NA,NA,NA,NA,30,"2011-01-09T10:53:54",30
"PDS2014","BW","PDS2014-0009",291,"BW","Body Weight","288","g","288",288,"g",NA,NA,NA,NA,NA,NA,31,"2011-01-10T08:13:36",31
"PDS2014","BW","PDS2014-0009",292,"TERMBW","Terminal Body Weight","288","g","288",288,"g",NA,NA,NA,NA,NA,NA,31,"2011-01-10T13:31:25",31
"PDS2014","BW","PDS2014-0010",293,"BW","Body Weight","273.4","g","273.4",273.4,"g",NA,NA,NA,NA,NA,NA,-4,"2010-12-07T10:37:05",-4
"PDS2014","BW","PDS2014-0010",294,"BW","Body Weight","302.8","g","302.8",302.8,"g",NA,NA,"Y",NA,NA,NA,1,"2010-12-11T09:31:11",1
"PDS2014","BW","PDS2014-0010",295,"BW","Body Weight","308.1","g","308.1",308.1,"g",NA,NA,NA,NA,NA,NA,2,"2010-12-12T10:32:05",2
"PDS2014","BW","PDS2014-0010",296,"BW","Body Weight","315.1","g","315.1",315.1,"g",NA,NA,NA,NA,NA,NA,3,"2010-12-13T11:04:14",3
"PDS2014","BW","PDS2014-0010",297,"BW","Body Weight","316.8","g","316.8",316.8,"g",NA,NA,NA,NA,NA,NA,4,"2010-12-14T09:47:21",4
"PDS2014","BW","PDS2014-0010",298,"BW","Body Weight","324","g","324",324,"g",NA,NA,NA,NA,NA,NA,5,"2010-12-15T08:33:44",5
"PDS2014","BW","PDS2014-0010",299,"BW","Body Weight","324.5","g","324.5",324.5,"g",NA,NA,NA,NA,NA,NA,6,"2010-12-16T08:54:39",6
"PDS2014","BW","PDS2014-0010",300,"BW","Body Weight","334","g","334",334,"g",NA,NA,NA,NA,NA,NA,7,"2010-12-17T07:58:24",7
"PDS2014","BW","PDS2014-0010",301,"BW","Body Weight","342.5","g","342.5",342.5,"g",NA,NA,NA,NA,NA,NA,8,"2010-12-18T08:04:45",8
"PDS2014","BW","PDS2014-0010",302,"BW","Body Weight","351.4","g","351.4",351.4,"g",NA,NA,NA,NA,NA,NA,9,"2010-12-19T11:38:06",9
"PDS2014","BW","PDS2014-0010",303,"BW","Body Weight","353","g","353",353,"g",NA,NA,NA,NA,NA,NA,10,"2010-12-20T10:54:21",10
"PDS2014","BW","PDS2014-0010",304,"BW","Body Weight","355.8","g","355.8",355.8,"g",NA,NA,NA,NA,NA,NA,11,"2010-12-21T07:23:51",11
"PDS2014","BW","PDS2014-0010",305,"BW","Body Weight","357.1","g","357.1",357.1,"g",NA,NA,NA,NA,NA,NA,12,"2010-12-22T08:02:58",12
"PDS2014","BW","PDS2014-0010",306,"BW","Body Weight","365.9","g","365.9",365.9,"g",NA,NA,NA,NA,NA,NA,13,"2010-12-23T07:24:56",13
"PDS2014","BW","PDS2014-0010",307,"BW","Body Weight","369.5","g","369.5",369.5,"g",NA,NA,NA,NA,NA,NA,14,"2010-12-24T07:53:12",14
"PDS2014","BW","PDS2014-0010",308,"BW","Body Weight","373.4","g","373.4",373.4,"g",NA,NA,NA,NA,NA,NA,15,"2010-12-25T07:29:44",15
"PDS2014","BW","PDS2014-0010",309,"BW","Body Weight","374","g","374",374,"g",NA,NA,NA,NA,NA,NA,16,"2010-12-26T07:06:18",16
"PDS2014","BW","PDS2014-0010",310,"BW","Body Weight","385.8","g","385.8",385.8,"g",NA,NA,NA,NA,NA,NA,17,"2010-12-27T09:54:13",17
"PDS2014","BW","PDS2014-0010",311,"BW","Body Weight","381.7","g","381.7",381.7,"g",NA,NA,NA,NA,NA,NA,18,"2010-12-28T07:51:58",18
"PDS2014","BW","PDS2014-0010",312,"BW","Body Weight","391.8","g","391.8",391.8,"g",NA,NA,NA,NA,NA,NA,19,"2010-12-29T09:27:58",19
"PDS2014","BW","PDS2014-0010",313,"BW","Body Weight","393.6","g","393.6",393.6,"g",NA,NA,NA,NA,NA,NA,20,"2010-12-30T08:02:26",20
"PDS2014","BW","PDS2014-0010",314,"BW","Body Weight","400.6","g","400.6",400.6,"g",NA,NA,NA,NA,NA,NA,21,"2010-12-31T08:47:48",21
"PDS2014","BW","PDS2014-0010",315,"BW","Body Weight","404.6","g","404.6",404.6,"g",NA,NA,NA,NA,NA,NA,22,"2011-01-01T06:38:24",22
"PDS2014","BW","PDS2014-0010",316,"BW","Body Weight","403.5","g","403.5",403.5,"g",NA,NA,NA,NA,NA,NA,23,"2011-01-02T08:13:05",23
"PDS2014","BW","PDS2014-0010",317,"BW","Body Weight","411.6","g","411.6",411.6,"g",NA,NA,NA,NA,NA,NA,24,"2011-01-03T08:32:02",24
"PDS2014","BW","PDS2014-0010",318,"BW","Body Weight","417.9","g","417.9",417.9,"g",NA,NA,NA,NA,NA,NA,25,"2011-01-04T08:25:40",25
"PDS2014","BW","PDS2014-0010",319,"BW","Body Weight","415.8","g","415.8",415.8,"g",NA,NA,NA,NA,NA,NA,26,"2011-01-05T08:16:13",26
"PDS2014","BW","PDS2014-0010",320,"BW","Body Weight","425","g","425",425,"g",NA,NA,NA,NA,NA,NA,27,"2011-01-06T08:50:37",27
"PDS2014","BW","PDS2014-0010",321,"BW","Body Weight","423.5","g","423.5",423.5,"g",NA,NA,NA,NA,NA,NA,28,"2011-01-07T07:15:28",28
"PDS2014","BW","PDS2014-0010",322,"BW","Body Weight","424.8","g","424.8",424.8,"g",NA,NA,NA,NA,NA,NA,29,"2011-01-08T07:15:17",29
"PDS2014","BW","PDS2014-0010",323,"BW","Body Weight","434.7","g","434.7",434.7,"g",NA,NA,NA,NA,NA,NA,30,"2011-01-09T10:43:00",30
"PDS2014","BW","PDS2014-0010",324,"BW","Body Weight","403.6","g","403.6",403.6,"g",NA,NA,NA,NA,NA,NA,31,"2011-01-10T08:14:06",31
"PDS2014","BW","PDS2014-0010",325,"TERMBW","Terminal Body Weight",NA,NA,NA,NA,NA,"NOT DONE","perfusion animal",NA,NA,NA,NA,31,"2011-01-10T12:00:00",31
"PDS2014","BW","PDS2014-0011",326,"BW","Body Weight","279.2","g","279.2",279.2,"g",NA,NA,NA,NA,NA,NA,-4,"2010-12-07T10:35:51",-4
"PDS2014","BW","PDS2014-0011",327,"BW","Body Weight","308.5","g","308.5",308.5,"g",NA,NA,"Y",NA,NA,NA,1,"2010-12-11T09:34:53",1
"PDS2014","BW","PDS2014-0011",328,"BW","Body Weight","312.5","g","312.5",312.5,"g",NA,NA,NA,NA,NA,NA,2,"2010-12-12T10:34:45",2
"PDS2014","BW","PDS2014-0011",329,"BW","Body Weight","318.1","g","318.1",318.1,"g",NA,NA,NA,NA,NA,NA,3,"2010-12-13T11:11:42",3
"PDS2014","BW","PDS2014-0011",330,"BW","Body Weight","327.4","g","327.4",327.4,"g",NA,NA,NA,NA,NA,NA,4,"2010-12-14T09:53:48",4
"PDS2014","BW","PDS2014-0011",331,"BW","Body Weight","333.8","g","333.8",333.8,"g",NA,NA,NA,NA,NA,NA,5,"2010-12-15T08:34:26",5
"PDS2014","BW","PDS2014-0011",332,"BW","Body Weight","338.9","g","338.9",338.9,"g",NA,NA,NA,NA,NA,NA,6,"2010-12-16T08:55:49",6
"PDS2014","BW","PDS2014-0011",333,"BW","Body Weight","345","g","345",345,"g",NA,NA,NA,NA,NA,NA,7,"2010-12-17T08:02:44",7
"PDS2014","BW","PDS2014-0011",334,"BW","Body Weight","352","g","352",352,"g",NA,NA,NA,NA,NA,NA,8,"2010-12-18T08:11:38",8
"PDS2014","BW","PDS2014-0011",335,"BW","Body Weight","350.6","g","350.6",350.6,"g",NA,NA,NA,NA,NA,NA,9,"2010-12-19T11:41:51",9
"PDS2014","BW","PDS2014-0011",336,"BW","Body Weight","363.6","g","363.6",363.6,"g",NA,NA,NA,NA,NA,NA,10,"2010-12-20T10:58:04",10
"PDS2014","BW","PDS2014-0011",337,"BW","Body Weight","369.9","g","369.9",369.9,"g",NA,NA,NA,NA,NA,NA,11,"2010-12-21T07:27:40",11
"PDS2014","BW","PDS2014-0011",338,"BW","Body Weight","369.2","g","369.2",369.2,"g",NA,NA,NA,NA,NA,NA,12,"2010-12-22T08:07:33",12
"PDS2014","BW","PDS2014-0011",339,"BW","Body Weight","382.4","g","382.4",382.4,"g",NA,NA,NA,NA,NA,NA,13,"2010-12-23T07:27:45",13
"PDS2014","BW","PDS2014-0011",340,"BW","Body Weight","387.4","g","387.4",387.4,"g",NA,NA,NA,NA,NA,NA,14,"2010-12-24T07:56:35",14
"PDS2014","BW","PDS2014-0011",341,"BW","Body Weight","390","g","390",390,"g",NA,NA,NA,NA,NA,NA,15,"2010-12-25T07:32:21",15
"PDS2014","BW","PDS2014-0011",342,"BW","Body Weight","393.9","g","393.9",393.9,"g",NA,NA,NA,NA,NA,NA,16,"2010-12-26T07:10:49",16
"PDS2014","BW","PDS2014-0011",343,"BW","Body Weight","397.5","g","397.5",397.5,"g",NA,NA,NA,NA,NA,NA,17,"2010-12-27T09:57:14",17
"PDS2014","BW","PDS2014-0011",344,"BW","Body Weight","399.9","g","399.9",399.9,"g",NA,NA,NA,NA,NA,NA,18,"2010-12-28T07:53:49",18
"PDS2014","BW","PDS2014-0011",345,"BW","Body Weight","404","g","404",404,"g",NA,NA,NA,NA,NA,NA,19,"2010-12-29T09:32:06",19
"PDS2014","BW","PDS2014-0011",346,"BW","Body Weight","413.7","g","413.7",413.7,"g",NA,NA,NA,NA,NA,NA,20,"2010-12-30T08:05:35",20
"PDS2014","BW","PDS2014-0011",347,"BW","Body Weight","418.3","g","418.3",418.3,"g",NA,NA,NA,NA,NA,NA,21,"2010-12-31T08:51:20",21
"PDS2014","BW","PDS2014-0011",348,"BW","Body Weight","427.3","g","427.3",427.3,"g",NA,NA,NA,NA,NA,NA,22,"2011-01-01T06:43:58",22
"PDS2014","BW","PDS2014-0011",349,"BW","Body Weight","430.4","g","430.4",430.4,"g",NA,NA,NA,NA,NA,NA,23,"2011-01-02T08:15:51",23
"PDS2014","BW","PDS2014-0011",350,"BW","Body Weight","433.8","g","433.8",433.8,"g",NA,NA,NA,NA,NA,NA,24,"2011-01-03T08:34:09",24
"PDS2014","BW","PDS2014-0011",351,"BW","Body Weight","436.8","g","436.8",436.8,"g",NA,NA,NA,NA,NA,NA,25,"2011-01-04T08:27:42",25
"PDS2014","BW","PDS2014-0011",352,"BW","Body Weight","439.2","g","439.2",439.2,"g",NA,NA,NA,NA,NA,NA,26,"2011-01-05T08:17:32",26
"PDS2014","BW","PDS2014-0011",353,"BW","Body Weight","445.4","g","445.4",445.4,"g",NA,NA,NA,NA,NA,NA,27,"2011-01-06T08:53:47",27
"PDS2014","BW","PDS2014-0011",354,"BW","Body Weight","449.2","g","449.2",449.2,"g",NA,NA,NA,NA,NA,NA,28,"2011-01-07T07:25:25",28
"PDS2014","BW","PDS2014-0011",355,"BW","Body Weight","448.8","g","448.8",448.8,"g",NA,NA,NA,NA,NA,NA,29,"2011-01-08T07:17:56",29
"PDS2014","BW","PDS2014-0011",356,"BW","Body Weight","431.8","g","431.8",431.8,"g",NA,NA,NA,NA,NA,NA,30,"2011-01-09T10:56:34",30
"PDS2014","BW","PDS2014-0011",357,"BW","Body Weight","441.4","g","441.4",441.4,"g",NA,NA,NA,NA,NA,NA,31,"2011-01-10T09:41:57",31
"PDS2014","BW","PDS2014-0011",358,"BW","Body Weight","458.8","g","458.8",458.8,"g",NA,NA,NA,NA,NA,NA,38,"2011-01-17T10:31:36",38
"PDS2014","BW","PDS2014-0011",359,"BW","Body Weight","489.4","g","489.4",489.4,"g",NA,NA,NA,NA,NA,NA,45,"2011-01-24T07:43:51",45
"PDS2014","BW","PDS2014-0011",360,"BW","Body Weight","509.2","g","509.2",509.2,"g",NA,NA,NA,NA,NA,NA,52,"2011-01-31T07:39:26",52
"PDS2014","BW","PDS2014-0011",361,"BW","Body Weight","517.8","g","517.8",517.8,"g",NA,NA,NA,NA,NA,NA,57,"2011-02-05T07:43:23",57
"PDS2014","BW","PDS2014-0011",362,"BW","Body Weight","480.8","g","480.8",480.8,"g",NA,NA,NA,NA,NA,NA,58,"2011-02-06T07:44:02",58
"PDS2014","BW","PDS2014-0011",363,"TERMBW","Terminal Body Weight","480.8","g","480.8",480.8,"g",NA,NA,NA,NA,NA,NA,58,"2011-02-06T08:45:31",58
"PDS2014","BW","PDS2014-0012",364,"BW","Body Weight","293.6","g","293.6",293.6,"g",NA,NA,NA,NA,NA,NA,-4,"2010-12-07T10:32:14",-4
"PDS2014","BW","PDS2014-0012",365,"BW","Body Weight","328.8","g","328.8",328.8,"g",NA,NA,"Y",NA,NA,NA,1,"2010-12-11T09:35:21",1
"PDS2014","BW","PDS2014-0012",366,"BW","Body Weight","330.9","g","330.9",330.9,"g",NA,NA,NA,NA,NA,NA,2,"2010-12-12T10:35:35",2
"PDS2014","BW","PDS2014-0012",367,"BW","Body Weight","337.8","g","337.8",337.8,"g",NA,NA,NA,NA,NA,NA,3,"2010-12-13T11:10:31",3
"PDS2014","BW","PDS2014-0012",368,"BW","Body Weight","345","g","345",345,"g",NA,NA,NA,NA,NA,NA,4,"2010-12-14T09:52:38",4
"PDS2014","BW","PDS2014-0012",369,"BW","Body Weight","352.8","g","352.8",352.8,"g",NA,NA,NA,NA,NA,NA,5,"2010-12-15T08:34:42",5
"PDS2014","BW","PDS2014-0012",370,"BW","Body Weight","367.1","g","367.1",367.1,"g",NA,NA,NA,NA,NA,NA,6,"2010-12-16T08:56:03",6
"PDS2014","BW","PDS2014-0012",371,"BW","Body Weight","371.5","g","371.5",371.5,"g",NA,NA,NA,NA,NA,NA,7,"2010-12-17T08:03:23",7
"PDS2014","BW","PDS2014-0012",372,"BW","Body Weight","381","g","381",381,"g",NA,NA,NA,NA,NA,NA,8,"2010-12-18T08:11:08",8
"PDS2014","BW","PDS2014-0012",373,"BW","Body Weight","381","g","381",381,"g",NA,NA,NA,NA,NA,NA,9,"2010-12-19T11:42:10",9
"PDS2014","BW","PDS2014-0012",374,"BW","Body Weight","391.7","g","391.7",391.7,"g",NA,NA,NA,NA,NA,NA,10,"2010-12-20T10:57:44",10
"PDS2014","BW","PDS2014-0012",375,"BW","Body Weight","401","g","401",401,"g",NA,NA,NA,NA,NA,NA,11,"2010-12-21T07:28:09",11
"PDS2014","BW","PDS2014-0012",376,"BW","Body Weight","404.2","g","404.2",404.2,"g",NA,NA,NA,NA,NA,NA,12,"2010-12-22T08:07:56",12
"PDS2014","BW","PDS2014-0012",377,"BW","Body Weight","407.2","g","407.2",407.2,"g",NA,NA,NA,NA,NA,NA,13,"2010-12-23T07:26:48",13
"PDS2014","BW","PDS2014-0012",378,"BW","Body Weight","414.5","g","414.5",414.5,"g",NA,NA,NA,NA,NA,NA,14,"2010-12-24T07:57:45",14
"PDS2014","BW","PDS2014-0012",379,"BW","Body Weight","419.7","g","419.7",419.7,"g",NA,NA,NA,NA,NA,NA,15,"2010-12-25T07:35:45",15
"PDS2014","BW","PDS2014-0012",380,"BW","Body Weight","424.9","g","424.9",424.9,"g",NA,NA,NA,NA,NA,NA,16,"2010-12-26T07:11:34",16
"PDS2014","BW","PDS2014-0012",381,"BW","Body Weight","430.4","g","430.4",430.4,"g",NA,NA,NA,NA,NA,NA,17,"2010-12-27T09:57:34",17
"PDS2014","BW","PDS2014-0012",382,"BW","Body Weight","435.4","g","435.4",435.4,"g",NA,NA,NA,NA,NA,NA,18,"2010-12-28T07:54:44",18
"PDS2014","BW","PDS2014-0012",383,"BW","Body Weight","443.7","g","443.7",443.7,"g",NA,NA,NA,NA,NA,NA,19,"2010-12-29T09:31:41",19
"PDS2014","BW","PDS2014-0012",384,"BW","Body Weight","450.7","g","450.7",450.7,"g",NA,NA,NA,NA,NA,NA,20,"2010-12-30T08:05:59",20
"PDS2014","BW","PDS2014-0012",385,"BW","Body Weight","340.8","g","340.8",340.8,"g",NA,NA,NA,NA,NA,NA,21,"2010-12-31T08:50:57",21
"PDS2014","BW","PDS2014-0012",386,"BW","Body Weight","460.5","g","460.5",460.5,"g",NA,NA,NA,NA,NA,NA,22,"2011-01-01T06:43:28",22
"PDS2014","BW","PDS2014-0012",387,"BW","Body Weight","454.4","g","454.4",454.4,"g",NA,NA,NA,NA,NA,NA,23,"2011-01-02T08:15:12",23
"PDS2014","BW","PDS2014-0012",388,"BW","Body Weight","460.3","g","460.3",460.3,"g",NA,NA,NA,NA,NA,NA,24,"2011-01-03T08:35:09",24
"PDS2014","BW","PDS2014-0012",389,"BW","Body Weight","457.9","g","457.9",457.9,"g",NA,NA,NA,NA,NA,NA,25,"2011-01-04T08:27:00",25
"PDS2014","BW","PDS2014-0012",390,"BW","Body Weight","466.4","g","466.4",466.4,"g",NA,NA,NA,NA,NA,NA,26,"2011-01-05T08:18:49",26
"PDS2014","BW","PDS2014-0012",391,"BW","Body Weight","465.8","g","465.8",465.8,"g",NA,NA,NA,NA,NA,NA,27,"2011-01-06T08:54:26",27
"PDS2014","BW","PDS2014-0012",392,"BW","Body Weight","469.5","g","469.5",469.5,"g",NA,NA,NA,NA,NA,NA,28,"2011-01-07T07:24:54",28
"PDS2014","BW","PDS2014-0012",393,"BW","Body Weight","476.7","g","476.7",476.7,"g",NA,NA,NA,NA,NA,NA,29,"2011-01-08T07:18:58",29
"PDS2014","BW","PDS2014-0012",394,"BW","Body Weight","449.9","g","449.9",449.9,"g",NA,NA,NA,NA,NA,NA,30,"2011-01-09T10:55:29",30
"PDS2014","BW","PDS2014-0012",395,"BW","Body Weight","460.9","g","460.9",460.9,"g",NA,NA,NA,NA,NA,NA,31,"2011-01-10T09:42:36",31
"PDS2014","BW","PDS2014-0012",396,"BW","Body Weight","481.1","g","481.1",481.1,"g",NA,NA,NA,NA,NA,NA,38,"2011-01-17T10:31:50",38
"PDS2014","BW","PDS2014-0012",397,"BW","Body Weight","510.3","g","510.3",510.3,"g",NA,NA,NA,NA,NA,NA,45,"2011-01-24T07:44:08",45
"PDS2014","BW","PDS2014-0012",398,"BW","Body Weight","529.8","g","529.8",529.8,"g",NA,NA,NA,NA,NA,NA,52,"2011-01-31T07:39:57",52
"PDS2014","BW","PDS2014-0012",399,"BW","Body Weight","531.7","g","531.7",531.7,"g",NA,NA,NA,NA,NA,NA,57,"2011-02-05T07:43:02",57
"PDS2014","BW","PDS2014-0012",400,"BW","Body Weight","495.2","g","495.2",495.2,"g",NA,NA,NA,NA,NA,NA,58,"2011-02-06T07:45:27",58
"PDS2014","BW","PDS2014-0012",401,"TERMBW","Terminal Body Weight","495.2","g","495.2",495.2,"g",NA,NA,NA,NA,NA,NA,58,"2011-02-06T09:34:10",58
"PDS2014","BW","PDS2014-0013",402,"BW","Body Weight","286.6","g","286.6",286.6,"g",NA,NA,NA,NA,NA,NA,-4,"2010-12-07T10:36:27",-4
"PDS2014","BW","PDS2014-0013",403,"BW","Body Weight","307.5","g","307.5",307.5,"g",NA,NA,"Y",NA,NA,NA,1,"2010-12-11T09:34:22",1
"PDS2014","BW","PDS2014-0013",404,"BW","Body Weight","306.4","g","306.4",306.4,"g",NA,NA,NA,NA,NA,NA,2,"2010-12-12T10:33:45",2
"PDS2014","BW","PDS2014-0013",405,"BW","Body Weight","320.5","g","320.5",320.5,"g",NA,NA,NA,NA,NA,NA,3,"2010-12-13T11:10:13",3
"PDS2014","BW","PDS2014-0013",406,"BW","Body Weight","329.5","g","329.5",329.5,"g",NA,NA,NA,NA,NA,NA,4,"2010-12-14T09:53:18",4
"PDS2014","BW","PDS2014-0013",407,"BW","Body Weight","330.3","g","330.3",330.3,"g",NA,NA,NA,NA,NA,NA,5,"2010-12-15T08:34:12",5
"PDS2014","BW","PDS2014-0013",408,"BW","Body Weight","343.5","g","343.5",343.5,"g",NA,NA,NA,NA,NA,NA,6,"2010-12-16T08:56:34",6
"PDS2014","BW","PDS2014-0013",409,"BW","Body Weight","352.7","g","352.7",352.7,"g",NA,NA,NA,NA,NA,NA,7,"2010-12-17T08:03:03",7
"PDS2014","BW","PDS2014-0013",410,"BW","Body Weight","356.7","g","356.7",356.7,"g",NA,NA,NA,NA,NA,NA,8,"2010-12-18T08:12:07",8
"PDS2014","BW","PDS2014-0013",411,"BW","Body Weight","353.9","g","353.9",353.9,"g",NA,NA,NA,NA,NA,NA,9,"2010-12-19T11:41:01",9
"PDS2014","BW","PDS2014-0013",412,"BW","Body Weight","362","g","362",362,"g",NA,NA,NA,NA,NA,NA,10,"2010-12-20T10:58:40",10
"PDS2014","BW","PDS2014-0013",413,"BW","Body Weight","366.1","g","366.1",366.1,"g",NA,NA,NA,NA,NA,NA,11,"2010-12-21T07:27:18",11
"PDS2014","BW","PDS2014-0013",414,"BW","Body Weight","365.8","g","365.8",365.8,"g",NA,NA,NA,NA,NA,NA,12,"2010-12-22T08:06:56",12
"PDS2014","BW","PDS2014-0013",415,"BW","Body Weight","382.6","g","382.6",382.6,"g",NA,NA,NA,NA,NA,NA,13,"2010-12-23T07:26:28",13
"PDS2014","BW","PDS2014-0013",416,"BW","Body Weight","380.4","g","380.4",380.4,"g",NA,NA,NA,NA,NA,NA,14,"2010-12-24T07:57:08",14
"PDS2014","BW","PDS2014-0013",417,"BW","Body Weight","348.1","g","348.1",348.1,"g",NA,NA,NA,NA,NA,NA,15,"2010-12-25T07:37:00",15
"PDS2014","BW","PDS2014-0013",418,"BW","Body Weight","391.4","g","391.4",391.4,"g",NA,NA,NA,NA,NA,NA,16,"2010-12-26T07:12:33",16
"PDS2014","BW","PDS2014-0013",419,"BW","Body Weight","393.4","g","393.4",393.4,"g",NA,NA,NA,NA,NA,NA,17,"2010-12-27T09:56:33",17
"PDS2014","BW","PDS2014-0013",420,"BW","Body Weight","393.2","g","393.2",393.2,"g",NA,NA,NA,NA,NA,NA,18,"2010-12-28T07:54:17",18
"PDS2014","BW","PDS2014-0013",421,"BW","Body Weight","400.4","g","400.4",400.4,"g",NA,NA,NA,NA,NA,NA,19,"2010-12-29T09:32:30",19
"PDS2014","BW","PDS2014-0013",422,"BW","Body Weight","394.4","g","394.4",394.4,"g",NA,NA,NA,NA,NA,NA,20,"2010-12-30T08:06:19",20
"PDS2014","BW","PDS2014-0013",423,"BW","Body Weight","399.3","g","399.3",399.3,"g",NA,NA,NA,NA,NA,NA,21,"2010-12-31T08:50:39",21
"PDS2014","BW","PDS2014-0013",424,"BW","Body Weight","400.9","g","400.9",400.9,"g",NA,NA,NA,NA,NA,NA,22,"2011-01-01T06:42:20",22
"PDS2014","BW","PDS2014-0013",425,"BW","Body Weight","405.4","g","405.4",405.4,"g",NA,NA,NA,NA,NA,NA,23,"2011-01-02T08:15:32",23
"PDS2014","BW","PDS2014-0013",426,"BW","Body Weight","400.9","g","400.9",400.9,"g",NA,NA,NA,NA,NA,NA,24,"2011-01-03T08:34:54",24
"PDS2014","BW","PDS2014-0013",427,"BW","Body Weight","402.6","g","402.6",402.6,"g",NA,NA,NA,NA,NA,NA,25,"2011-01-04T08:27:23",25
"PDS2014","BW","PDS2014-0013",428,"BW","Body Weight","401","g","401",401,"g",NA,NA,NA,NA,NA,NA,26,"2011-01-05T08:17:08",26
"PDS2014","BW","PDS2014-0013",429,"BW","Body Weight","402","g","402",402,"g",NA,NA,NA,NA,NA,NA,27,"2011-01-06T08:53:21",27
"PDS2014","BW","PDS2014-0013",430,"BW","Body Weight","403.6","g","403.6",403.6,"g",NA,NA,NA,NA,NA,NA,28,"2011-01-07T07:24:07",28
"PDS2014","BW","PDS2014-0013",431,"BW","Body Weight","401.2","g","401.2",401.2,"g",NA,NA,NA,NA,NA,NA,29,"2011-01-08T07:17:16",29
"PDS2014","BW","PDS2014-0013",432,"BW","Body Weight","390.6","g","390.6",390.6,"g",NA,NA,NA,NA,NA,NA,30,"2011-01-09T10:56:13",30
"PDS2014","BW","PDS2014-0013",433,"BW","Body Weight","389.3","g","389.3",389.3,"g",NA,NA,NA,NA,NA,NA,31,"2011-01-10T09:39:38",31
"PDS2014","BW","PDS2014-0013",434,"BW","Body Weight","408.7","g","408.7",408.7,"g",NA,NA,NA,NA,NA,NA,38,"2011-01-17T10:28:54",38
"PDS2014","BW","PDS2014-0013",435,"BW","Body Weight","426.5","g","426.5",426.5,"g",NA,NA,NA,NA,NA,NA,45,"2011-01-24T07:44:38",45
"PDS2014","BW","PDS2014-0013",436,"BW","Body Weight","464.5","g","464.5",464.5,"g",NA,NA,NA,NA,NA,NA,52,"2011-01-31T07:38:26",52
"PDS2014","BW","PDS2014-0013",437,"BW","Body Weight","458.6","g","458.6",458.6,"g",NA,NA,NA,NA,NA,NA,57,"2011-02-05T07:41:58",57
"PDS2014","BW","PDS2014-0013",438,"BW","Body Weight","424.2","g","424.2",424.2,"g",NA,NA,NA,NA,NA,NA,58,"2011-02-06T07:46:34",58
"PDS2014","BW","PDS2014-0013",439,"TERMBW","Terminal Body Weight","424.2","g","424.2",424.2,"g",NA,NA,NA,NA,NA,NA,58,"2011-02-06T10:54:21",58
"PDS2014","BW","PDS2014-0014",440,"BW","Body Weight","301.3","g","301.3",301.3,"g",NA,NA,NA,NA,NA,NA,-4,"2010-12-07T10:35:11",-4
"PDS2014","BW","PDS2014-0014",441,"BW","Body Weight","321.5","g","321.5",321.5,"g",NA,NA,"Y",NA,NA,NA,1,"2010-12-11T09:33:32",1
"PDS2014","BW","PDS2014-0014",442,"BW","Body Weight","318.2","g","318.2",318.2,"g",NA,NA,NA,NA,NA,NA,2,"2010-12-12T10:34:17",2
"PDS2014","BW","PDS2014-0014",443,"BW","Body Weight","325.9","g","325.9",325.9,"g",NA,NA,NA,NA,NA,NA,3,"2010-12-13T11:11:23",3
"PDS2014","BW","PDS2014-0014",444,"BW","Body Weight","326.6","g","326.6",326.6,"g",NA,NA,NA,NA,NA,NA,4,"2010-12-14T09:52:55",4
"PDS2014","BW","PDS2014-0014",445,"BW","Body Weight","333.6","g","333.6",333.6,"g",NA,NA,NA,NA,NA,NA,5,"2010-12-15T08:34:57",5
"PDS2014","BW","PDS2014-0014",446,"BW","Body Weight","335.4","g","335.4",335.4,"g",NA,NA,NA,NA,NA,NA,6,"2010-12-16T08:56:17",6
"PDS2014","BW","PDS2014-0014",447,"BW","Body Weight","338.2","g","338.2",338.2,"g",NA,NA,NA,NA,NA,NA,7,"2010-12-17T08:03:44",7
"PDS2014","BW","PDS2014-0014",448,"BW","Body Weight","345.4","g","345.4",345.4,"g",NA,NA,NA,NA,NA,NA,8,"2010-12-18T08:10:12",8
"PDS2014","BW","PDS2014-0014",449,"BW","Body Weight","337.8","g","337.8",337.8,"g",NA,NA,NA,NA,NA,NA,9,"2010-12-19T11:41:25",9
"PDS2014","BW","PDS2014-0014",450,"BW","Body Weight","346.6","g","346.6",346.6,"g",NA,NA,NA,NA,NA,NA,10,"2010-12-20T10:57:22",10
"PDS2014","BW","PDS2014-0014",451,"BW","Body Weight","351.2","g","351.2",351.2,"g",NA,NA,NA,NA,NA,NA,11,"2010-12-21T07:26:57",11
"PDS2014","BW","PDS2014-0014",452,"BW","Body Weight","349.6","g","349.6",349.6,"g",NA,NA,NA,NA,NA,NA,12,"2010-12-22T08:06:39",12
"PDS2014","BW","PDS2014-0014",453,"BW","Body Weight","357.6","g","357.6",357.6,"g",NA,NA,NA,NA,NA,NA,13,"2010-12-23T07:27:07",13
"PDS2014","BW","PDS2014-0014",454,"BW","Body Weight","360.8","g","360.8",360.8,"g",NA,NA,NA,NA,NA,NA,14,"2010-12-24T07:56:50",14
"PDS2014","BW","PDS2014-0014",455,"BW","Body Weight","362.3","g","362.3",362.3,"g",NA,NA,NA,NA,NA,NA,15,"2010-12-25T07:35:23",15
"PDS2014","BW","PDS2014-0014",456,"BW","Body Weight","364.2","g","364.2",364.2,"g",NA,NA,NA,NA,NA,NA,16,"2010-12-26T07:11:54",16
"PDS2014","BW","PDS2014-0014",457,"BW","Body Weight","372.3","g","372.3",372.3,"g",NA,NA,NA,NA,NA,NA,17,"2010-12-27T09:56:50",17
"PDS2014","BW","PDS2014-0014",458,"BW","Body Weight","372","g","372",372,"g",NA,NA,NA,NA,NA,NA,18,"2010-12-28T07:55:27",18
"PDS2014","BW","PDS2014-0014",459,"BW","Body Weight","378.2","g","378.2",378.2,"g",NA,NA,NA,NA,NA,NA,19,"2010-12-29T09:31:15",19
"PDS2014","BW","PDS2014-0014",460,"BW","Body Weight","372.8","g","372.8",372.8,"g",NA,NA,NA,NA,NA,NA,20,"2010-12-30T08:05:00",20
"PDS2014","BW","PDS2014-0014",461,"BW","Body Weight","377","g","377",377,"g",NA,NA,NA,NA,NA,NA,21,"2010-12-31T08:50:21",21
"PDS2014","BW","PDS2014-0014",462,"BW","Body Weight","377.5","g","377.5",377.5,"g",NA,NA,NA,NA,NA,NA,22,"2011-01-01T06:44:23",22
"PDS2014","BW","PDS2014-0014",463,"BW","Body Weight","382","g","382",382,"g",NA,NA,NA,NA,NA,NA,23,"2011-01-02T08:14:51",23
"PDS2014","BW","PDS2014-0014",464,"BW","Body Weight","386.2","g","386.2",386.2,"g",NA,NA,NA,NA,NA,NA,24,"2011-01-03T08:33:55",24
"PDS2014","BW","PDS2014-0014",465,"BW","Body Weight","380.8","g","380.8",380.8,"g",NA,NA,NA,NA,NA,NA,25,"2011-01-04T08:28:08",25
"PDS2014","BW","PDS2014-0014",466,"BW","Body Weight","386.2","g","386.2",386.2,"g",NA,NA,NA,NA,NA,NA,26,"2011-01-05T08:17:55",26
"PDS2014","BW","PDS2014-0014",467,"BW","Body Weight","388.3","g","388.3",388.3,"g",NA,NA,NA,NA,NA,NA,27,"2011-01-06T08:53:00",27
"PDS2014","BW","PDS2014-0014",468,"BW","Body Weight","388.7","g","388.7",388.7,"g",NA,NA,NA,NA,NA,NA,28,"2011-01-07T07:23:44",28
"PDS2014","BW","PDS2014-0014",469,"BW","Body Weight","390.9","g","390.9",390.9,"g",NA,NA,NA,NA,NA,NA,29,"2011-01-08T07:18:25",29
"PDS2014","BW","PDS2014-0014",470,"BW","Body Weight","386.1","g","386.1",386.1,"g",NA,NA,NA,NA,NA,NA,30,"2011-01-09T10:56:56",30
"PDS2014","BW","PDS2014-0014",471,"BW","Body Weight","395","g","395",395,"g",NA,NA,NA,NA,NA,NA,31,"2011-01-10T09:41:09",31
"PDS2014","BW","PDS2014-0014",472,"BW","Body Weight","409.8","g","409.8",409.8,"g",NA,NA,NA,NA,NA,NA,38,"2011-01-17T10:32:08",38
"PDS2014","BW","PDS2014-0014",473,"BW","Body Weight","416.1","g","416.1",416.1,"g",NA,NA,NA,NA,NA,NA,45,"2011-01-24T07:44:22",45
"PDS2014","BW","PDS2014-0014",474,"BW","Body Weight","423.1","g","423.1",423.1,"g",NA,NA,NA,NA,NA,NA,52,"2011-01-31T07:39:43",52
"PDS2014","BW","PDS2014-0014",475,"BW","Body Weight","426.9","g","426.9",426.9,"g",NA,NA,NA,NA,NA,NA,57,"2011-02-05T07:43:44",57
"PDS2014","BW","PDS2014-0014",476,"BW","Body Weight","406.6","g","406.6",406.6,"g",NA,NA,NA,NA,NA,NA,58,"2011-02-06T07:48:47",58
"PDS2014","BW","PDS2014-0014",477,"TERMBW","Terminal Body Weight","406.6","g","406.6",406.6,"g",NA,NA,NA,NA,NA,NA,58,"2011-02-06T09:20:46",58
"PDS2014","BW","PDS2014-0015",478,"BW","Body Weight","284.3","g","284.3",284.3,"g",NA,NA,NA,NA,NA,NA,-4,"2010-12-07T10:40:32",-4
"PDS2014","BW","PDS2014-0015",479,"BW","Body Weight","312.2","g","312.2",312.2,"g",NA,NA,"Y",NA,NA,NA,1,"2010-12-11T09:33:55",1
"PDS2014","BW","PDS2014-0015",480,"BW","Body Weight","314.5","g","314.5",314.5,"g",NA,NA,NA,NA,NA,NA,2,"2010-12-12T10:35:09",2
"PDS2014","BW","PDS2014-0015",481,"BW","Body Weight","318.8","g","318.8",318.8,"g",NA,NA,NA,NA,NA,NA,3,"2010-12-13T11:11:05",3
"PDS2014","BW","PDS2014-0015",482,"BW","Body Weight","323.3","g","323.3",323.3,"g",NA,NA,NA,NA,NA,NA,4,"2010-12-14T09:54:08",4
"PDS2014","BW","PDS2014-0015",483,"BW","Body Weight","326","g","326",326,"g",NA,NA,NA,NA,NA,NA,5,"2010-12-15T08:35:17",5
"PDS2014","BW","PDS2014-0015",484,"BW","Body Weight","330.3","g","330.3",330.3,"g",NA,NA,NA,NA,NA,NA,6,"2010-12-16T08:55:35",6
"PDS2014","BW","PDS2014-0015",485,"BW","Body Weight","334.6","g","334.6",334.6,"g",NA,NA,NA,NA,NA,NA,7,"2010-12-17T08:04:10",7
"PDS2014","BW","PDS2014-0015",486,"BW","Body Weight","338.4","g","338.4",338.4,"g",NA,NA,NA,NA,NA,NA,8,"2010-12-18T08:12:35",8
"PDS2014","BW","PDS2014-0015",487,"BW","Body Weight","333.2","g","333.2",333.2,"g",NA,NA,NA,NA,NA,NA,9,"2010-12-19T11:42:28",9
"PDS2014","BW","PDS2014-0015",488,"BW","Body Weight","339.8","g","339.8",339.8,"g",NA,NA,NA,NA,NA,NA,10,"2010-12-20T10:58:23",10
"PDS2014","BW","PDS2014-0015",489,"BW","Body Weight","347.7","g","347.7",347.7,"g",NA,NA,NA,NA,NA,NA,11,"2010-12-21T07:26:36",11
"PDS2014","BW","PDS2014-0015",490,"BW","Body Weight","341.4","g","341.4",341.4,"g",NA,NA,NA,NA,NA,NA,12,"2010-12-22T08:07:14",12
"PDS2014","BW","PDS2014-0015",491,"BW","Body Weight","356.3","g","356.3",356.3,"g",NA,NA,NA,NA,NA,NA,13,"2010-12-23T07:27:24",13
"PDS2014","BW","PDS2014-0015",492,"BW","Body Weight","356.4","g","356.4",356.4,"g",NA,NA,NA,NA,NA,NA,14,"2010-12-24T07:57:25",14
"PDS2014","BW","PDS2014-0015",493,"BW","Body Weight","358.3","g","358.3",358.3,"g",NA,NA,NA,NA,NA,NA,15,"2010-12-25T07:33:44",15
"PDS2014","BW","PDS2014-0015",494,"BW","Body Weight","365.7","g","365.7",365.7,"g",NA,NA,NA,NA,NA,NA,16,"2010-12-26T07:11:11",16
"PDS2014","BW","PDS2014-0015",495,"BW","Body Weight","365.7","g","365.7",365.7,"g",NA,NA,NA,NA,NA,NA,17,"2010-12-27T09:56:15",17
"PDS2014","BW","PDS2014-0015",496,"BW","Body Weight","368.5","g","368.5",368.5,"g",NA,NA,NA,NA,NA,NA,18,"2010-12-28T07:55:07",18
"PDS2014","BW","PDS2014-0015",497,"BW","Body Weight","365.8","g","365.8",365.8,"g",NA,NA,NA,NA,NA,NA,19,"2010-12-29T09:30:53",19
"PDS2014","BW","PDS2014-0015",498,"BW","Body Weight","368.4","g","368.4",368.4,"g",NA,NA,NA,NA,NA,NA,20,"2010-12-30T08:06:39",20
"PDS2014","BW","PDS2014-0015",499,"BW","Body Weight","369.8","g","369.8",369.8,"g",NA,NA,NA,NA,NA,NA,21,"2010-12-31T08:51:37",21
"PDS2014","BW","PDS2014-0015",500,"BW","Body Weight","378.4","g","378.4",378.4,"g",NA,NA,NA,NA,NA,NA,22,"2011-01-01T06:44:47",22
"PDS2014","BW","PDS2014-0015",501,"BW","Body Weight","382.9","g","382.9",382.9,"g",NA,NA,NA,NA,NA,NA,23,"2011-01-02T08:16:12",23
"PDS2014","BW","PDS2014-0015",502,"BW","Body Weight","372.9","g","372.9",372.9,"g",NA,NA,NA,NA,NA,NA,24,"2011-01-03T08:34:25",24
"PDS2014","BW","PDS2014-0015",503,"BW","Body Weight","371.6","g","371.6",371.6,"g",NA,NA,NA,NA,NA,NA,25,"2011-01-04T08:26:38",25
"PDS2014","BW","PDS2014-0015",504,"BW","Body Weight","379.1","g","379.1",379.1,"g",NA,NA,NA,NA,NA,NA,26,"2011-01-05T08:18:14",26
"PDS2014","BW","PDS2014-0015",505,"BW","Body Weight","374.5","g","374.5",374.5,"g",NA,NA,NA,NA,NA,NA,27,"2011-01-06T08:54:06",27
"PDS2014","BW","PDS2014-0015",506,"BW","Body Weight","375.5","g","375.5",375.5,"g",NA,NA,NA,NA,NA,NA,28,"2011-01-07T07:24:29",28
"PDS2014","BW","PDS2014-0015",507,"BW","Body Weight","376.6","g","376.6",376.6,"g",NA,NA,NA,NA,NA,NA,29,"2011-01-08T07:16:45",29
"PDS2014","BW","PDS2014-0015",508,"BW","Body Weight","371.7","g","371.7",371.7,"g",NA,NA,NA,NA,NA,NA,30,"2011-01-09T10:57:22",30
"PDS2014","BW","PDS2014-0015",509,"BW","Body Weight","372.3","g","372.3",372.3,"g",NA,NA,NA,NA,NA,NA,31,"2011-01-10T09:42:15",31
"PDS2014","BW","PDS2014-0015",510,"BW","Body Weight","394.3","g","394.3",394.3,"g",NA,NA,NA,NA,NA,NA,38,"2011-01-17T10:31:23",38
"PDS2014","BW","PDS2014-0015",511,"BW","Body Weight","428.9","g","428.9",428.9,"g",NA,NA,NA,NA,NA,NA,45,"2011-01-24T07:42:03",45
"PDS2014","BW","PDS2014-0015",512,"BW","Body Weight","452.1","g","452.1",452.1,"g",NA,NA,NA,NA,NA,NA,52,"2011-01-31T07:39:13",52
"PDS2014","BW","PDS2014-0015",513,"BW","Body Weight","451.3","g","451.3",451.3,"g",NA,NA,NA,NA,NA,NA,57,"2011-02-05T07:42:46",57
"PDS2014","BW","PDS2014-0015",514,"BW","Body Weight","420.4","g","420.4",420.4,"g",NA,NA,NA,NA,NA,NA,58,"2011-02-06T07:49:38",58
"PDS2014","BW","PDS2014-0015",515,"TERMBW","Terminal Body Weight","420.4","g","420.4",420.4,"g",NA,NA,NA,NA,NA,NA,58,"2011-02-06T10:35:03",58
"PDS2014","BW","PDS2014-0016",516,"BW","Body Weight","279.2","g","279.2",279.2,"g",NA,NA,NA,NA,NA,NA,-4,"2010-12-07T10:30:45",-4
"PDS2014","BW","PDS2014-0016",517,"BW","Body Weight","306.7","g","306.7",306.7,"g",NA,NA,"Y",NA,NA,NA,1,"2010-12-11T08:20:40",1
"PDS2014","BW","PDS2014-0016",518,"BW","Body Weight","302.5","g","302.5",302.5,"g",NA,NA,NA,NA,NA,NA,2,"2010-12-12T10:36:35",2
"PDS2014","BW","PDS2014-0016",519,"BW","Body Weight","307.7","g","307.7",307.7,"g",NA,NA,NA,NA,NA,NA,3,"2010-12-13T11:12:32",3
"PDS2014","BW","PDS2014-0016",520,"BW","Body Weight","314","g","314",314,"g",NA,NA,NA,NA,NA,NA,4,"2010-12-14T09:54:43",4
"PDS2014","BW","PDS2014-0016",521,"BW","Body Weight","322.9","g","322.9",322.9,"g",NA,NA,NA,NA,NA,NA,5,"2010-12-15T08:36:17",5
"PDS2014","BW","PDS2014-0016",522,"BW","Body Weight","323.9","g","323.9",323.9,"g",NA,NA,NA,NA,NA,NA,6,"2010-12-16T08:57:11",6
"PDS2014","BW","PDS2014-0016",523,"BW","Body Weight","333.8","g","333.8",333.8,"g",NA,NA,NA,NA,NA,NA,7,"2010-12-17T08:05:13",7
"PDS2014","BW","PDS2014-0016",524,"BW","Body Weight","333","g","333",333,"g",NA,NA,NA,NA,NA,NA,8,"2010-12-18T08:13:50",8
"PDS2014","BW","PDS2014-0016",525,"BW","Body Weight","333.1","g","333.1",333.1,"g",NA,NA,NA,NA,NA,NA,9,"2010-12-19T11:43:34",9
"PDS2014","BW","PDS2014-0016",526,"BW","Body Weight","338.7","g","338.7",338.7,"g",NA,NA,NA,NA,NA,NA,10,"2010-12-20T10:59:47",10
"PDS2014","BW","PDS2014-0016",527,"BW","Body Weight","351.1","g","351.1",351.1,"g",NA,NA,NA,NA,NA,NA,11,"2010-12-21T07:28:44",11
"PDS2014","BW","PDS2014-0016",528,"BW","Body Weight","352","g","352",352,"g",NA,NA,NA,NA,NA,NA,12,"2010-12-22T08:08:59",12
"PDS2014","BW","PDS2014-0016",529,"BW","Body Weight","355.1","g","355.1",355.1,"g",NA,NA,NA,NA,NA,NA,13,"2010-12-23T07:28:26",13
"PDS2014","BW","PDS2014-0016",530,"BW","Body Weight","355.4","g","355.4",355.4,"g",NA,NA,NA,NA,NA,NA,14,"2010-12-24T07:58:49",14
"PDS2014","BW","PDS2014-0016",531,"BW","Body Weight","358.7","g","358.7",358.7,"g",NA,NA,NA,NA,NA,NA,15,"2010-12-25T07:42:41",15
"PDS2014","BW","PDS2014-0016",532,"BW","Body Weight","358","g","358",358,"g",NA,NA,NA,NA,NA,NA,16,"2010-12-26T07:13:38",16
"PDS2014","BW","PDS2014-0016",533,"BW","Body Weight","364","g","364",364,"g",NA,NA,NA,NA,NA,NA,17,"2010-12-27T09:58:01",17
"PDS2014","BW","PDS2014-0016",534,"BW","Body Weight","355","g","355",355,"g",NA,NA,NA,NA,NA,NA,18,"2010-12-28T07:55:54",18
"PDS2014","BW","PDS2014-0016",535,"BW","Body Weight","366","g","366",366,"g",NA,NA,NA,NA,NA,NA,19,"2010-12-29T09:33:21",19
"PDS2014","BW","PDS2014-0016",536,"BW","Body Weight","365.2","g","365.2",365.2,"g",NA,NA,NA,NA,NA,NA,20,"2010-12-30T08:07:09",20
"PDS2014","BW","PDS2014-0016",537,"BW","Body Weight","368.7","g","368.7",368.7,"g",NA,NA,NA,NA,NA,NA,21,"2010-12-31T08:52:02",21
"PDS2014","BW","PDS2014-0016",538,"BW","Body Weight","373","g","373",373,"g",NA,NA,NA,NA,NA,NA,22,"2011-01-01T06:45:16",22
"PDS2014","BW","PDS2014-0016",539,"BW","Body Weight","371","g","371",371,"g",NA,NA,NA,NA,NA,NA,23,"2011-01-02T08:16:49",23
"PDS2014","BW","PDS2014-0016",540,"BW","Body Weight","375.3","g","375.3",375.3,"g",NA,NA,NA,NA,NA,NA,24,"2011-01-03T08:35:52",24
"PDS2014","BW","PDS2014-0016",541,"BW","Body Weight","375.7","g","375.7",375.7,"g",NA,NA,NA,NA,NA,NA,25,"2011-01-04T08:28:53",25
"PDS2014","BW","PDS2014-0016",542,"BW","Body Weight","377","g","377",377,"g",NA,NA,NA,NA,NA,NA,26,"2011-01-05T08:19:28",26
"PDS2014","BW","PDS2014-0016",543,"BW","Body Weight","382.3","g","382.3",382.3,"g",NA,NA,NA,NA,NA,NA,27,"2011-01-06T08:55:08",27
"PDS2014","BW","PDS2014-0016",544,"BW","Body Weight","380","g","380",380,"g",NA,NA,NA,NA,NA,NA,28,"2011-01-07T07:25:53",28
"PDS2014","BW","PDS2014-0016",545,"BW","Body Weight","378.6","g","378.6",378.6,"g",NA,NA,NA,NA,NA,NA,29,"2011-01-08T07:29:23",29
"PDS2014","BW","PDS2014-0016",546,"BW","Body Weight","381.7","g","381.7",381.7,"g",NA,NA,NA,NA,NA,NA,30,"2011-01-09T13:46:57",30
"PDS2014","BW","PDS2014-0017",547,"BW","Body Weight","282.1","g","282.1",282.1,"g",NA,NA,NA,NA,NA,NA,-4,"2010-12-07T10:33:23",-4
"PDS2014","BW","PDS2014-0017",548,"BW","Body Weight","316.3","g","316.3",316.3,"g",NA,NA,"Y",NA,NA,NA,1,"2010-12-11T08:23:01",1
"PDS2014","BW","PDS2014-0017",549,"BW","Body Weight","311.4","g","311.4",311.4,"g",NA,NA,NA,NA,NA,NA,2,"2010-12-12T10:36:11",2
"PDS2014","BW","PDS2014-0017",550,"BW","Body Weight","320.8","g","320.8",320.8,"g",NA,NA,NA,NA,NA,NA,3,"2010-12-13T11:12:49",3
"PDS2014","BW","PDS2014-0017",551,"BW","Body Weight","331.1","g","331.1",331.1,"g",NA,NA,NA,NA,NA,NA,4,"2010-12-14T09:55:28",4
"PDS2014","BW","PDS2014-0017",552,"BW","Body Weight","334.8","g","334.8",334.8,"g",NA,NA,NA,NA,NA,NA,5,"2010-12-15T08:36:02",5
"PDS2014","BW","PDS2014-0017",553,"BW","Body Weight","337.5","g","337.5",337.5,"g",NA,NA,NA,NA,NA,NA,6,"2010-12-16T08:56:57",6
"PDS2014","BW","PDS2014-0017",554,"BW","Body Weight","349.5","g","349.5",349.5,"g",NA,NA,NA,NA,NA,NA,7,"2010-12-17T08:05:56",7
"PDS2014","BW","PDS2014-0017",555,"BW","Body Weight","349.5","g","349.5",349.5,"g",NA,NA,NA,NA,NA,NA,8,"2010-12-18T08:13:13",8
"PDS2014","BW","PDS2014-0017",556,"BW","Body Weight","358.1","g","358.1",358.1,"g",NA,NA,NA,NA,NA,NA,9,"2010-12-19T11:43:14",9
"PDS2014","BW","PDS2014-0017",557,"BW","Body Weight","358.8","g","358.8",358.8,"g",NA,NA,NA,NA,NA,NA,10,"2010-12-20T10:59:26",10
"PDS2014","BW","PDS2014-0017",558,"BW","Body Weight","368","g","368",368,"g",NA,NA,NA,NA,NA,NA,11,"2010-12-21T07:29:29",11
"PDS2014","BW","PDS2014-0017",559,"BW","Body Weight","369.3","g","369.3",369.3,"g",NA,NA,NA,NA,NA,NA,12,"2010-12-22T08:08:43",12
"PDS2014","BW","PDS2014-0017",560,"BW","Body Weight","373.6","g","373.6",373.6,"g",NA,NA,NA,NA,NA,NA,13,"2010-12-23T07:28:09",13
"PDS2014","BW","PDS2014-0017",561,"BW","Body Weight","381.6","g","381.6",381.6,"g",NA,NA,NA,NA,NA,NA,14,"2010-12-24T07:58:29",14
"PDS2014","BW","PDS2014-0017",562,"BW","Body Weight","384.5","g","384.5",384.5,"g",NA,NA,NA,NA,NA,NA,15,"2010-12-25T07:42:24",15
"PDS2014","BW","PDS2014-0017",563,"BW","Body Weight","381.5","g","381.5",381.5,"g",NA,NA,NA,NA,NA,NA,16,"2010-12-26T07:13:20",16
"PDS2014","BW","PDS2014-0017",564,"BW","Body Weight","398.6","g","398.6",398.6,"g",NA,NA,NA,NA,NA,NA,17,"2010-12-27T09:58:18",17
"PDS2014","BW","PDS2014-0017",565,"BW","Body Weight","389.3","g","389.3",389.3,"g",NA,NA,NA,NA,NA,NA,18,"2010-12-28T07:56:33",18
"PDS2014","BW","PDS2014-0017",566,"BW","Body Weight","394.5","g","394.5",394.5,"g",NA,NA,NA,NA,NA,NA,19,"2010-12-29T09:33:02",19
"PDS2014","BW","PDS2014-0017",567,"BW","Body Weight","398.2","g","398.2",398.2,"g",NA,NA,NA,NA,NA,NA,20,"2010-12-30T08:07:53",20
"PDS2014","BW","PDS2014-0017",568,"BW","Body Weight","404.4","g","404.4",404.4,"g",NA,NA,NA,NA,NA,NA,21,"2010-12-31T08:52:44",21
"PDS2014","BW","PDS2014-0017",569,"BW","Body Weight","404.1","g","404.1",404.1,"g",NA,NA,NA,NA,NA,NA,22,"2011-01-01T06:45:44",22
"PDS2014","BW","PDS2014-0017",570,"BW","Body Weight","406.6","g","406.6",406.6,"g",NA,NA,NA,NA,NA,NA,23,"2011-01-02T08:17:08",23
"PDS2014","BW","PDS2014-0017",571,"BW","Body Weight","412.1","g","412.1",412.1,"g",NA,NA,NA,NA,NA,NA,24,"2011-01-03T08:36:09",24
"PDS2014","BW","PDS2014-0017",572,"BW","Body Weight","413.4","g","413.4",413.4,"g",NA,NA,NA,NA,NA,NA,25,"2011-01-04T08:28:37",25
"PDS2014","BW","PDS2014-0017",573,"BW","Body Weight","412.8","g","412.8",412.8,"g",NA,NA,NA,NA,NA,NA,26,"2011-01-05T08:20:09",26
"PDS2014","BW","PDS2014-0017",574,"BW","Body Weight","415.6","g","415.6",415.6,"g",NA,NA,NA,NA,NA,NA,27,"2011-01-06T08:56:02",27
"PDS2014","BW","PDS2014-0017",575,"BW","Body Weight","418.8","g","418.8",418.8,"g",NA,NA,NA,NA,NA,NA,28,"2011-01-07T07:26:35",28
"PDS2014","BW","PDS2014-0017",576,"BW","Body Weight","416.7","g","416.7",416.7,"g",NA,NA,NA,NA,NA,NA,29,"2011-01-08T07:31:58",29
"PDS2014","BW","PDS2014-0017",577,"BW","Body Weight","420.7","g","420.7",420.7,"g",NA,NA,NA,NA,NA,NA,30,"2011-01-09T13:47:27",30
"PDS2014","BW","PDS2014-0018",578,"BW","Body Weight","287.4","g","287.4",287.4,"g",NA,NA,NA,NA,NA,NA,-4,"2010-12-07T10:35:20",-4
"PDS2014","BW","PDS2014-0018",579,"BW","Body Weight","325","g","325",325,"g",NA,NA,"Y",NA,NA,NA,1,"2010-12-11T08:24:52",1
"PDS2014","BW","PDS2014-0018",580,"BW","Body Weight","319.9","g","319.9",319.9,"g",NA,NA,NA,NA,NA,NA,2,"2010-12-12T10:37:00",2
"PDS2014","BW","PDS2014-0018",581,"BW","Body Weight","326.4","g","326.4",326.4,"g",NA,NA,NA,NA,NA,NA,3,"2010-12-13T11:12:14",3
"PDS2014","BW","PDS2014-0018",582,"BW","Body Weight","337","g","337",337,"g",NA,NA,NA,NA,NA,NA,4,"2010-12-14T09:55:07",4
"PDS2014","BW","PDS2014-0018",583,"BW","Body Weight","342.3","g","342.3",342.3,"g",NA,NA,NA,NA,NA,NA,5,"2010-12-15T08:35:44",5
"PDS2014","BW","PDS2014-0018",584,"BW","Body Weight","348.8","g","348.8",348.8,"g",NA,NA,NA,NA,NA,NA,6,"2010-12-16T08:57:26",6
"PDS2014","BW","PDS2014-0018",585,"BW","Body Weight","353.1","g","353.1",353.1,"g",NA,NA,NA,NA,NA,NA,7,"2010-12-17T08:05:34",7
"PDS2014","BW","PDS2014-0018",586,"BW","Body Weight","358.3","g","358.3",358.3,"g",NA,NA,NA,NA,NA,NA,8,"2010-12-18T08:13:32",8
"PDS2014","BW","PDS2014-0018",587,"BW","Body Weight","357","g","357",357,"g",NA,NA,NA,NA,NA,NA,9,"2010-12-19T11:42:56",9
"PDS2014","BW","PDS2014-0018",588,"BW","Body Weight","366.6","g","366.6",366.6,"g",NA,NA,NA,NA,NA,NA,10,"2010-12-20T10:59:07",10
"PDS2014","BW","PDS2014-0018",589,"BW","Body Weight","378.2","g","378.2",378.2,"g",NA,NA,NA,NA,NA,NA,11,"2010-12-21T07:29:07",11
"PDS2014","BW","PDS2014-0018",590,"BW","Body Weight","379.4","g","379.4",379.4,"g",NA,NA,NA,NA,NA,NA,12,"2010-12-22T08:08:21",12
"PDS2014","BW","PDS2014-0018",591,"BW","Body Weight","391.2","g","391.2",391.2,"g",NA,NA,NA,NA,NA,NA,13,"2010-12-23T07:28:45",13
"PDS2014","BW","PDS2014-0018",592,"BW","Body Weight","392.2","g","392.2",392.2,"g",NA,NA,NA,NA,NA,NA,14,"2010-12-24T07:58:11",14
"PDS2014","BW","PDS2014-0018",593,"BW","Body Weight","397.7","g","397.7",397.7,"g",NA,NA,NA,NA,NA,NA,15,"2010-12-25T07:41:43",15
"PDS2014","BW","PDS2014-0018",594,"BW","Body Weight","398.2","g","398.2",398.2,"g",NA,NA,NA,NA,NA,NA,16,"2010-12-26T07:13:03",16
"PDS2014","BW","PDS2014-0018",595,"BW","Body Weight","400.3","g","400.3",400.3,"g",NA,NA,NA,NA,NA,NA,17,"2010-12-27T09:58:39",17
"PDS2014","BW","PDS2014-0018",596,"BW","Body Weight","405.8","g","405.8",405.8,"g",NA,NA,NA,NA,NA,NA,18,"2010-12-28T07:56:15",18
"PDS2014","BW","PDS2014-0018",597,"BW","Body Weight","408.3","g","408.3",408.3,"g",NA,NA,NA,NA,NA,NA,19,"2010-12-29T09:33:55",19
"PDS2014","BW","PDS2014-0018",598,"BW","Body Weight","418.3","g","418.3",418.3,"g",NA,NA,NA,NA,NA,NA,20,"2010-12-30T08:07:32",20
"PDS2014","BW","PDS2014-0018",599,"BW","Body Weight","422.9","g","422.9",422.9,"g",NA,NA,NA,NA,NA,NA,21,"2010-12-31T08:52:26",21
"PDS2014","BW","PDS2014-0018",600,"BW","Body Weight","424.5","g","424.5",424.5,"g",NA,NA,NA,NA,NA,NA,22,"2011-01-01T06:46:04",22
"PDS2014","BW","PDS2014-0018",601,"BW","Body Weight","429.5","g","429.5",429.5,"g",NA,NA,NA,NA,NA,NA,23,"2011-01-02T08:17:27",23
"PDS2014","BW","PDS2014-0018",602,"BW","Body Weight","431.6","g","431.6",431.6,"g",NA,NA,NA,NA,NA,NA,24,"2011-01-03T08:35:36",24
"PDS2014","BW","PDS2014-0018",603,"BW","Body Weight","433.8","g","433.8",433.8,"g",NA,NA,NA,NA,NA,NA,25,"2011-01-04T08:29:08",25
"PDS2014","BW","PDS2014-0018",604,"BW","Body Weight","438","g","438",438,"g",NA,NA,NA,NA,NA,NA,26,"2011-01-05T08:19:48",26
"PDS2014","BW","PDS2014-0018",605,"BW","Body Weight","439.4","g","439.4",439.4,"g",NA,NA,NA,NA,NA,NA,27,"2011-01-06T08:55:28",27
"PDS2014","BW","PDS2014-0018",606,"BW","Body Weight","444.3","g","444.3",444.3,"g",NA,NA,NA,NA,NA,NA,28,"2011-01-07T07:26:13",28
"PDS2014","BW","PDS2014-0018",607,"BW","Body Weight","446.4","g","446.4",446.4,"g",NA,NA,NA,NA,NA,NA,29,"2011-01-08T07:34:04",29
"PDS2014","BW","PDS2014-0018",608,"BW","Body Weight","446.4","g","446.4",446.4,"g",NA,NA,NA,NA,NA,NA,30,"2011-01-09T13:48:11",30
"PDS2014","BW","PDS2014-0021",609,"BW","Body Weight","295.4","g","295.4",295.4,"g",NA,NA,NA,NA,NA,NA,-4,"2010-12-07T10:40:38",-4
"PDS2014","BW","PDS2014-0021",610,"BW","Body Weight","334.1","g","334.1",334.1,"g",NA,NA,"Y",NA,NA,NA,1,"2010-12-11T10:02:36",1
"PDS2014","BW","PDS2014-0021",611,"BW","Body Weight","323.6","g","323.6",323.6,"g",NA,NA,NA,NA,NA,NA,2,"2010-12-12T11:18:06",2
"PDS2014","BW","PDS2014-0021",612,"BW","Body Weight","323.9","g","323.9",323.9,"g",NA,NA,NA,NA,NA,NA,3,"2010-12-13T12:26:33",3
"PDS2014","BW","PDS2014-0021",613,"BW","Body Weight","330.1","g","330.1",330.1,"g",NA,NA,NA,NA,NA,NA,4,"2010-12-14T10:41:50",4
"PDS2014","BW","PDS2014-0021",614,"BW","Body Weight","337.9","g","337.9",337.9,"g",NA,NA,NA,NA,NA,NA,5,"2010-12-15T09:49:10",5
"PDS2014","BW","PDS2014-0021",615,"BW","Body Weight","346.2","g","346.2",346.2,"g",NA,NA,NA,NA,NA,NA,6,"2010-12-16T09:06:35",6
"PDS2014","BW","PDS2014-0021",616,"BW","Body Weight","349.5","g","349.5",349.5,"g",NA,NA,NA,NA,NA,NA,7,"2010-12-17T08:22:30",7
"PDS2014","BW","PDS2014-0021",617,"BW","Body Weight","364.7","g","364.7",364.7,"g",NA,NA,NA,NA,NA,NA,8,"2010-12-18T08:32:37",8
"PDS2014","BW","PDS2014-0021",618,"BW","Body Weight","355.2","g","355.2",355.2,"g",NA,NA,NA,NA,NA,NA,9,"2010-12-19T13:09:27",9
"PDS2014","BW","PDS2014-0021",619,"BW","Body Weight","369.3","g","369.3",369.3,"g",NA,NA,NA,NA,NA,NA,10,"2010-12-20T11:17:11",10
"PDS2014","BW","PDS2014-0021",620,"BW","Body Weight","380.3","g","380.3",380.3,"g",NA,NA,NA,NA,NA,NA,11,"2010-12-21T07:48:41",11
"PDS2014","BW","PDS2014-0021",621,"BW","Body Weight","374","g","374",374,"g",NA,NA,NA,NA,NA,NA,12,"2010-12-22T08:23:21",12
"PDS2014","BW","PDS2014-0021",622,"BW","Body Weight","386.1","g","386.1",386.1,"g",NA,NA,NA,NA,NA,NA,13,"2010-12-23T07:41:28",13
"PDS2014","BW","PDS2014-0021",623,"BW","Body Weight","392.5","g","392.5",392.5,"g",NA,NA,NA,NA,NA,NA,14,"2010-12-24T08:12:06",14
"PDS2014","BW","PDS2014-0021",624,"BW","Body Weight","402.6","g","402.6",402.6,"g",NA,NA,NA,NA,NA,NA,15,"2010-12-25T08:04:08",15
"PDS2014","BW","PDS2014-0021",625,"BW","Body Weight","406.9","g","406.9",406.9,"g",NA,NA,NA,NA,NA,NA,16,"2010-12-26T07:26:52",16
"PDS2014","BW","PDS2014-0021",626,"BW","Body Weight","409.3","g","409.3",409.3,"g",NA,NA,NA,NA,NA,NA,17,"2010-12-27T10:10:08",17
"PDS2014","BW","PDS2014-0021",627,"BW","Body Weight","409.1","g","409.1",409.1,"g",NA,NA,NA,NA,NA,NA,18,"2010-12-28T08:10:55",18
"PDS2014","BW","PDS2014-0021",628,"BW","Body Weight","419.1","g","419.1",419.1,"g",NA,NA,NA,NA,NA,NA,19,"2010-12-29T09:48:44",19
"PDS2014","BW","PDS2014-0021",629,"BW","Body Weight","420.3","g","420.3",420.3,"g",NA,NA,NA,NA,NA,NA,20,"2010-12-30T09:07:11",20
"PDS2014","BW","PDS2014-0021",630,"BW","Body Weight","425.3","g","425.3",425.3,"g",NA,NA,NA,NA,NA,NA,21,"2010-12-31T09:03:35",21
"PDS2014","BW","PDS2014-0021",631,"BW","Body Weight","433.8","g","433.8",433.8,"g",NA,NA,NA,NA,NA,NA,22,"2011-01-01T06:59:50",22
"PDS2014","BW","PDS2014-0021",632,"BW","Body Weight","443.5","g","443.5",443.5,"g",NA,NA,NA,NA,NA,NA,23,"2011-01-02T08:38:20",23
"PDS2014","BW","PDS2014-0021",633,"BW","Body Weight","436","g","436",436,"g",NA,NA,NA,NA,NA,NA,24,"2011-01-03T08:46:48",24
"PDS2014","BW","PDS2014-0021",634,"BW","Body Weight","438.3","g","438.3",438.3,"g",NA,NA,NA,NA,NA,NA,25,"2011-01-04T08:42:52",25
"PDS2014","BW","PDS2014-0021",635,"BW","Body Weight","440.8","g","440.8",440.8,"g",NA,NA,NA,NA,NA,NA,26,"2011-01-05T09:22:25",26
"PDS2014","BW","PDS2014-0021",636,"BW","Body Weight","443","g","443",443,"g",NA,NA,NA,NA,NA,NA,27,"2011-01-06T09:14:09",27
"PDS2014","BW","PDS2014-0021",637,"BW","Body Weight","445.6","g","445.6",445.6,"g",NA,NA,NA,NA,NA,NA,28,"2011-01-07T08:13:06",28
"PDS2014","BW","PDS2014-0021",638,"BW","Body Weight","448.1","g","448.1",448.1,"g",NA,NA,NA,NA,NA,NA,29,"2011-01-08T08:28:12",29
"PDS2014","BW","PDS2014-0021",639,"BW","Body Weight","417.9","g","417.9",417.9,"g",NA,NA,NA,NA,NA,NA,30,"2011-01-09T08:07:37",30
"PDS2014","BW","PDS2014-0021",640,"TERMBW","Terminal Body Weight","417.9","g","417.9",417.9,"g",NA,NA,NA,NA,NA,NA,30,"2011-01-09T10:00:19",30
"PDS2014","BW","PDS2014-0022",641,"BW","Body Weight","281.1","g","281.1",281.1,"g",NA,NA,NA,NA,NA,NA,-4,"2010-12-07T10:37:30",-4
"PDS2014","BW","PDS2014-0022",642,"BW","Body Weight","309.6","g","309.6",309.6,"g",NA,NA,"Y",NA,NA,NA,1,"2010-12-11T10:03:06",1
"PDS2014","BW","PDS2014-0022",643,"BW","Body Weight","298","g","298",298,"g",NA,NA,NA,NA,NA,NA,2,"2010-12-12T11:18:58",2
"PDS2014","BW","PDS2014-0022",644,"BW","Body Weight","301.9","g","301.9",301.9,"g",NA,NA,NA,NA,NA,NA,3,"2010-12-13T12:26:17",3
"PDS2014","BW","PDS2014-0022",645,"BW","Body Weight","305.3","g","305.3",305.3,"g",NA,NA,NA,NA,NA,NA,4,"2010-12-14T10:39:08",4
"PDS2014","BW","PDS2014-0022",646,"BW","Body Weight","306","g","306",306,"g",NA,NA,NA,NA,NA,NA,5,"2010-12-15T09:48:31",5
"PDS2014","BW","PDS2014-0022",647,"BW","Body Weight","309.7","g","309.7",309.7,"g",NA,NA,NA,NA,NA,NA,6,"2010-12-16T09:06:04",6
"PDS2014","BW","PDS2014-0022",648,"BW","Body Weight","310.4","g","310.4",310.4,"g",NA,NA,NA,NA,NA,NA,7,"2010-12-17T08:21:46",7
"PDS2014","BW","PDS2014-0022",649,"BW","Body Weight","310.9","g","310.9",310.9,"g",NA,NA,NA,NA,NA,NA,8,"2010-12-18T08:33:17",8
"PDS2014","BW","PDS2014-0022",650,"BW","Body Weight","313.2","g","313.2",313.2,"g",NA,NA,NA,NA,NA,NA,9,"2010-12-19T13:10:08",9
"PDS2014","BW","PDS2014-0022",651,"BW","Body Weight","314.7","g","314.7",314.7,"g",NA,NA,NA,NA,NA,NA,10,"2010-12-20T11:16:32",10
"PDS2014","BW","PDS2014-0022",652,"BW","Body Weight","322.3","g","322.3",322.3,"g",NA,NA,NA,NA,NA,NA,11,"2010-12-21T07:47:01",11
"PDS2014","BW","PDS2014-0022",653,"BW","Body Weight","318.5","g","318.5",318.5,"g",NA,NA,NA,NA,NA,NA,12,"2010-12-22T08:22:48",12
"PDS2014","BW","PDS2014-0022",654,"BW","Body Weight","325.8","g","325.8",325.8,"g",NA,NA,NA,NA,NA,NA,13,"2010-12-23T07:41:10",13
"PDS2014","BW","PDS2014-0022",655,"BW","Body Weight","325.2","g","325.2",325.2,"g",NA,NA,NA,NA,NA,NA,14,"2010-12-24T08:11:24",14
"PDS2014","BW","PDS2014-0022",656,"BW","Body Weight","326.4","g","326.4",326.4,"g",NA,NA,NA,NA,NA,NA,15,"2010-12-25T08:03:27",15
"PDS2014","BW","PDS2014-0022",657,"BW","Body Weight","331.9","g","331.9",331.9,"g",NA,NA,NA,NA,NA,NA,16,"2010-12-26T07:27:12",16
"PDS2014","BW","PDS2014-0022",658,"BW","Body Weight","335.6","g","335.6",335.6,"g",NA,NA,NA,NA,NA,NA,17,"2010-12-27T10:10:45",17
"PDS2014","BW","PDS2014-0022",659,"BW","Body Weight","331.9","g","331.9",331.9,"g",NA,NA,NA,NA,NA,NA,18,"2010-12-28T08:10:35",18
"PDS2014","BW","PDS2014-0022",660,"BW","Body Weight","335.1","g","335.1",335.1,"g",NA,NA,NA,NA,NA,NA,19,"2010-12-29T09:49:28",19
"PDS2014","BW","PDS2014-0022",661,"BW","Body Weight","336","g","336",336,"g",NA,NA,NA,NA,NA,NA,20,"2010-12-30T09:05:45",20
"PDS2014","BW","PDS2014-0022",662,"BW","Body Weight","340","g","340",340,"g",NA,NA,NA,NA,NA,NA,21,"2010-12-31T09:04:11",21
"PDS2014","BW","PDS2014-0022",663,"BW","Body Weight","346","g","346",346,"g",NA,NA,NA,NA,NA,NA,22,"2011-01-01T07:01:39",22
"PDS2014","BW","PDS2014-0022",664,"BW","Body Weight","351.9","g","351.9",351.9,"g",NA,NA,NA,NA,NA,NA,23,"2011-01-02T08:38:00",23
"PDS2014","BW","PDS2014-0022",665,"BW","Body Weight","348","g","348",348,"g",NA,NA,NA,NA,NA,NA,24,"2011-01-03T08:46:20",24
"PDS2014","BW","PDS2014-0022",666,"BW","Body Weight","348","g","348",348,"g",NA,NA,NA,NA,NA,NA,25,"2011-01-04T08:42:22",25
"PDS2014","BW","PDS2014-0022",667,"BW","Body Weight","349.9","g","349.9",349.9,"g",NA,NA,NA,NA,NA,NA,26,"2011-01-05T09:21:07",26
"PDS2014","BW","PDS2014-0022",668,"BW","Body Weight","352.9","g","352.9",352.9,"g",NA,NA,NA,NA,NA,NA,27,"2011-01-06T09:13:51",27
"PDS2014","BW","PDS2014-0022",669,"BW","Body Weight","356.7","g","356.7",356.7,"g",NA,NA,NA,NA,NA,NA,28,"2011-01-07T08:13:30",28
"PDS2014","BW","PDS2014-0022",670,"BW","Body Weight","358.5","g","358.5",358.5,"g",NA,NA,NA,NA,NA,NA,29,"2011-01-08T08:27:29",29
"PDS2014","BW","PDS2014-0022",671,"BW","Body Weight","336","g","336",336,"g",NA,NA,NA,NA,NA,NA,30,"2011-01-09T08:08:42",30
"PDS2014","BW","PDS2014-0022",672,"TERMBW","Terminal Body Weight","336","g","336",336,"g",NA,NA,NA,NA,NA,NA,30,"2011-01-09T11:38:53",30
"PDS2014","BW","PDS2014-0023",673,"BW","Body Weight","290.6","g","290.6",290.6,"g",NA,NA,NA,NA,NA,NA,-4,"2010-12-07T10:39:41",-4
"PDS2014","BW","PDS2014-0023",674,"BW","Body Weight","336.5","g","336.5",336.5,"g",NA,NA,"Y",NA,NA,NA,1,"2010-12-11T10:03:30",1
"PDS2014","BW","PDS2014-0023",675,"BW","Body Weight","328.2","g","328.2",328.2,"g",NA,NA,NA,NA,NA,NA,2,"2010-12-12T11:17:36",2
"PDS2014","BW","PDS2014-0023",676,"BW","Body Weight","337.8","g","337.8",337.8,"g",NA,NA,NA,NA,NA,NA,3,"2010-12-13T12:25:59",3
"PDS2014","BW","PDS2014-0023",677,"BW","Body Weight","350.9","g","350.9",350.9,"g",NA,NA,NA,NA,NA,NA,4,"2010-12-14T10:42:39",4
"PDS2014","BW","PDS2014-0023",678,"BW","Body Weight","355","g","355",355,"g",NA,NA,NA,NA,NA,NA,5,"2010-12-15T09:48:16",5
"PDS2014","BW","PDS2014-0023",679,"BW","Body Weight","367.7","g","367.7",367.7,"g",NA,NA,NA,NA,NA,NA,6,"2010-12-16T09:06:48",6
"PDS2014","BW","PDS2014-0023",680,"BW","Body Weight","372.4","g","372.4",372.4,"g",NA,NA,NA,NA,NA,NA,7,"2010-12-17T08:22:09",7
"PDS2014","BW","PDS2014-0023",681,"BW","Body Weight","376.8","g","376.8",376.8,"g",NA,NA,NA,NA,NA,NA,8,"2010-12-18T08:32:06",8
"PDS2014","BW","PDS2014-0023",682,"BW","Body Weight","383.1","g","383.1",383.1,"g",NA,NA,NA,NA,NA,NA,9,"2010-12-19T13:09:09",9
"PDS2014","BW","PDS2014-0023",683,"BW","Body Weight","387.3","g","387.3",387.3,"g",NA,NA,NA,NA,NA,NA,10,"2010-12-20T11:15:51",10
"PDS2014","BW","PDS2014-0023",684,"BW","Body Weight","401.9","g","401.9",401.9,"g",NA,NA,NA,NA,NA,NA,11,"2010-12-21T07:48:20",11
"PDS2014","BW","PDS2014-0023",685,"BW","Body Weight","395.5","g","395.5",395.5,"g",NA,NA,NA,NA,NA,NA,12,"2010-12-22T08:22:12",12
"PDS2014","BW","PDS2014-0023",686,"BW","Body Weight","404","g","404",404,"g",NA,NA,NA,NA,NA,NA,13,"2010-12-23T07:40:53",13
"PDS2014","BW","PDS2014-0023",687,"BW","Body Weight","409","g","409",409,"g",NA,NA,NA,NA,NA,NA,14,"2010-12-24T08:10:48",14
"PDS2014","BW","PDS2014-0023",688,"BW","Body Weight","325.7","g","325.7",325.7,"g",NA,NA,NA,NA,NA,NA,15,"2010-12-25T08:01:13",15
"PDS2014","BW","PDS2014-0023",689,"BW","Body Weight","420.2","g","420.2",420.2,"g",NA,NA,NA,NA,NA,NA,16,"2010-12-26T07:28:14",16
"PDS2014","BW","PDS2014-0023",690,"BW","Body Weight","424.9","g","424.9",424.9,"g",NA,NA,NA,NA,NA,NA,17,"2010-12-27T10:10:27",17
"PDS2014","BW","PDS2014-0023",691,"BW","Body Weight","417.8","g","417.8",417.8,"g",NA,NA,NA,NA,NA,NA,18,"2010-12-28T08:10:19",18
"PDS2014","BW","PDS2014-0023",692,"BW","Body Weight","424.9","g","424.9",424.9,"g",NA,NA,NA,NA,NA,NA,19,"2010-12-29T09:49:08",19
"PDS2014","BW","PDS2014-0023",693,"BW","Body Weight","428","g","428",428,"g",NA,NA,NA,NA,NA,NA,20,"2010-12-30T09:06:42",20
"PDS2014","BW","PDS2014-0023",694,"BW","Body Weight","437.2","g","437.2",437.2,"g",NA,NA,NA,NA,NA,NA,21,"2010-12-31T09:03:53",21
"PDS2014","BW","PDS2014-0023",695,"BW","Body Weight","436.3","g","436.3",436.3,"g",NA,NA,NA,NA,NA,NA,22,"2011-01-01T07:01:17",22
"PDS2014","BW","PDS2014-0023",696,"BW","Body Weight","439.1","g","439.1",439.1,"g",NA,NA,NA,NA,NA,NA,23,"2011-01-02T08:36:59",23
"PDS2014","BW","PDS2014-0023",697,"BW","Body Weight","440.6","g","440.6",440.6,"g",NA,NA,NA,NA,NA,NA,24,"2011-01-03T08:46:33",24
"PDS2014","BW","PDS2014-0023",698,"BW","Body Weight","442.3","g","442.3",442.3,"g",NA,NA,NA,NA,NA,NA,25,"2011-01-04T08:41:29",25
"PDS2014","BW","PDS2014-0023",699,"BW","Body Weight","445.8","g","445.8",445.8,"g",NA,NA,NA,NA,NA,NA,26,"2011-01-05T09:21:35",26
"PDS2014","BW","PDS2014-0023",700,"BW","Body Weight","449.9","g","449.9",449.9,"g",NA,NA,NA,NA,NA,NA,27,"2011-01-06T09:13:26",27
"PDS2014","BW","PDS2014-0023",701,"BW","Body Weight","447","g","447",447,"g",NA,NA,NA,NA,NA,NA,28,"2011-01-07T08:13:52",28
"PDS2014","BW","PDS2014-0023",702,"BW","Body Weight","453.9","g","453.9",453.9,"g",NA,NA,NA,NA,NA,NA,29,"2011-01-08T08:27:07",29
"PDS2014","BW","PDS2014-0023",703,"BW","Body Weight","419.7","g","419.7",419.7,"g",NA,NA,NA,NA,NA,NA,30,"2011-01-09T08:11:30",30
"PDS2014","BW","PDS2014-0023",704,"TERMBW","Terminal Body Weight","419.7","g","419.7",419.7,"g",NA,NA,NA,NA,NA,NA,30,"2011-01-09T14:17:10",30
"PDS2014","BW","PDS2014-0024",705,"BW","Body Weight","292.5","g","292.5",292.5,"g",NA,NA,NA,NA,NA,NA,-4,"2010-12-07T10:33:43",-4
"PDS2014","BW","PDS2014-0024",706,"BW","Body Weight","320.2","g","320.2",320.2,"g",NA,NA,"Y",NA,NA,NA,1,"2010-12-11T09:57:02",1
"PDS2014","BW","PDS2014-0024",707,"BW","Body Weight","318.8","g","318.8",318.8,"g",NA,NA,NA,NA,NA,NA,2,"2010-12-12T11:19:20",2
"PDS2014","BW","PDS2014-0024",708,"BW","Body Weight","321.4","g","321.4",321.4,"g",NA,NA,NA,NA,NA,NA,3,"2010-12-13T12:25:05",3
"PDS2014","BW","PDS2014-0024",709,"BW","Body Weight","323.7","g","323.7",323.7,"g",NA,NA,NA,NA,NA,NA,4,"2010-12-14T10:41:28",4
"PDS2014","BW","PDS2014-0024",710,"BW","Body Weight","326","g","326",326,"g",NA,NA,NA,NA,NA,NA,5,"2010-12-15T09:48:53",5
"PDS2014","BW","PDS2014-0024",711,"BW","Body Weight","330.3","g","330.3",330.3,"g",NA,NA,NA,NA,NA,NA,6,"2010-12-16T09:05:50",6
"PDS2014","BW","PDS2014-0024",712,"BW","Body Weight","335.5","g","335.5",335.5,"g",NA,NA,NA,NA,NA,NA,7,"2010-12-17T08:21:03",7
"PDS2014","BW","PDS2014-0024",713,"BW","Body Weight","337","g","337",337,"g",NA,NA,NA,NA,NA,NA,8,"2010-12-18T08:33:42",8
"PDS2014","BW","PDS2014-0024",714,"BW","Body Weight","335.3","g","335.3",335.3,"g",NA,NA,NA,NA,NA,NA,9,"2010-12-19T13:08:45",9
"PDS2014","BW","PDS2014-0024",715,"BW","Body Weight","344","g","344",344,"g",NA,NA,NA,NA,NA,NA,10,"2010-12-20T11:16:51",10
"PDS2014","BW","PDS2014-0024",716,"BW","Body Weight","347","g","347",347,"g",NA,NA,NA,NA,NA,NA,11,"2010-12-21T07:47:52",11
"PDS2014","BW","PDS2014-0024",717,"BW","Body Weight","345.1","g","345.1",345.1,"g",NA,NA,NA,NA,NA,NA,12,"2010-12-22T08:23:04",12
"PDS2014","BW","PDS2014-0024",718,"BW","Body Weight","350","g","350",350,"g",NA,NA,NA,NA,NA,NA,13,"2010-12-23T07:40:27",13
"PDS2014","BW","PDS2014-0024",719,"BW","Body Weight","354.3","g","354.3",354.3,"g",NA,NA,NA,NA,NA,NA,14,"2010-12-24T08:11:41",14
"PDS2014","BW","PDS2014-0024",720,"BW","Body Weight","357.4","g","357.4",357.4,"g",NA,NA,NA,NA,NA,NA,15,"2010-12-25T08:04:25",15
"PDS2014","BW","PDS2014-0024",721,"BW","Body Weight","364.4","g","364.4",364.4,"g",NA,NA,NA,NA,NA,NA,16,"2010-12-26T07:28:38",16
"PDS2014","BW","PDS2014-0024",722,"BW","Body Weight","370.4","g","370.4",370.4,"g",NA,NA,NA,NA,NA,NA,17,"2010-12-27T10:11:03",17
"PDS2014","BW","PDS2014-0024",723,"BW","Body Weight","370.5","g","370.5",370.5,"g",NA,NA,NA,NA,NA,NA,18,"2010-12-28T08:11:12",18
"PDS2014","BW","PDS2014-0024",724,"BW","Body Weight","374.1","g","374.1",374.1,"g",NA,NA,NA,NA,NA,NA,19,"2010-12-29T09:49:54",19
"PDS2014","BW","PDS2014-0024",725,"BW","Body Weight","380","g","380",380,"g",NA,NA,NA,NA,NA,NA,20,"2010-12-30T09:07:31",20
"PDS2014","BW","PDS2014-0024",726,"BW","Body Weight","383","g","383",383,"g",NA,NA,NA,NA,NA,NA,21,"2010-12-31T09:04:28",21
"PDS2014","BW","PDS2014-0024",727,"BW","Body Weight","390.4","g","390.4",390.4,"g",NA,NA,NA,NA,NA,NA,22,"2011-01-01T07:02:01",22
"PDS2014","BW","PDS2014-0024",728,"BW","Body Weight","395","g","395",395,"g",NA,NA,NA,NA,NA,NA,23,"2011-01-02T08:37:39",23
"PDS2014","BW","PDS2014-0024",729,"BW","Body Weight","395.3","g","395.3",395.3,"g",NA,NA,NA,NA,NA,NA,24,"2011-01-03T08:46:07",24
"PDS2014","BW","PDS2014-0024",730,"BW","Body Weight","399.6","g","399.6",399.6,"g",NA,NA,NA,NA,NA,NA,25,"2011-01-04T08:43:17",25
"PDS2014","BW","PDS2014-0024",731,"BW","Body Weight","400.9","g","400.9",400.9,"g",NA,NA,NA,NA,NA,NA,26,"2011-01-05T09:22:04",26
"PDS2014","BW","PDS2014-0024",732,"BW","Body Weight","405.9","g","405.9",405.9,"g",NA,NA,NA,NA,NA,NA,27,"2011-01-06T09:12:56",27
"PDS2014","BW","PDS2014-0024",733,"BW","Body Weight","408.8","g","408.8",408.8,"g",NA,NA,NA,NA,NA,NA,28,"2011-01-07T08:14:15",28
"PDS2014","BW","PDS2014-0024",734,"BW","Body Weight","409.2","g","409.2",409.2,"g",NA,NA,NA,NA,NA,NA,29,"2011-01-08T08:26:01",29
"PDS2014","BW","PDS2014-0024",735,"BW","Body Weight","370.5","g","370.5",370.5,"g",NA,NA,NA,NA,NA,NA,30,"2011-01-09T08:12:29",30
"PDS2014","BW","PDS2014-0024",736,"TERMBW","Terminal Body Weight","370.5","g","370.5",370.5,"g",NA,NA,NA,NA,NA,NA,30,"2011-01-09T11:13:26",30
"PDS2014","BW","PDS2014-0025",737,"BW","Body Weight","282.9","g","282.9",282.9,"g",NA,NA,NA,NA,NA,NA,-4,"2010-12-07T10:41:04",-4
"PDS2014","BW","PDS2014-0025",738,"BW","Body Weight","321","g","321",321,"g",NA,NA,"Y",NA,NA,NA,1,"2010-12-11T10:03:57",1
"PDS2014","BW","PDS2014-0025",739,"BW","Body Weight","318.5","g","318.5",318.5,"g",NA,NA,NA,NA,NA,NA,2,"2010-12-12T11:18:37",2
"PDS2014","BW","PDS2014-0025",740,"BW","Body Weight","326.6","g","326.6",326.6,"g",NA,NA,NA,NA,NA,NA,3,"2010-12-13T12:23:52",3
"PDS2014","BW","PDS2014-0025",741,"BW","Body Weight","328","g","328",328,"g",NA,NA,NA,NA,NA,NA,4,"2010-12-14T10:42:18",4
"PDS2014","BW","PDS2014-0025",742,"BW","Body Weight","334.6","g","334.6",334.6,"g",NA,NA,NA,NA,NA,NA,5,"2010-12-15T09:47:58",5
"PDS2014","BW","PDS2014-0025",743,"BW","Body Weight","340.8","g","340.8",340.8,"g",NA,NA,NA,NA,NA,NA,6,"2010-12-16T09:06:20",6
"PDS2014","BW","PDS2014-0025",744,"BW","Body Weight","351.5","g","351.5",351.5,"g",NA,NA,NA,NA,NA,NA,7,"2010-12-17T08:21:25",7
"PDS2014","BW","PDS2014-0025",745,"BW","Body Weight","354.5","g","354.5",354.5,"g",NA,NA,NA,NA,NA,NA,8,"2010-12-18T08:31:14",8
"PDS2014","BW","PDS2014-0025",746,"BW","Body Weight","359.6","g","359.6",359.6,"g",NA,NA,NA,NA,NA,NA,9,"2010-12-19T13:09:47",9
"PDS2014","BW","PDS2014-0025",747,"BW","Body Weight","368.9","g","368.9",368.9,"g",NA,NA,NA,NA,NA,NA,10,"2010-12-20T11:16:13",10
"PDS2014","BW","PDS2014-0025",748,"BW","Body Weight","374.9","g","374.9",374.9,"g",NA,NA,NA,NA,NA,NA,11,"2010-12-21T07:47:31",11
"PDS2014","BW","PDS2014-0025",749,"BW","Body Weight","376.7","g","376.7",376.7,"g",NA,NA,NA,NA,NA,NA,12,"2010-12-22T08:22:31",12
"PDS2014","BW","PDS2014-0025",750,"BW","Body Weight","378.7","g","378.7",378.7,"g",NA,NA,NA,NA,NA,NA,13,"2010-12-23T07:40:09",13
"PDS2014","BW","PDS2014-0025",751,"BW","Body Weight","388.9","g","388.9",388.9,"g",NA,NA,NA,NA,NA,NA,14,"2010-12-24T08:11:04",14
"PDS2014","BW","PDS2014-0025",752,"BW","Body Weight","383.6","g","383.6",383.6,"g",NA,NA,NA,NA,NA,NA,15,"2010-12-25T08:03:42",15
"PDS2014","BW","PDS2014-0025",753,"BW","Body Weight","388","g","388",388,"g",NA,NA,NA,NA,NA,NA,16,"2010-12-26T07:27:37",16
"PDS2014","BW","PDS2014-0025",754,"BW","Body Weight","393.3","g","393.3",393.3,"g",NA,NA,NA,NA,NA,NA,17,"2010-12-27T10:09:44",17
"PDS2014","BW","PDS2014-0025",755,"BW","Body Weight","388.9","g","388.9",388.9,"g",NA,NA,NA,NA,NA,NA,18,"2010-12-28T08:09:57",18
"PDS2014","BW","PDS2014-0025",756,"BW","Body Weight","407.3","g","407.3",407.3,"g",NA,NA,NA,NA,NA,NA,19,"2010-12-29T09:48:14",19
"PDS2014","BW","PDS2014-0025",757,"BW","Body Weight","402","g","402",402,"g",NA,NA,NA,NA,NA,NA,20,"2010-12-30T09:06:16",20
"PDS2014","BW","PDS2014-0025",758,"BW","Body Weight","402.7","g","402.7",402.7,"g",NA,NA,NA,NA,NA,NA,21,"2010-12-31T09:03:15",21
"PDS2014","BW","PDS2014-0025",759,"BW","Body Weight","405.9","g","405.9",405.9,"g",NA,NA,NA,NA,NA,NA,22,"2011-01-01T07:00:51",22
"PDS2014","BW","PDS2014-0025",760,"BW","Body Weight","410.6","g","410.6",410.6,"g",NA,NA,NA,NA,NA,NA,23,"2011-01-02T08:37:18",23
"PDS2014","BW","PDS2014-0025",761,"BW","Body Weight","415","g","415",415,"g",NA,NA,NA,NA,NA,NA,24,"2011-01-03T08:45:52",24
"PDS2014","BW","PDS2014-0025",762,"BW","Body Weight","420.4","g","420.4",420.4,"g",NA,NA,NA,NA,NA,NA,25,"2011-01-04T08:41:52",25
"PDS2014","BW","PDS2014-0025",763,"BW","Body Weight","427.5","g","427.5",427.5,"g",NA,NA,NA,NA,NA,NA,26,"2011-01-05T09:22:43",26
"PDS2014","BW","PDS2014-0025",764,"BW","Body Weight","428","g","428",428,"g",NA,NA,NA,NA,NA,NA,27,"2011-01-06T09:14:42",27
"PDS2014","BW","PDS2014-0025",765,"BW","Body Weight","427.3","g","427.3",427.3,"g",NA,NA,NA,NA,NA,NA,28,"2011-01-07T08:00:46",28
"PDS2014","BW","PDS2014-0025",766,"BW","Body Weight","433.4","g","433.4",433.4,"g",NA,NA,NA,NA,NA,NA,29,"2011-01-08T08:27:47",29
"PDS2014","BW","PDS2014-0025",767,"BW","Body Weight","405.2","g","405.2",405.2,"g",NA,NA,NA,NA,NA,NA,30,"2011-01-09T08:13:22",30
"PDS2014","BW","PDS2014-0025",768,"TERMBW","Terminal Body Weight","405.2","g","405.2",405.2,"g",NA,NA,NA,NA,NA,NA,30,"2011-01-09T14:26:07",30
"PDS2014","BW","PDS2014-0026",769,"BW","Body Weight","287.7","g","287.7",287.7,"g",NA,NA,NA,NA,NA,NA,-4,"2010-12-07T10:37:57",-4
"PDS2014","BW","PDS2014-0026",770,"BW","Body Weight","327.2","g","327.2",327.2,"g",NA,NA,"Y",NA,NA,NA,1,"2010-12-11T10:04:34",1
"PDS2014","BW","PDS2014-0026",771,"BW","Body Weight","320.3","g","320.3",320.3,"g",NA,NA,NA,NA,NA,NA,2,"2010-12-12T11:19:49",2
"PDS2014","BW","PDS2014-0026",772,"BW","Body Weight","325.1","g","325.1",325.1,"g",NA,NA,NA,NA,NA,NA,3,"2010-12-13T12:27:37",3
"PDS2014","BW","PDS2014-0026",773,"BW","Body Weight","325.3","g","325.3",325.3,"g",NA,NA,NA,NA,NA,NA,4,"2010-12-14T10:44:11",4
"PDS2014","BW","PDS2014-0026",774,"BW","Body Weight","337.2","g","337.2",337.2,"g",NA,NA,NA,NA,NA,NA,5,"2010-12-15T09:49:28",5
"PDS2014","BW","PDS2014-0026",775,"BW","Body Weight","340.9","g","340.9",340.9,"g",NA,NA,NA,NA,NA,NA,6,"2010-12-16T09:07:31",6
"PDS2014","BW","PDS2014-0026",776,"BW","Body Weight","340.6","g","340.6",340.6,"g",NA,NA,NA,NA,NA,NA,7,"2010-12-17T08:24:41",7
"PDS2014","BW","PDS2014-0026",777,"BW","Body Weight","348","g","348",348,"g",NA,NA,NA,NA,NA,NA,8,"2010-12-18T08:35:51",8
"PDS2014","BW","PDS2014-0026",778,"BW","Body Weight","358.7","g","358.7",358.7,"g",NA,NA,NA,NA,NA,NA,9,"2010-12-19T13:10:32",9
"PDS2014","BW","PDS2014-0026",779,"BW","Body Weight","356.1","g","356.1",356.1,"g",NA,NA,NA,NA,NA,NA,10,"2010-12-20T11:18:35",10
"PDS2014","BW","PDS2014-0026",780,"BW","Body Weight","362.8","g","362.8",362.8,"g",NA,NA,NA,NA,NA,NA,11,"2010-12-21T07:51:05",11
"PDS2014","BW","PDS2014-0026",781,"BW","Body Weight","362.3","g","362.3",362.3,"g",NA,NA,NA,NA,NA,NA,12,"2010-12-22T08:24:21",12
"PDS2014","BW","PDS2014-0026",782,"BW","Body Weight","367.7","g","367.7",367.7,"g",NA,NA,NA,NA,NA,NA,13,"2010-12-23T07:42:39",13
"PDS2014","BW","PDS2014-0026",783,"BW","Body Weight","365.4","g","365.4",365.4,"g",NA,NA,NA,NA,NA,NA,14,"2010-12-24T08:13:32",14
"PDS2014","BW","PDS2014-0026",784,"BW","Body Weight","367.4","g","367.4",367.4,"g",NA,NA,NA,NA,NA,NA,15,"2010-12-25T08:06:58",15
"PDS2014","BW","PDS2014-0026",785,"BW","Body Weight","367.4","g","367.4",367.4,"g",NA,NA,NA,NA,NA,NA,16,"2010-12-26T07:30:18",16
"PDS2014","BW","PDS2014-0026",786,"BW","Body Weight","373.2","g","373.2",373.2,"g",NA,NA,NA,NA,NA,NA,17,"2010-12-27T10:29:50",17
"PDS2014","BW","PDS2014-0026",787,"BW","Body Weight","376","g","376",376,"g",NA,NA,NA,NA,NA,NA,18,"2010-12-28T08:12:32",18
"PDS2014","BW","PDS2014-0026",788,"BW","Body Weight","379","g","379",379,"g",NA,NA,NA,NA,NA,NA,19,"2010-12-29T09:51:06",19
"PDS2014","BW","PDS2014-0026",789,"BW","Body Weight","379.6","g","379.6",379.6,"g",NA,NA,NA,NA,NA,NA,20,"2010-12-30T09:09:17",20
"PDS2014","BW","PDS2014-0026",790,"BW","Body Weight","384.4","g","384.4",384.4,"g",NA,NA,NA,NA,NA,NA,21,"2010-12-31T09:06:02",21
"PDS2014","BW","PDS2014-0026",791,"BW","Body Weight","393","g","393",393,"g",NA,NA,NA,NA,NA,NA,22,"2011-01-01T07:04:14",22
"PDS2014","BW","PDS2014-0026",792,"BW","Body Weight","397.4","g","397.4",397.4,"g",NA,NA,NA,NA,NA,NA,23,"2011-01-02T08:39:26",23
"PDS2014","BW","PDS2014-0026",793,"BW","Body Weight","398.8","g","398.8",398.8,"g",NA,NA,NA,NA,NA,NA,24,"2011-01-03T08:48:04",24
"PDS2014","BW","PDS2014-0026",794,"BW","Body Weight","404.2","g","404.2",404.2,"g",NA,NA,NA,NA,NA,NA,25,"2011-01-04T08:45:21",25
"PDS2014","BW","PDS2014-0026",795,"BW","Body Weight","402.6","g","402.6",402.6,"g",NA,NA,NA,NA,NA,NA,26,"2011-01-05T09:24:38",26
"PDS2014","BW","PDS2014-0026",796,"BW","Body Weight","403.6","g","403.6",403.6,"g",NA,NA,NA,NA,NA,NA,27,"2011-01-06T09:16:24",27
"PDS2014","BW","PDS2014-0026",797,"BW","Body Weight","409.5","g","409.5",409.5,"g",NA,NA,NA,NA,NA,NA,28,"2011-01-07T08:15:41",28
"PDS2014","BW","PDS2014-0026",798,"BW","Body Weight","412.6","g","412.6",412.6,"g",NA,NA,NA,NA,NA,NA,29,"2011-01-08T08:30:06",29
"PDS2014","BW","PDS2014-0026",799,"BW","Body Weight","422","g","422",422,"g",NA,NA,NA,NA,NA,NA,30,"2011-01-09T11:13:21",30
"PDS2014","BW","PDS2014-0026",800,"BW","Body Weight","393.1","g","393.1",393.1,"g",NA,NA,NA,NA,NA,NA,31,"2011-01-10T08:22:04",31
"PDS2014","BW","PDS2014-0026",801,"TERMBW","Terminal Body Weight","393.1","g","393.1",393.1,"g",NA,NA,NA,NA,NA,NA,31,"2011-01-10T10:30:44",31
"PDS2014","BW","PDS2014-0027",802,"BW","Body Weight","281.3","g","281.3",281.3,"g",NA,NA,NA,NA,NA,NA,-4,"2010-12-07T10:36:50",-4
"PDS2014","BW","PDS2014-0027",803,"BW","Body Weight","313.2","g","313.2",313.2,"g",NA,NA,"Y",NA,NA,NA,1,"2010-12-11T10:05:23",1
"PDS2014","BW","PDS2014-0027",804,"BW","Body Weight","299.2","g","299.2",299.2,"g",NA,NA,NA,NA,NA,NA,2,"2010-12-12T11:20:58",2
"PDS2014","BW","PDS2014-0027",805,"BW","Body Weight","302.1","g","302.1",302.1,"g",NA,NA,NA,NA,NA,NA,3,"2010-12-13T12:27:20",3
"PDS2014","BW","PDS2014-0027",806,"BW","Body Weight","303","g","303",303,"g",NA,NA,NA,NA,NA,NA,4,"2010-12-14T10:43:09",4
"PDS2014","BW","PDS2014-0027",807,"BW","Body Weight","305.7","g","305.7",305.7,"g",NA,NA,NA,NA,NA,NA,5,"2010-12-15T09:49:43",5
"PDS2014","BW","PDS2014-0027",808,"BW","Body Weight","314.5","g","314.5",314.5,"g",NA,NA,NA,NA,NA,NA,6,"2010-12-16T09:07:18",6
"PDS2014","BW","PDS2014-0027",809,"BW","Body Weight","316.2","g","316.2",316.2,"g",NA,NA,NA,NA,NA,NA,7,"2010-12-17T08:23:58",7
"PDS2014","BW","PDS2014-0027",810,"BW","Body Weight","319.3","g","319.3",319.3,"g",NA,NA,NA,NA,NA,NA,8,"2010-12-18T08:36:14",8
"PDS2014","BW","PDS2014-0027",811,"BW","Body Weight","316.8","g","316.8",316.8,"g",NA,NA,NA,NA,NA,NA,9,"2010-12-19T13:11:16",9
"PDS2014","BW","PDS2014-0027",812,"BW","Body Weight","318.1","g","318.1",318.1,"g",NA,NA,NA,NA,NA,NA,10,"2010-12-20T11:18:15",10
"PDS2014","BW","PDS2014-0027",813,"BW","Body Weight","330.4","g","330.4",330.4,"g",NA,NA,NA,NA,NA,NA,11,"2010-12-21T07:50:43",11
"PDS2014","BW","PDS2014-0027",814,"BW","Body Weight","327","g","327",327,"g",NA,NA,NA,NA,NA,NA,12,"2010-12-22T08:24:56",12
"PDS2014","BW","PDS2014-0027",815,"BW","Body Weight","333.8","g","333.8",333.8,"g",NA,NA,NA,NA,NA,NA,13,"2010-12-23T07:42:57",13
"PDS2014","BW","PDS2014-0027",816,"BW","Body Weight","331.6","g","331.6",331.6,"g",NA,NA,NA,NA,NA,NA,14,"2010-12-24T08:13:50",14
"PDS2014","BW","PDS2014-0027",817,"BW","Body Weight","331.2","g","331.2",331.2,"g",NA,NA,NA,NA,NA,NA,15,"2010-12-25T08:07:16",15
"PDS2014","BW","PDS2014-0027",818,"BW","Body Weight","337","g","337",337,"g",NA,NA,NA,NA,NA,NA,16,"2010-12-26T07:30:39",16
"PDS2014","BW","PDS2014-0027",819,"BW","Body Weight","334.5","g","334.5",334.5,"g",NA,NA,NA,NA,NA,NA,17,"2010-12-27T10:30:45",17
"PDS2014","BW","PDS2014-0027",820,"BW","Body Weight","338.1","g","338.1",338.1,"g",NA,NA,NA,NA,NA,NA,18,"2010-12-28T08:12:48",18
"PDS2014","BW","PDS2014-0027",821,"BW","Body Weight","339.2","g","339.2",339.2,"g",NA,NA,NA,NA,NA,NA,19,"2010-12-29T09:51:29",19
"PDS2014","BW","PDS2014-0027",822,"BW","Body Weight","344.4","g","344.4",344.4,"g",NA,NA,NA,NA,NA,NA,20,"2010-12-30T09:09:37",20
"PDS2014","BW","PDS2014-0027",823,"BW","Body Weight","344.9","g","344.9",344.9,"g",NA,NA,NA,NA,NA,NA,21,"2010-12-31T09:05:46",21
"PDS2014","BW","PDS2014-0027",824,"BW","Body Weight","350.1","g","350.1",350.1,"g",NA,NA,NA,NA,NA,NA,22,"2011-01-01T07:03:53",22
"PDS2014","BW","PDS2014-0027",825,"BW","Body Weight","352.4","g","352.4",352.4,"g",NA,NA,NA,NA,NA,NA,23,"2011-01-02T08:39:45",23
"PDS2014","BW","PDS2014-0027",826,"BW","Body Weight","349.4","g","349.4",349.4,"g",NA,NA,NA,NA,NA,NA,24,"2011-01-03T08:48:17",24
"PDS2014","BW","PDS2014-0027",827,"BW","Body Weight","353","g","353",353,"g",NA,NA,NA,NA,NA,NA,25,"2011-01-04T08:44:54",25
"PDS2014","BW","PDS2014-0027",828,"BW","Body Weight","351.4","g","351.4",351.4,"g",NA,NA,NA,NA,NA,NA,26,"2011-01-05T09:24:05",26
"PDS2014","BW","PDS2014-0027",829,"BW","Body Weight","352.4","g","352.4",352.4,"g",NA,NA,NA,NA,NA,NA,27,"2011-01-06T09:16:53",27
"PDS2014","BW","PDS2014-0027",830,"BW","Body Weight","357.3","g","357.3",357.3,"g",NA,NA,NA,NA,NA,NA,28,"2011-01-07T08:16:03",28
"PDS2014","BW","PDS2014-0027",831,"BW","Body Weight","361.7","g","361.7",361.7,"g",NA,NA,NA,NA,NA,NA,29,"2011-01-08T08:29:46",29
"PDS2014","BW","PDS2014-0027",832,"BW","Body Weight","360.6","g","360.6",360.6,"g",NA,NA,NA,NA,NA,NA,30,"2011-01-09T11:13:50",30
"PDS2014","BW","PDS2014-0027",833,"BW","Body Weight","337.5","g","337.5",337.5,"g",NA,NA,NA,NA,NA,NA,31,"2011-01-10T08:23:03",31
"PDS2014","BW","PDS2014-0027",834,"TERMBW","Terminal Body Weight","337.5","g","337.5",337.5,"g",NA,NA,NA,NA,NA,NA,31,"2011-01-10T13:47:53",31
"PDS2014","BW","PDS2014-0028",835,"BW","Body Weight","275.4","g","275.4",275.4,"g",NA,NA,NA,NA,NA,NA,-4,"2010-12-07T10:33:36",-4
"PDS2014","BW","PDS2014-0028",836,"BW","Body Weight","314.3","g","314.3",314.3,"g",NA,NA,"Y",NA,NA,NA,1,"2010-12-11T10:05:59",1
"PDS2014","BW","PDS2014-0028",837,"BW","Body Weight","306.8","g","306.8",306.8,"g",NA,NA,NA,NA,NA,NA,2,"2010-12-12T11:20:38",2
"PDS2014","BW","PDS2014-0028",838,"BW","Body Weight","306.3","g","306.3",306.3,"g",NA,NA,NA,NA,NA,NA,3,"2010-12-13T12:28:13",3
"PDS2014","BW","PDS2014-0028",839,"BW","Body Weight","316.3","g","316.3",316.3,"g",NA,NA,NA,NA,NA,NA,4,"2010-12-14T10:44:31",4
"PDS2014","BW","PDS2014-0028",840,"BW","Body Weight","320.6","g","320.6",320.6,"g",NA,NA,NA,NA,NA,NA,5,"2010-12-15T09:50:15",5
"PDS2014","BW","PDS2014-0028",841,"BW","Body Weight","325.8","g","325.8",325.8,"g",NA,NA,NA,NA,NA,NA,6,"2010-12-16T09:07:05",6
"PDS2014","BW","PDS2014-0028",842,"BW","Body Weight","327.5","g","327.5",327.5,"g",NA,NA,NA,NA,NA,NA,7,"2010-12-17T08:23:31",7
"PDS2014","BW","PDS2014-0028",843,"BW","Body Weight","328.1","g","328.1",328.1,"g",NA,NA,NA,NA,NA,NA,8,"2010-12-18T08:35:02",8
"PDS2014","BW","PDS2014-0028",844,"BW","Body Weight","338.5","g","338.5",338.5,"g",NA,NA,NA,NA,NA,NA,9,"2010-12-19T13:12:00",9
"PDS2014","BW","PDS2014-0028",845,"BW","Body Weight","335.9","g","335.9",335.9,"g",NA,NA,NA,NA,NA,NA,10,"2010-12-20T11:17:36",10
"PDS2014","BW","PDS2014-0028",846,"BW","Body Weight","346.3","g","346.3",346.3,"g",NA,NA,NA,NA,NA,NA,11,"2010-12-21T07:49:50",11
"PDS2014","BW","PDS2014-0028",847,"BW","Body Weight","348.3","g","348.3",348.3,"g",NA,NA,NA,NA,NA,NA,12,"2010-12-22T08:23:47",12
"PDS2014","BW","PDS2014-0028",848,"BW","Body Weight","353.1","g","353.1",353.1,"g",NA,NA,NA,NA,NA,NA,13,"2010-12-23T07:43:16",13
"PDS2014","BW","PDS2014-0028",849,"BW","Body Weight","354.4","g","354.4",354.4,"g",NA,NA,NA,NA,NA,NA,14,"2010-12-24T08:12:40",14
"PDS2014","BW","PDS2014-0028",850,"BW","Body Weight","352.9","g","352.9",352.9,"g",NA,NA,NA,NA,NA,NA,15,"2010-12-25T08:06:25",15
"PDS2014","BW","PDS2014-0028",851,"BW","Body Weight","359","g","359",359,"g",NA,NA,NA,NA,NA,NA,16,"2010-12-26T07:29:12",16
"PDS2014","BW","PDS2014-0028",852,"BW","Body Weight","364.5","g","364.5",364.5,"g",NA,NA,NA,NA,NA,NA,17,"2010-12-27T10:11:32",17
"PDS2014","BW","PDS2014-0028",853,"BW","Body Weight","363.8","g","363.8",363.8,"g",NA,NA,NA,NA,NA,NA,18,"2010-12-28T08:12:14",18
"PDS2014","BW","PDS2014-0028",854,"BW","Body Weight","363.4","g","363.4",363.4,"g",NA,NA,NA,NA,NA,NA,19,"2010-12-29T09:50:45",19
"PDS2014","BW","PDS2014-0028",855,"BW","Body Weight","362.5","g","362.5",362.5,"g",NA,NA,NA,NA,NA,NA,20,"2010-12-30T09:08:51",20
"PDS2014","BW","PDS2014-0028",856,"BW","Body Weight","364.2","g","364.2",364.2,"g",NA,NA,NA,NA,NA,NA,21,"2010-12-31T09:04:52",21
"PDS2014","BW","PDS2014-0028",857,"BW","Body Weight","369.1","g","369.1",369.1,"g",NA,NA,NA,NA,NA,NA,22,"2011-01-01T07:02:27",22
"PDS2014","BW","PDS2014-0028",858,"BW","Body Weight","374.9","g","374.9",374.9,"g",NA,NA,NA,NA,NA,NA,23,"2011-01-02T08:40:04",23
"PDS2014","BW","PDS2014-0028",859,"BW","Body Weight","371.3","g","371.3",371.3,"g",NA,NA,NA,NA,NA,NA,24,"2011-01-03T08:47:42",24
"PDS2014","BW","PDS2014-0028",860,"BW","Body Weight","366","g","366",366,"g",NA,NA,NA,NA,NA,NA,25,"2011-01-04T08:44:32",25
"PDS2014","BW","PDS2014-0028",861,"BW","Body Weight","371.1","g","371.1",371.1,"g",NA,NA,NA,NA,NA,NA,26,"2011-01-05T09:23:47",26
"PDS2014","BW","PDS2014-0028",862,"BW","Body Weight","368.9","g","368.9",368.9,"g",NA,NA,NA,NA,NA,NA,27,"2011-01-06T09:15:22",27
"PDS2014","BW","PDS2014-0028",863,"BW","Body Weight","371.8","g","371.8",371.8,"g",NA,NA,NA,NA,NA,NA,28,"2011-01-07T08:15:19",28
"PDS2014","BW","PDS2014-0028",864,"BW","Body Weight","377.4","g","377.4",377.4,"g",NA,NA,NA,NA,NA,NA,29,"2011-01-08T08:29:07",29
"PDS2014","BW","PDS2014-0028",865,"BW","Body Weight","383.1","g","383.1",383.1,"g",NA,NA,NA,NA,NA,NA,30,"2011-01-09T11:12:52",30
"PDS2014","BW","PDS2014-0028",866,"BW","Body Weight","352.9","g","352.9",352.9,"g",NA,NA,NA,NA,NA,NA,31,"2011-01-10T08:23:49",31
"PDS2014","BW","PDS2014-0028",867,"TERMBW","Terminal Body Weight","352.9","g","352.9",352.9,"g",NA,NA,NA,NA,NA,NA,31,"2011-01-10T10:30:52",31
"PDS2014","BW","PDS2014-0029",868,"BW","Body Weight","299.1","g","299.1",299.1,"g",NA,NA,NA,NA,NA,NA,-4,"2010-12-07T10:32:28",-4
"PDS2014","BW","PDS2014-0029",869,"BW","Body Weight","341.4","g","341.4",341.4,"g",NA,NA,"Y",NA,NA,NA,1,"2010-12-11T10:06:33",1
"PDS2014","BW","PDS2014-0029",870,"BW","Body Weight","330.8","g","330.8",330.8,"g",NA,NA,NA,NA,NA,NA,2,"2010-12-12T11:21:23",2
"PDS2014","BW","PDS2014-0029",871,"BW","Body Weight","341.6","g","341.6",341.6,"g",NA,NA,NA,NA,NA,NA,3,"2010-12-13T12:27:55",3
"PDS2014","BW","PDS2014-0029",872,"BW","Body Weight","343.2","g","343.2",343.2,"g",NA,NA,NA,NA,NA,NA,4,"2010-12-14T10:43:29",4
"PDS2014","BW","PDS2014-0029",873,"BW","Body Weight","347","g","347",347,"g",NA,NA,NA,NA,NA,NA,5,"2010-12-15T09:49:57",5
"PDS2014","BW","PDS2014-0029",874,"BW","Body Weight","354.9","g","354.9",354.9,"g",NA,NA,NA,NA,NA,NA,6,"2010-12-16T09:07:45",6
"PDS2014","BW","PDS2014-0029",875,"BW","Body Weight","361.2","g","361.2",361.2,"g",NA,NA,NA,NA,NA,NA,7,"2010-12-17T08:24:19",7
"PDS2014","BW","PDS2014-0029",876,"BW","Body Weight","367","g","367",367,"g",NA,NA,NA,NA,NA,NA,8,"2010-12-18T08:35:26",8
"PDS2014","BW","PDS2014-0029",877,"BW","Body Weight","368.1","g","368.1",368.1,"g",NA,NA,NA,NA,NA,NA,9,"2010-12-19T13:11:39",9
"PDS2014","BW","PDS2014-0029",878,"BW","Body Weight","375","g","375",375,"g",NA,NA,NA,NA,NA,NA,10,"2010-12-20T11:17:57",10
"PDS2014","BW","PDS2014-0029",879,"BW","Body Weight","387.6","g","387.6",387.6,"g",NA,NA,NA,NA,NA,NA,11,"2010-12-21T07:49:15",11
"PDS2014","BW","PDS2014-0029",880,"BW","Body Weight","378.7","g","378.7",378.7,"g",NA,NA,NA,NA,NA,NA,12,"2010-12-22T08:24:04",12
"PDS2014","BW","PDS2014-0029",881,"BW","Body Weight","390.7","g","390.7",390.7,"g",NA,NA,NA,NA,NA,NA,13,"2010-12-23T07:42:07",13
"PDS2014","BW","PDS2014-0029",882,"BW","Body Weight","391.9","g","391.9",391.9,"g",NA,NA,NA,NA,NA,NA,14,"2010-12-24T08:13:16",14
"PDS2014","BW","PDS2014-0029",883,"BW","Body Weight","394.7","g","394.7",394.7,"g",NA,NA,NA,NA,NA,NA,15,"2010-12-25T08:05:15",15
"PDS2014","BW","PDS2014-0029",884,"BW","Body Weight","403.7","g","403.7",403.7,"g",NA,NA,NA,NA,NA,NA,16,"2010-12-26T07:29:36",16
"PDS2014","BW","PDS2014-0029",885,"BW","Body Weight","409.1","g","409.1",409.1,"g",NA,NA,NA,NA,NA,NA,17,"2010-12-27T10:11:56",17
"PDS2014","BW","PDS2014-0029",886,"BW","Body Weight","405.3","g","405.3",405.3,"g",NA,NA,NA,NA,NA,NA,18,"2010-12-28T08:11:57",18
"PDS2014","BW","PDS2014-0029",887,"BW","Body Weight","416.6","g","416.6",416.6,"g",NA,NA,NA,NA,NA,NA,19,"2010-12-29T09:51:54",19
"PDS2014","BW","PDS2014-0029",888,"BW","Body Weight","418.7","g","418.7",418.7,"g",NA,NA,NA,NA,NA,NA,20,"2010-12-30T09:08:30",20
"PDS2014","BW","PDS2014-0029",889,"BW","Body Weight","422.5","g","422.5",422.5,"g",NA,NA,NA,NA,NA,NA,21,"2010-12-31T09:05:11",21
"PDS2014","BW","PDS2014-0029",890,"BW","Body Weight","423","g","423",423,"g",NA,NA,NA,NA,NA,NA,22,"2011-01-01T07:03:08",22
"PDS2014","BW","PDS2014-0029",891,"BW","Body Weight","426.8","g","426.8",426.8,"g",NA,NA,NA,NA,NA,NA,23,"2011-01-02T08:39:06",23
"PDS2014","BW","PDS2014-0029",892,"BW","Body Weight","427.9","g","427.9",427.9,"g",NA,NA,NA,NA,NA,NA,24,"2011-01-03T08:47:13",24
"PDS2014","BW","PDS2014-0029",893,"BW","Body Weight","427.8","g","427.8",427.8,"g",NA,NA,NA,NA,NA,NA,25,"2011-01-04T08:43:46",25
"PDS2014","BW","PDS2014-0029",894,"BW","Body Weight","430.7","g","430.7",430.7,"g",NA,NA,NA,NA,NA,NA,26,"2011-01-05T09:23:29",26
"PDS2014","BW","PDS2014-0029",895,"BW","Body Weight","431.1","g","431.1",431.1,"g",NA,NA,NA,NA,NA,NA,27,"2011-01-06T09:16:04",27
"PDS2014","BW","PDS2014-0029",896,"BW","Body Weight","433.6","g","433.6",433.6,"g",NA,NA,NA,NA,NA,NA,28,"2011-01-07T08:14:59",28
"PDS2014","BW","PDS2014-0029",897,"BW","Body Weight","437.4","g","437.4",437.4,"g",NA,NA,NA,NA,NA,NA,29,"2011-01-08T08:29:26",29
"PDS2014","BW","PDS2014-0029",898,"BW","Body Weight","444.2","g","444.2",444.2,"g",NA,NA,NA,NA,NA,NA,30,"2011-01-09T11:12:16",30
"PDS2014","BW","PDS2014-0029",899,"BW","Body Weight","412.4","g","412.4",412.4,"g",NA,NA,NA,NA,NA,NA,31,"2011-01-10T08:24:40",31
"PDS2014","BW","PDS2014-0029",900,"TERMBW","Terminal Body Weight","412.4","g","412.4",412.4,"g",NA,NA,NA,NA,NA,NA,31,"2011-01-10T13:48:39",31
"PDS2014","BW","PDS2014-0030",901,"BW","Body Weight","274.2","g","274.2",274.2,"g",NA,NA,NA,NA,NA,NA,-4,"2010-12-07T10:36:39",-4
"PDS2014","BW","PDS2014-0030",902,"BW","Body Weight","311.8","g","311.8",311.8,"g",NA,NA,"Y",NA,NA,NA,1,"2010-12-11T10:04:58",1
"PDS2014","BW","PDS2014-0030",903,"BW","Body Weight","304","g","304",304,"g",NA,NA,NA,NA,NA,NA,2,"2010-12-12T11:20:15",2
"PDS2014","BW","PDS2014-0030",904,"BW","Body Weight","307.5","g","307.5",307.5,"g",NA,NA,NA,NA,NA,NA,3,"2010-12-13T12:27:01",3
"PDS2014","BW","PDS2014-0030",905,"BW","Body Weight","314.8","g","314.8",314.8,"g",NA,NA,NA,NA,NA,NA,4,"2010-12-14T10:43:51",4
"PDS2014","BW","PDS2014-0030",906,"BW","Body Weight","322.2","g","322.2",322.2,"g",NA,NA,NA,NA,NA,NA,5,"2010-12-15T09:51:25",5
"PDS2014","BW","PDS2014-0030",907,"BW","Body Weight","329.6","g","329.6",329.6,"g",NA,NA,NA,NA,NA,NA,6,"2010-12-16T09:08:03",6
"PDS2014","BW","PDS2014-0030",908,"BW","Body Weight","330.7","g","330.7",330.7,"g",NA,NA,NA,NA,NA,NA,7,"2010-12-17T08:23:05",7
"PDS2014","BW","PDS2014-0030",909,"BW","Body Weight","336.3","g","336.3",336.3,"g",NA,NA,NA,NA,NA,NA,8,"2010-12-18T08:34:18",8
"PDS2014","BW","PDS2014-0030",910,"BW","Body Weight","342.8","g","342.8",342.8,"g",NA,NA,NA,NA,NA,NA,9,"2010-12-19T13:10:51",9
"PDS2014","BW","PDS2014-0030",911,"BW","Body Weight","346.8","g","346.8",346.8,"g",NA,NA,NA,NA,NA,NA,10,"2010-12-20T11:18:58",10
"PDS2014","BW","PDS2014-0030",912,"BW","Body Weight","355.8","g","355.8",355.8,"g",NA,NA,NA,NA,NA,NA,11,"2010-12-21T07:50:19",11
"PDS2014","BW","PDS2014-0030",913,"BW","Body Weight","357.9","g","357.9",357.9,"g",NA,NA,NA,NA,NA,NA,12,"2010-12-22T08:24:39",12
"PDS2014","BW","PDS2014-0030",914,"BW","Body Weight","362.3","g","362.3",362.3,"g",NA,NA,NA,NA,NA,NA,13,"2010-12-23T07:42:23",13
"PDS2014","BW","PDS2014-0030",915,"BW","Body Weight","365.3","g","365.3",365.3,"g",NA,NA,NA,NA,NA,NA,14,"2010-12-24T08:12:56",14
"PDS2014","BW","PDS2014-0030",916,"BW","Body Weight","367.4","g","367.4",367.4,"g",NA,NA,NA,NA,NA,NA,15,"2010-12-25T08:06:43",15
"PDS2014","BW","PDS2014-0030",917,"BW","Body Weight","373","g","373",373,"g",NA,NA,NA,NA,NA,NA,16,"2010-12-26T07:29:57",16
"PDS2014","BW","PDS2014-0030",918,"BW","Body Weight","389","g","389",389,"g",NA,NA,NA,NA,NA,NA,17,"2010-12-27T10:29:30",17
"PDS2014","BW","PDS2014-0030",919,"BW","Body Weight","385.5","g","385.5",385.5,"g",NA,NA,NA,NA,NA,NA,18,"2010-12-28T08:11:38",18
"PDS2014","BW","PDS2014-0030",920,"BW","Body Weight","390","g","390",390,"g",NA,NA,NA,NA,NA,NA,19,"2010-12-29T09:50:23",19
"PDS2014","BW","PDS2014-0030",921,"BW","Body Weight","394.2","g","394.2",394.2,"g",NA,NA,NA,NA,NA,NA,20,"2010-12-30T09:07:58",20
"PDS2014","BW","PDS2014-0030",922,"BW","Body Weight","399.6","g","399.6",399.6,"g",NA,NA,NA,NA,NA,NA,21,"2010-12-31T09:05:28",21
"PDS2014","BW","PDS2014-0030",923,"BW","Body Weight","404","g","404",404,"g",NA,NA,NA,NA,NA,NA,22,"2011-01-01T07:03:31",22
"PDS2014","BW","PDS2014-0030",924,"BW","Body Weight","405.6","g","405.6",405.6,"g",NA,NA,NA,NA,NA,NA,23,"2011-01-02T08:38:48",23
"PDS2014","BW","PDS2014-0030",925,"BW","Body Weight","404.6","g","404.6",404.6,"g",NA,NA,NA,NA,NA,NA,24,"2011-01-03T08:47:28",24
"PDS2014","BW","PDS2014-0030",926,"BW","Body Weight","409.3","g","409.3",409.3,"g",NA,NA,NA,NA,NA,NA,25,"2011-01-04T08:44:11",25
"PDS2014","BW","PDS2014-0030",927,"BW","Body Weight","417","g","417",417,"g",NA,NA,NA,NA,NA,NA,26,"2011-01-05T09:23:11",26
"PDS2014","BW","PDS2014-0030",928,"BW","Body Weight","413.3","g","413.3",413.3,"g",NA,NA,NA,NA,NA,NA,27,"2011-01-06T09:15:43",27
"PDS2014","BW","PDS2014-0030",929,"BW","Body Weight","421.5","g","421.5",421.5,"g",NA,NA,NA,NA,NA,NA,28,"2011-01-07T08:14:39",28
"PDS2014","BW","PDS2014-0030",930,"BW","Body Weight","420.6","g","420.6",420.6,"g",NA,NA,NA,NA,NA,NA,29,"2011-01-08T08:28:40",29
"PDS2014","BW","PDS2014-0030",931,"BW","Body Weight","426.4","g","426.4",426.4,"g",NA,NA,NA,NA,NA,NA,30,"2011-01-09T11:11:34",30
"PDS2014","BW","PDS2014-0030",932,"BW","Body Weight","394.4","g","394.4",394.4,"g",NA,NA,NA,NA,NA,NA,31,"2011-01-10T08:25:33",31
"PDS2014","BW","PDS2014-0030",933,"TERMBW","Terminal Body Weight",NA,NA,NA,NA,NA,"NOT DONE","weight not needed",NA,NA,NA,NA,31,"2011-01-10T12:00:00",31
"PDS2014","BW","PDS2014-0031",934,"BW","Body Weight","284.2","g","284.2",284.2,"g",NA,NA,NA,NA,NA,NA,-4,"2010-12-07T10:31:02",-4
"PDS2014","BW","PDS2014-0031",935,"BW","Body Weight","315.8","g","315.8",315.8,"g",NA,NA,"Y",NA,NA,NA,1,"2010-12-11T08:38:08",1
"PDS2014","BW","PDS2014-0031",936,"BW","Body Weight","304.5","g","304.5",304.5,"g",NA,NA,NA,NA,NA,NA,2,"2010-12-12T11:22:19",2
"PDS2014","BW","PDS2014-0031",937,"BW","Body Weight","315","g","315",315,"g",NA,NA,NA,NA,NA,NA,3,"2010-12-13T12:29:28",3
"PDS2014","BW","PDS2014-0031",938,"BW","Body Weight","317.1","g","317.1",317.1,"g",NA,NA,NA,NA,NA,NA,4,"2010-12-14T10:45:51",4
"PDS2014","BW","PDS2014-0031",939,"BW","Body Weight","327.1","g","327.1",327.1,"g",NA,NA,NA,NA,NA,NA,5,"2010-12-15T09:51:52",5
"PDS2014","BW","PDS2014-0031",940,"BW","Body Weight","332.1","g","332.1",332.1,"g",NA,NA,NA,NA,NA,NA,6,"2010-12-16T09:09:01",6
"PDS2014","BW","PDS2014-0031",941,"BW","Body Weight","344.8","g","344.8",344.8,"g",NA,NA,NA,NA,NA,NA,7,"2010-12-17T08:25:27",7
"PDS2014","BW","PDS2014-0031",942,"BW","Body Weight","350.1","g","350.1",350.1,"g",NA,NA,NA,NA,NA,NA,8,"2010-12-18T08:37:28",8
"PDS2014","BW","PDS2014-0031",943,"BW","Body Weight","347.6","g","347.6",347.6,"g",NA,NA,NA,NA,NA,NA,9,"2010-12-19T13:14:31",9
"PDS2014","BW","PDS2014-0031",944,"BW","Body Weight","358.7","g","358.7",358.7,"g",NA,NA,NA,NA,NA,NA,10,"2010-12-20T11:19:46",10
"PDS2014","BW","PDS2014-0031",945,"BW","Body Weight","368.3","g","368.3",368.3,"g",NA,NA,NA,NA,NA,NA,11,"2010-12-21T07:51:44",11
"PDS2014","BW","PDS2014-0031",946,"BW","Body Weight","369.5","g","369.5",369.5,"g",NA,NA,NA,NA,NA,NA,12,"2010-12-22T08:26:08",12
"PDS2014","BW","PDS2014-0031",947,"BW","Body Weight","378.8","g","378.8",378.8,"g",NA,NA,NA,NA,NA,NA,13,"2010-12-23T07:43:39",13
"PDS2014","BW","PDS2014-0031",948,"BW","Body Weight","375.8","g","375.8",375.8,"g",NA,NA,NA,NA,NA,NA,14,"2010-12-24T08:14:37",14
"PDS2014","BW","PDS2014-0031",949,"BW","Body Weight","386.1","g","386.1",386.1,"g",NA,NA,NA,NA,NA,NA,15,"2010-12-25T08:09:16",15
"PDS2014","BW","PDS2014-0031",950,"BW","Body Weight","391.2","g","391.2",391.2,"g",NA,NA,NA,NA,NA,NA,16,"2010-12-26T07:31:45",16
"PDS2014","BW","PDS2014-0031",951,"BW","Body Weight","394.4","g","394.4",394.4,"g",NA,NA,NA,NA,NA,NA,17,"2010-12-27T10:31:46",17
"PDS2014","BW","PDS2014-0031",952,"BW","Body Weight","391.7","g","391.7",391.7,"g",NA,NA,NA,NA,NA,NA,18,"2010-12-28T08:13:17",18
"PDS2014","BW","PDS2014-0031",953,"BW","Body Weight","391.9","g","391.9",391.9,"g",NA,NA,NA,NA,NA,NA,19,"2010-12-29T09:53:17",19
"PDS2014","BW","PDS2014-0031",954,"BW","Body Weight","399.2","g","399.2",399.2,"g",NA,NA,NA,NA,NA,NA,20,"2010-12-30T09:10:09",20
"PDS2014","BW","PDS2014-0031",955,"BW","Body Weight","398.5","g","398.5",398.5,"g",NA,NA,NA,NA,NA,NA,21,"2010-12-31T09:06:47",21
"PDS2014","BW","PDS2014-0031",956,"BW","Body Weight","406.8","g","406.8",406.8,"g",NA,NA,NA,NA,NA,NA,22,"2011-01-01T07:05:39",22
"PDS2014","BW","PDS2014-0031",957,"BW","Body Weight","410.7","g","410.7",410.7,"g",NA,NA,NA,NA,NA,NA,23,"2011-01-02T08:40:32",23
"PDS2014","BW","PDS2014-0031",958,"BW","Body Weight","406.3","g","406.3",406.3,"g",NA,NA,NA,NA,NA,NA,24,"2011-01-03T08:49:17",24
"PDS2014","BW","PDS2014-0031",959,"BW","Body Weight","416.3","g","416.3",416.3,"g",NA,NA,NA,NA,NA,NA,25,"2011-01-04T08:46:21",25
"PDS2014","BW","PDS2014-0031",960,"BW","Body Weight","412.2","g","412.2",412.2,"g",NA,NA,NA,NA,NA,NA,26,"2011-01-05T09:25:35",26
"PDS2014","BW","PDS2014-0031",961,"BW","Body Weight","415.3","g","415.3",415.3,"g",NA,NA,NA,NA,NA,NA,27,"2011-01-06T09:17:54",27
"PDS2014","BW","PDS2014-0031",962,"BW","Body Weight","419.8","g","419.8",419.8,"g",NA,NA,NA,NA,NA,NA,28,"2011-01-07T07:40:45",28
"PDS2014","BW","PDS2014-0031",963,"BW","Body Weight","424.4","g","424.4",424.4,"g",NA,NA,NA,NA,NA,NA,29,"2011-01-08T07:45:10",29
"PDS2014","BW","PDS2014-0031",964,"BW","Body Weight","422.9","g","422.9",422.9,"g",NA,NA,NA,NA,NA,NA,30,"2011-01-09T13:51:44",30
"PDS2014","BW","PDS2014-0032",965,"BW","Body Weight","279.8","g","279.8",279.8,"g",NA,NA,NA,NA,NA,NA,-4,"2010-12-07T10:33:12",-4
"PDS2014","BW","PDS2014-0032",966,"BW","Body Weight","308.2","g","308.2",308.2,"g",NA,NA,"Y",NA,NA,NA,1,"2010-12-11T08:40:08",1
"PDS2014","BW","PDS2014-0032",967,"BW","Body Weight","302.4","g","302.4",302.4,"g",NA,NA,NA,NA,NA,NA,2,"2010-12-12T11:21:57",2
"PDS2014","BW","PDS2014-0032",968,"BW","Body Weight","307.9","g","307.9",307.9,"g",NA,NA,NA,NA,NA,NA,3,"2010-12-13T12:28:44",3
"PDS2014","BW","PDS2014-0032",969,"BW","Body Weight","314","g","314",314,"g",NA,NA,NA,NA,NA,NA,4,"2010-12-14T10:45:21",4
"PDS2014","BW","PDS2014-0032",970,"BW","Body Weight","323.9","g","323.9",323.9,"g",NA,NA,NA,NA,NA,NA,5,"2010-12-15T09:52:18",5
"PDS2014","BW","PDS2014-0032",971,"BW","Body Weight","327.4","g","327.4",327.4,"g",NA,NA,NA,NA,NA,NA,6,"2010-12-16T09:08:29",6
"PDS2014","BW","PDS2014-0032",972,"BW","Body Weight","333.8","g","333.8",333.8,"g",NA,NA,NA,NA,NA,NA,7,"2010-12-17T08:26:04",7
"PDS2014","BW","PDS2014-0032",973,"BW","Body Weight","340.3","g","340.3",340.3,"g",NA,NA,NA,NA,NA,NA,8,"2010-12-18T08:37:11",8
"PDS2014","BW","PDS2014-0032",974,"BW","Body Weight","337.2","g","337.2",337.2,"g",NA,NA,NA,NA,NA,NA,9,"2010-12-19T13:13:41",9
"PDS2014","BW","PDS2014-0032",975,"BW","Body Weight","339.9","g","339.9",339.9,"g",NA,NA,NA,NA,NA,NA,10,"2010-12-20T11:20:23",10
"PDS2014","BW","PDS2014-0032",976,"BW","Body Weight","355.3","g","355.3",355.3,"g",NA,NA,NA,NA,NA,NA,11,"2010-12-21T07:52:30",11
"PDS2014","BW","PDS2014-0032",977,"BW","Body Weight","356.2","g","356.2",356.2,"g",NA,NA,NA,NA,NA,NA,12,"2010-12-22T08:25:51",12
"PDS2014","BW","PDS2014-0032",978,"BW","Body Weight","361.8","g","361.8",361.8,"g",NA,NA,NA,NA,NA,NA,13,"2010-12-23T07:44:17",13
"PDS2014","BW","PDS2014-0032",979,"BW","Body Weight","365.6","g","365.6",365.6,"g",NA,NA,NA,NA,NA,NA,14,"2010-12-24T08:14:54",14
"PDS2014","BW","PDS2014-0032",980,"BW","Body Weight","367.3","g","367.3",367.3,"g",NA,NA,NA,NA,NA,NA,15,"2010-12-25T08:08:34",15
"PDS2014","BW","PDS2014-0032",981,"BW","Body Weight","377.2","g","377.2",377.2,"g",NA,NA,NA,NA,NA,NA,16,"2010-12-26T07:31:28",16
"PDS2014","BW","PDS2014-0032",982,"BW","Body Weight","366.8","g","366.8",366.8,"g",NA,NA,NA,NA,NA,NA,17,"2010-12-27T10:32:07",17
"PDS2014","BW","PDS2014-0032",983,"BW","Body Weight","376.1","g","376.1",376.1,"g",NA,NA,NA,NA,NA,NA,18,"2010-12-28T08:13:58",18
"PDS2014","BW","PDS2014-0032",984,"BW","Body Weight","375.9","g","375.9",375.9,"g",NA,NA,NA,NA,NA,NA,19,"2010-12-29T09:52:27",19
"PDS2014","BW","PDS2014-0032",985,"BW","Body Weight","381.6","g","381.6",381.6,"g",NA,NA,NA,NA,NA,NA,20,"2010-12-30T09:10:31",20
"PDS2014","BW","PDS2014-0032",986,"BW","Body Weight","380.2","g","380.2",380.2,"g",NA,NA,NA,NA,NA,NA,21,"2010-12-31T09:07:03",21
"PDS2014","BW","PDS2014-0032",987,"BW","Body Weight","391.7","g","391.7",391.7,"g",NA,NA,NA,NA,NA,NA,22,"2011-01-01T07:05:18",22
"PDS2014","BW","PDS2014-0032",988,"BW","Body Weight","393.5","g","393.5",393.5,"g",NA,NA,NA,NA,NA,NA,23,"2011-01-02T08:40:52",23
"PDS2014","BW","PDS2014-0032",989,"BW","Body Weight","388.9","g","388.9",388.9,"g",NA,NA,NA,NA,NA,NA,24,"2011-01-03T08:48:53",24
"PDS2014","BW","PDS2014-0032",990,"BW","Body Weight","389.8","g","389.8",389.8,"g",NA,NA,NA,NA,NA,NA,25,"2011-01-04T08:46:37",25
"PDS2014","BW","PDS2014-0032",991,"BW","Body Weight","390.4","g","390.4",390.4,"g",NA,NA,NA,NA,NA,NA,26,"2011-01-05T09:25:55",26
"PDS2014","BW","PDS2014-0032",992,"BW","Body Weight","402.8","g","402.8",402.8,"g",NA,NA,NA,NA,NA,NA,27,"2011-01-06T09:18:30",27
"PDS2014","BW","PDS2014-0032",993,"BW","Body Weight","409.1","g","409.1",409.1,"g",NA,NA,NA,NA,NA,NA,28,"2011-01-07T07:41:15",28
"PDS2014","BW","PDS2014-0032",994,"BW","Body Weight","405.2","g","405.2",405.2,"g",NA,NA,NA,NA,NA,NA,29,"2011-01-08T07:46:38",29
"PDS2014","BW","PDS2014-0032",995,"BW","Body Weight","399.4","g","399.4",399.4,"g",NA,NA,NA,NA,NA,NA,30,"2011-01-09T13:52:08",30
"PDS2014","BW","PDS2014-0033",996,"BW","Body Weight","299.7","g","299.7",299.7,"g",NA,NA,NA,NA,NA,NA,-4,"2010-12-07T10:30:06",-4
"PDS2014","BW","PDS2014-0033",997,"BW","Body Weight","342","g","342",342,"g",NA,NA,"Y",NA,NA,NA,1,"2010-12-11T08:42:11",1
"PDS2014","BW","PDS2014-0033",998,"BW","Body Weight","318.8","g","318.8",318.8,"g",NA,NA,NA,NA,NA,NA,2,"2010-12-12T11:23:00",2
"PDS2014","BW","PDS2014-0033",999,"BW","Body Weight","322.4","g","322.4",322.4,"g",NA,NA,NA,NA,NA,NA,3,"2010-12-13T12:29:02",3
"PDS2014","BW","PDS2014-0033",1000,"BW","Body Weight","328.5","g","328.5",328.5,"g",NA,NA,NA,NA,NA,NA,4,"2010-12-14T10:44:59",4
"PDS2014","BW","PDS2014-0033",1001,"BW","Body Weight","336.7","g","336.7",336.7,"g",NA,NA,NA,NA,NA,NA,5,"2010-12-15T09:52:05",5
"PDS2014","BW","PDS2014-0033",1002,"BW","Body Weight","340","g","340",340,"g",NA,NA,NA,NA,NA,NA,6,"2010-12-16T09:08:45",6
"PDS2014","BW","PDS2014-0033",1003,"BW","Body Weight","344.9","g","344.9",344.9,"g",NA,NA,NA,NA,NA,NA,7,"2010-12-17T08:26:34",7
"PDS2014","BW","PDS2014-0033",1004,"BW","Body Weight","348.5","g","348.5",348.5,"g",NA,NA,NA,NA,NA,NA,8,"2010-12-18T08:36:51",8
"PDS2014","BW","PDS2014-0033",1005,"BW","Body Weight","347","g","347",347,"g",NA,NA,NA,NA,NA,NA,9,"2010-12-19T13:14:03",9
"PDS2014","BW","PDS2014-0033",1006,"BW","Body Weight","353.2","g","353.2",353.2,"g",NA,NA,NA,NA,NA,NA,10,"2010-12-20T11:20:05",10
"PDS2014","BW","PDS2014-0033",1007,"BW","Body Weight","368","g","368",368,"g",NA,NA,NA,NA,NA,NA,11,"2010-12-21T07:52:07",11
"PDS2014","BW","PDS2014-0033",1008,"BW","Body Weight","368.2","g","368.2",368.2,"g",NA,NA,NA,NA,NA,NA,12,"2010-12-22T08:25:34",12
"PDS2014","BW","PDS2014-0033",1009,"BW","Body Weight","376.5","g","376.5",376.5,"g",NA,NA,NA,NA,NA,NA,13,"2010-12-23T07:43:57",13
"PDS2014","BW","PDS2014-0033",1010,"BW","Body Weight","374.6","g","374.6",374.6,"g",NA,NA,NA,NA,NA,NA,14,"2010-12-24T08:14:17",14
"PDS2014","BW","PDS2014-0033",1011,"BW","Body Weight","383.5","g","383.5",383.5,"g",NA,NA,NA,NA,NA,NA,15,"2010-12-25T08:08:58",15
"PDS2014","BW","PDS2014-0033",1012,"BW","Body Weight","388","g","388",388,"g",NA,NA,NA,NA,NA,NA,16,"2010-12-26T07:31:12",16
"PDS2014","BW","PDS2014-0033",1013,"BW","Body Weight","381.2","g","381.2",381.2,"g",NA,NA,NA,NA,NA,NA,17,"2010-12-27T10:31:24",17
"PDS2014","BW","PDS2014-0033",1014,"BW","Body Weight","393","g","393",393,"g",NA,NA,NA,NA,NA,NA,18,"2010-12-28T08:13:35",18
"PDS2014","BW","PDS2014-0033",1015,"BW","Body Weight","401.6","g","401.6",401.6,"g",NA,NA,NA,NA,NA,NA,19,"2010-12-29T09:52:48",19
"PDS2014","BW","PDS2014-0033",1016,"BW","Body Weight","395.9","g","395.9",395.9,"g",NA,NA,NA,NA,NA,NA,20,"2010-12-30T09:10:52",20
"PDS2014","BW","PDS2014-0033",1017,"BW","Body Weight","407.9","g","407.9",407.9,"g",NA,NA,NA,NA,NA,NA,21,"2010-12-31T09:06:30",21
"PDS2014","BW","PDS2014-0033",1018,"BW","Body Weight","407.5","g","407.5",407.5,"g",NA,NA,NA,NA,NA,NA,22,"2011-01-01T07:05:00",22
"PDS2014","BW","PDS2014-0033",1019,"BW","Body Weight","419.7","g","419.7",419.7,"g",NA,NA,NA,NA,NA,NA,23,"2011-01-02T08:41:11",23
"PDS2014","BW","PDS2014-0033",1020,"BW","Body Weight","416.4","g","416.4",416.4,"g",NA,NA,NA,NA,NA,NA,24,"2011-01-03T08:48:38",24
"PDS2014","BW","PDS2014-0033",1021,"BW","Body Weight","425.8","g","425.8",425.8,"g",NA,NA,NA,NA,NA,NA,25,"2011-01-04T08:46:01",25
"PDS2014","BW","PDS2014-0033",1022,"BW","Body Weight","428.2","g","428.2",428.2,"g",NA,NA,NA,NA,NA,NA,26,"2011-01-05T09:25:15",26
"PDS2014","BW","PDS2014-0033",1023,"BW","Body Weight","426.5","g","426.5",426.5,"g",NA,NA,NA,NA,NA,NA,27,"2011-01-06T09:17:33",27
"PDS2014","BW","PDS2014-0033",1024,"BW","Body Weight","431.9","g","431.9",431.9,"g",NA,NA,NA,NA,NA,NA,28,"2011-01-07T07:41:42",28
"PDS2014","BW","PDS2014-0033",1025,"BW","Body Weight","434.2","g","434.2",434.2,"g",NA,NA,NA,NA,NA,NA,29,"2011-01-08T07:49:08",29
"PDS2014","BW","PDS2014-0033",1026,"BW","Body Weight","431.5","g","431.5",431.5,"g",NA,NA,NA,NA,NA,NA,30,"2011-01-09T13:51:10",30
"PDS2014","BW","PDS2014-0041",1027,"BW","Body Weight","272.2","g","272.2",272.2,"g",NA,NA,NA,NA,NA,NA,-4,"2010-12-07T10:30:51",-4
"PDS2014","BW","PDS2014-0041",1028,"BW","Body Weight","309.6","g","309.6",309.6,"g",NA,NA,"Y",NA,NA,NA,1,"2010-12-11T10:16:16",1
"PDS2014","BW","PDS2014-0041",1029,"BW","Body Weight","298.3","g","298.3",298.3,"g",NA,NA,NA,NA,NA,NA,2,"2010-12-12T11:32:35",2
"PDS2014","BW","PDS2014-0041",1030,"BW","Body Weight","298.7","g","298.7",298.7,"g",NA,NA,NA,NA,NA,NA,3,"2010-12-13T12:37:19",3
"PDS2014","BW","PDS2014-0041",1031,"BW","Body Weight","307.5","g","307.5",307.5,"g",NA,NA,NA,NA,NA,NA,4,"2010-12-14T10:54:16",4
"PDS2014","BW","PDS2014-0041",1032,"BW","Body Weight","313.6","g","313.6",313.6,"g",NA,NA,NA,NA,NA,NA,5,"2010-12-15T09:58:36",5
"PDS2014","BW","PDS2014-0041",1033,"BW","Body Weight","322.1","g","322.1",322.1,"g",NA,NA,NA,NA,NA,NA,6,"2010-12-16T09:14:27",6
"PDS2014","BW","PDS2014-0041",1034,"BW","Body Weight","325.1","g","325.1",325.1,"g",NA,NA,NA,NA,NA,NA,7,"2010-12-17T08:37:26",7
"PDS2014","BW","PDS2014-0041",1035,"BW","Body Weight","323.7","g","323.7",323.7,"g",NA,NA,NA,NA,NA,NA,8,"2010-12-18T08:47:25",8
"PDS2014","BW","PDS2014-0041",1036,"BW","Body Weight","330.7","g","330.7",330.7,"g",NA,NA,NA,NA,NA,NA,9,"2010-12-19T13:30:28",9
"PDS2014","BW","PDS2014-0041",1037,"BW","Body Weight","333.5","g","333.5",333.5,"g",NA,NA,NA,NA,NA,NA,10,"2010-12-20T11:28:02",10
"PDS2014","BW","PDS2014-0041",1038,"BW","Body Weight","347.2","g","347.2",347.2,"g",NA,NA,NA,NA,NA,NA,11,"2010-12-21T08:04:30",11
"PDS2014","BW","PDS2014-0041",1039,"BW","Body Weight","344.6","g","344.6",344.6,"g",NA,NA,NA,NA,NA,NA,12,"2010-12-22T08:31:49",12
"PDS2014","BW","PDS2014-0041",1040,"BW","Body Weight","349.6","g","349.6",349.6,"g",NA,NA,NA,NA,NA,NA,13,"2010-12-23T08:00:28",13
"PDS2014","BW","PDS2014-0041",1041,"BW","Body Weight","356.4","g","356.4",356.4,"g",NA,NA,NA,NA,NA,NA,14,"2010-12-24T08:22:34",14
"PDS2014","BW","PDS2014-0041",1042,"BW","Body Weight","360.2","g","360.2",360.2,"g",NA,NA,NA,NA,NA,NA,15,"2010-12-25T08:24:31",15
"PDS2014","BW","PDS2014-0041",1043,"BW","Body Weight","364.4","g","364.4",364.4,"g",NA,NA,NA,NA,NA,NA,16,"2010-12-26T07:43:01",16
"PDS2014","BW","PDS2014-0041",1044,"BW","Body Weight","371.6","g","371.6",371.6,"g",NA,NA,NA,NA,NA,NA,17,"2010-12-27T10:39:35",17
"PDS2014","BW","PDS2014-0041",1045,"BW","Body Weight","375.2","g","375.2",375.2,"g",NA,NA,NA,NA,NA,NA,18,"2010-12-28T08:20:17",18
"PDS2014","BW","PDS2014-0041",1046,"BW","Body Weight","378.6","g","378.6",378.6,"g",NA,NA,NA,NA,NA,NA,19,"2010-12-29T10:02:02",19
"PDS2014","BW","PDS2014-0041",1047,"BW","Body Weight","380.5","g","380.5",380.5,"g",NA,NA,NA,NA,NA,NA,20,"2010-12-30T09:18:17",20
"PDS2014","BW","PDS2014-0041",1048,"BW","Body Weight","385.7","g","385.7",385.7,"g",NA,NA,NA,NA,NA,NA,21,"2010-12-31T09:14:00",21
"PDS2014","BW","PDS2014-0041",1049,"BW","Body Weight","388.1","g","388.1",388.1,"g",NA,NA,NA,NA,NA,NA,22,"2011-01-01T07:12:42",22
"PDS2014","BW","PDS2014-0041",1050,"BW","Body Weight","399.9","g","399.9",399.9,"g",NA,NA,NA,NA,NA,NA,23,"2011-01-02T10:43:21",23
"PDS2014","BW","PDS2014-0041",1051,"BW","Body Weight","391.9","g","391.9",391.9,"g",NA,NA,NA,NA,NA,NA,24,"2011-01-03T09:21:05",24
"PDS2014","BW","PDS2014-0041",1052,"BW","Body Weight","395.3","g","395.3",395.3,"g",NA,NA,NA,NA,NA,NA,25,"2011-01-04T08:57:15",25
"PDS2014","BW","PDS2014-0041",1053,"BW","Body Weight","400","g","400",400,"g",NA,NA,NA,NA,NA,NA,26,"2011-01-05T09:34:02",26
"PDS2014","BW","PDS2014-0041",1054,"BW","Body Weight","405.1","g","405.1",405.1,"g",NA,NA,NA,NA,NA,NA,27,"2011-01-06T09:26:17",27
"PDS2014","BW","PDS2014-0041",1055,"BW","Body Weight","410.3","g","410.3",410.3,"g",NA,NA,NA,NA,NA,NA,28,"2011-01-07T08:24:29",28
"PDS2014","BW","PDS2014-0041",1056,"BW","Body Weight","410.2","g","410.2",410.2,"g",NA,NA,NA,NA,NA,NA,29,"2011-01-08T08:37:23",29
"PDS2014","BW","PDS2014-0041",1057,"BW","Body Weight","384.6","g","384.6",384.6,"g",NA,NA,NA,NA,NA,NA,30,"2011-01-09T08:21:32",30
"PDS2014","BW","PDS2014-0041",1058,"TERMBW","Terminal Body Weight","384.6","g","384.6",384.6,"g",NA,NA,NA,NA,NA,NA,30,"2011-01-09T10:09:37",30
"PDS2014","BW","PDS2014-0042",1059,"BW","Body Weight","297.6","g","297.6",297.6,"g",NA,NA,NA,NA,NA,NA,-4,"2010-12-07T10:34:01",-4
"PDS2014","BW","PDS2014-0042",1060,"BW","Body Weight","327.4","g","327.4",327.4,"g",NA,NA,"Y",NA,NA,NA,1,"2010-12-11T10:17:57",1
"PDS2014","BW","PDS2014-0042",1061,"BW","Body Weight","326.7","g","326.7",326.7,"g",NA,NA,NA,NA,NA,NA,2,"2010-12-12T11:33:37",2
"PDS2014","BW","PDS2014-0042",1062,"BW","Body Weight","329.6","g","329.6",329.6,"g",NA,NA,NA,NA,NA,NA,3,"2010-12-13T12:37:40",3
"PDS2014","BW","PDS2014-0042",1063,"BW","Body Weight","332.9","g","332.9",332.9,"g",NA,NA,NA,NA,NA,NA,4,"2010-12-14T10:54:56",4
"PDS2014","BW","PDS2014-0042",1064,"BW","Body Weight","336.6","g","336.6",336.6,"g",NA,NA,NA,NA,NA,NA,5,"2010-12-15T09:57:42",5
"PDS2014","BW","PDS2014-0042",1065,"BW","Body Weight","338","g","338",338,"g",NA,NA,NA,NA,NA,NA,6,"2010-12-16T09:15:15",6
"PDS2014","BW","PDS2014-0042",1066,"BW","Body Weight","341.7","g","341.7",341.7,"g",NA,NA,NA,NA,NA,NA,7,"2010-12-17T08:36:40",7
"PDS2014","BW","PDS2014-0042",1067,"BW","Body Weight","343.5","g","343.5",343.5,"g",NA,NA,NA,NA,NA,NA,8,"2010-12-18T08:46:24",8
"PDS2014","BW","PDS2014-0042",1068,"BW","Body Weight","353.2","g","353.2",353.2,"g",NA,NA,NA,NA,NA,NA,9,"2010-12-19T13:30:08",9
"PDS2014","BW","PDS2014-0042",1069,"BW","Body Weight","354.1","g","354.1",354.1,"g",NA,NA,NA,NA,NA,NA,10,"2010-12-20T11:28:25",10
"PDS2014","BW","PDS2014-0042",1070,"BW","Body Weight","361.7","g","361.7",361.7,"g",NA,NA,NA,NA,NA,NA,11,"2010-12-21T08:05:47",11
"PDS2014","BW","PDS2014-0042",1071,"BW","Body Weight","358","g","358",358,"g",NA,NA,NA,NA,NA,NA,12,"2010-12-22T08:32:23",12
"PDS2014","BW","PDS2014-0042",1072,"BW","Body Weight","363.9","g","363.9",363.9,"g",NA,NA,NA,NA,NA,NA,13,"2010-12-23T08:00:46",13
"PDS2014","BW","PDS2014-0042",1073,"BW","Body Weight","367.4","g","367.4",367.4,"g",NA,NA,NA,NA,NA,NA,14,"2010-12-24T08:22:15",14
"PDS2014","BW","PDS2014-0042",1074,"BW","Body Weight","371.2","g","371.2",371.2,"g",NA,NA,NA,NA,NA,NA,15,"2010-12-25T08:23:02",15
"PDS2014","BW","PDS2014-0042",1075,"BW","Body Weight","373.8","g","373.8",373.8,"g",NA,NA,NA,NA,NA,NA,16,"2010-12-26T07:39:02",16
"PDS2014","BW","PDS2014-0042",1076,"BW","Body Weight","376.1","g","376.1",376.1,"g",NA,NA,NA,NA,NA,NA,17,"2010-12-27T10:38:52",17
"PDS2014","BW","PDS2014-0042",1077,"BW","Body Weight","379.1","g","379.1",379.1,"g",NA,NA,NA,NA,NA,NA,18,"2010-12-28T08:21:14",18
"PDS2014","BW","PDS2014-0042",1078,"BW","Body Weight","385.1","g","385.1",385.1,"g",NA,NA,NA,NA,NA,NA,19,"2010-12-29T10:02:41",19
"PDS2014","BW","PDS2014-0042",1079,"BW","Body Weight","383.7","g","383.7",383.7,"g",NA,NA,NA,NA,NA,NA,20,"2010-12-30T09:17:35",20
"PDS2014","BW","PDS2014-0042",1080,"BW","Body Weight","387.8","g","387.8",387.8,"g",NA,NA,NA,NA,NA,NA,21,"2010-12-31T09:12:21",21
"PDS2014","BW","PDS2014-0042",1081,"BW","Body Weight","390.2","g","390.2",390.2,"g",NA,NA,NA,NA,NA,NA,22,"2011-01-01T07:12:07",22
"PDS2014","BW","PDS2014-0042",1082,"BW","Body Weight","400.2","g","400.2",400.2,"g",NA,NA,NA,NA,NA,NA,23,"2011-01-02T10:43:00",23
"PDS2014","BW","PDS2014-0042",1083,"BW","Body Weight","398.6","g","398.6",398.6,"g",NA,NA,NA,NA,NA,NA,24,"2011-01-03T09:20:06",24
"PDS2014","BW","PDS2014-0042",1084,"BW","Body Weight","396.2","g","396.2",396.2,"g",NA,NA,NA,NA,NA,NA,25,"2011-01-04T08:56:04",25
"PDS2014","BW","PDS2014-0042",1085,"BW","Body Weight","401.5","g","401.5",401.5,"g",NA,NA,NA,NA,NA,NA,26,"2011-01-05T09:33:07",26
"PDS2014","BW","PDS2014-0042",1086,"BW","Body Weight","398.7","g","398.7",398.7,"g",NA,NA,NA,NA,NA,NA,27,"2011-01-06T09:25:37",27
"PDS2014","BW","PDS2014-0042",1087,"BW","Body Weight","402.9","g","402.9",402.9,"g",NA,NA,NA,NA,NA,NA,28,"2011-01-07T08:23:00",28
"PDS2014","BW","PDS2014-0042",1088,"BW","Body Weight","402.1","g","402.1",402.1,"g",NA,NA,NA,NA,NA,NA,29,"2011-01-08T08:36:09",29
"PDS2014","BW","PDS2014-0042",1089,"BW","Body Weight","376.1","g","376.1",376.1,"g",NA,NA,NA,NA,NA,NA,30,"2011-01-09T08:22:35",30
"PDS2014","BW","PDS2014-0042",1090,"TERMBW","Terminal Body Weight","376.1","g","376.1",376.1,"g",NA,NA,NA,NA,NA,NA,30,"2011-01-09T11:51:07",30
"PDS2014","BW","PDS2014-0043",1091,"BW","Body Weight","291","g","291",291,"g",NA,NA,NA,NA,NA,NA,-4,"2010-12-07T10:30:12",-4
"PDS2014","BW","PDS2014-0043",1092,"BW","Body Weight","318.9","g","318.9",318.9,"g",NA,NA,"Y",NA,NA,NA,1,"2010-12-11T10:17:10",1
"PDS2014","BW","PDS2014-0043",1093,"BW","Body Weight","316.6","g","316.6",316.6,"g",NA,NA,NA,NA,NA,NA,2,"2010-12-12T11:32:13",2
"PDS2014","BW","PDS2014-0043",1094,"BW","Body Weight","310.1","g","310.1",310.1,"g",NA,NA,NA,NA,NA,NA,3,"2010-12-13T12:36:14",3
"PDS2014","BW","PDS2014-0043",1095,"BW","Body Weight","316.4","g","316.4",316.4,"g",NA,NA,NA,NA,NA,NA,4,"2010-12-14T10:55:19",4
"PDS2014","BW","PDS2014-0043",1096,"BW","Body Weight","315.7","g","315.7",315.7,"g",NA,NA,NA,NA,NA,NA,5,"2010-12-15T09:58:21",5
"PDS2014","BW","PDS2014-0043",1097,"BW","Body Weight","313.7","g","313.7",313.7,"g",NA,NA,NA,NA,NA,NA,6,"2010-12-16T09:14:11",6
"PDS2014","BW","PDS2014-0043",1098,"BW","Body Weight","319.7","g","319.7",319.7,"g",NA,NA,NA,NA,NA,NA,7,"2010-12-17T08:36:19",7
"PDS2014","BW","PDS2014-0043",1099,"BW","Body Weight","316.6","g","316.6",316.6,"g",NA,NA,NA,NA,NA,NA,8,"2010-12-18T08:48:37",8
"PDS2014","BW","PDS2014-0043",1100,"BW","Body Weight","321.7","g","321.7",321.7,"g",NA,NA,NA,NA,NA,NA,9,"2010-12-19T13:29:42",9
"PDS2014","BW","PDS2014-0043",1101,"BW","Body Weight","323.9","g","323.9",323.9,"g",NA,NA,NA,NA,NA,NA,10,"2010-12-20T11:29:05",10
"PDS2014","BW","PDS2014-0043",1102,"BW","Body Weight","340.4","g","340.4",340.4,"g",NA,NA,NA,NA,NA,NA,11,"2010-12-21T08:05:20",11
"PDS2014","BW","PDS2014-0043",1103,"BW","Body Weight","334.5","g","334.5",334.5,"g",NA,NA,NA,NA,NA,NA,12,"2010-12-22T08:32:06",12
"PDS2014","BW","PDS2014-0043",1104,"BW","Body Weight","335.1","g","335.1",335.1,"g",NA,NA,NA,NA,NA,NA,13,"2010-12-23T08:01:05",13
"PDS2014","BW","PDS2014-0043",1105,"BW","Body Weight","335.2","g","335.2",335.2,"g",NA,NA,NA,NA,NA,NA,14,"2010-12-24T08:23:14",14
"PDS2014","BW","PDS2014-0043",1106,"BW","Body Weight","338.2","g","338.2",338.2,"g",NA,NA,NA,NA,NA,NA,15,"2010-12-25T08:25:15",15
"PDS2014","BW","PDS2014-0043",1107,"BW","Body Weight","336.1","g","336.1",336.1,"g",NA,NA,NA,NA,NA,NA,16,"2010-12-26T07:42:37",16
"PDS2014","BW","PDS2014-0043",1108,"BW","Body Weight","339.2","g","339.2",339.2,"g",NA,NA,NA,NA,NA,NA,17,"2010-12-27T10:39:53",17
"PDS2014","BW","PDS2014-0043",1109,"BW","Body Weight","338.4","g","338.4",338.4,"g",NA,NA,NA,NA,NA,NA,18,"2010-12-28T08:20:56",18
"PDS2014","BW","PDS2014-0043",1110,"BW","Body Weight","345.4","g","345.4",345.4,"g",NA,NA,NA,NA,NA,NA,19,"2010-12-29T10:01:40",19
"PDS2014","BW","PDS2014-0043",1111,"BW","Body Weight","352.8","g","352.8",352.8,"g",NA,NA,NA,NA,NA,NA,20,"2010-12-30T09:17:56",20
"PDS2014","BW","PDS2014-0043",1112,"BW","Body Weight","352.3","g","352.3",352.3,"g",NA,NA,NA,NA,NA,NA,21,"2010-12-31T09:13:21",21
"PDS2014","BW","PDS2014-0043",1113,"BW","Body Weight","362.3","g","362.3",362.3,"g",NA,NA,NA,NA,NA,NA,22,"2011-01-01T07:13:03",22
"PDS2014","BW","PDS2014-0043",1114,"BW","Body Weight","376.3","g","376.3",376.3,"g",NA,NA,NA,NA,NA,NA,23,"2011-01-02T10:42:20",23
"PDS2014","BW","PDS2014-0043",1115,"BW","Body Weight","365.6","g","365.6",365.6,"g",NA,NA,NA,NA,NA,NA,24,"2011-01-03T09:20:20",24
"PDS2014","BW","PDS2014-0043",1116,"BW","Body Weight","366.8","g","366.8",366.8,"g",NA,NA,NA,NA,NA,NA,25,"2011-01-04T08:56:25",25
"PDS2014","BW","PDS2014-0043",1117,"BW","Body Weight","368.4","g","368.4",368.4,"g",NA,NA,NA,NA,NA,NA,26,"2011-01-05T09:33:42",26
"PDS2014","BW","PDS2014-0043",1118,"BW","Body Weight","373.5","g","373.5",373.5,"g",NA,NA,NA,NA,NA,NA,27,"2011-01-06T09:25:18",27
"PDS2014","BW","PDS2014-0043",1119,"BW","Body Weight","383.6","g","383.6",383.6,"g",NA,NA,NA,NA,NA,NA,28,"2011-01-07T08:23:21",28
"PDS2014","BW","PDS2014-0043",1120,"BW","Body Weight","372.5","g","372.5",372.5,"g",NA,NA,NA,NA,NA,NA,29,"2011-01-08T08:37:02",29
"PDS2014","BW","PDS2014-0043",1121,"BW","Body Weight","348.3","g","348.3",348.3,"g",NA,NA,NA,NA,NA,NA,30,"2011-01-09T08:23:38",30
"PDS2014","BW","PDS2014-0043",1122,"TERMBW","Terminal Body Weight","348.3","g","348.3",348.3,"g",NA,NA,NA,NA,NA,NA,30,"2011-01-09T14:28:24",30
"PDS2014","BW","PDS2014-0044",1123,"BW","Body Weight","297.8","g","297.8",297.8,"g",NA,NA,NA,NA,NA,NA,-4,"2010-12-07T10:41:22",-4
"PDS2014","BW","PDS2014-0044",1124,"BW","Body Weight","325.2","g","325.2",325.2,"g",NA,NA,"Y",NA,NA,NA,1,"2010-12-11T10:17:34",1
"PDS2014","BW","PDS2014-0044",1125,"BW","Body Weight","318.9","g","318.9",318.9,"g",NA,NA,NA,NA,NA,NA,2,"2010-12-12T11:31:46",2
"PDS2014","BW","PDS2014-0044",1126,"BW","Body Weight","318.1","g","318.1",318.1,"g",NA,NA,NA,NA,NA,NA,3,"2010-12-13T12:36:35",3
"PDS2014","BW","PDS2014-0044",1127,"BW","Body Weight","323.1","g","323.1",323.1,"g",NA,NA,NA,NA,NA,NA,4,"2010-12-14T10:55:42",4
"PDS2014","BW","PDS2014-0044",1128,"BW","Body Weight","336.3","g","336.3",336.3,"g",NA,NA,NA,NA,NA,NA,5,"2010-12-15T09:58:56",5
"PDS2014","BW","PDS2014-0044",1129,"BW","Body Weight","355.1","g","355.1",355.1,"g",NA,NA,NA,NA,NA,NA,6,"2010-12-16T09:15:00",6
"PDS2014","BW","PDS2014-0044",1130,"BW","Body Weight","356.1","g","356.1",356.1,"g",NA,NA,NA,NA,NA,NA,7,"2010-12-17T08:36:59",7
"PDS2014","BW","PDS2014-0044",1131,"BW","Body Weight","351.8","g","351.8",351.8,"g",NA,NA,NA,NA,NA,NA,8,"2010-12-18T08:49:03",8
"PDS2014","BW","PDS2014-0044",1132,"BW","Body Weight","361","g","361",361,"g",NA,NA,NA,NA,NA,NA,9,"2010-12-19T13:29:16",9
"PDS2014","BW","PDS2014-0044",1133,"BW","Body Weight","364.6","g","364.6",364.6,"g",NA,NA,NA,NA,NA,NA,10,"2010-12-20T11:29:23",10
"PDS2014","BW","PDS2014-0044",1134,"BW","Body Weight","375.5","g","375.5",375.5,"g",NA,NA,NA,NA,NA,NA,11,"2010-12-21T08:06:09",11
"PDS2014","BW","PDS2014-0044",1135,"BW","Body Weight","370.3","g","370.3",370.3,"g",NA,NA,NA,NA,NA,NA,12,"2010-12-22T08:32:38",12
"PDS2014","BW","PDS2014-0044",1136,"BW","Body Weight","375","g","375",375,"g",NA,NA,NA,NA,NA,NA,13,"2010-12-23T08:00:11",13
"PDS2014","BW","PDS2014-0044",1137,"BW","Body Weight","382.7","g","382.7",382.7,"g",NA,NA,NA,NA,NA,NA,14,"2010-12-24T08:23:34",14
"PDS2014","BW","PDS2014-0044",1138,"BW","Body Weight","388","g","388",388,"g",NA,NA,NA,NA,NA,NA,15,"2010-12-25T08:25:36",15
"PDS2014","BW","PDS2014-0044",1139,"BW","Body Weight","391.8","g","391.8",391.8,"g",NA,NA,NA,NA,NA,NA,16,"2010-12-26T07:38:26",16
"PDS2014","BW","PDS2014-0044",1140,"BW","Body Weight","400.2","g","400.2",400.2,"g",NA,NA,NA,NA,NA,NA,17,"2010-12-27T10:40:19",17
"PDS2014","BW","PDS2014-0044",1141,"BW","Body Weight","398.3","g","398.3",398.3,"g",NA,NA,NA,NA,NA,NA,18,"2010-12-28T08:20:40",18
"PDS2014","BW","PDS2014-0044",1142,"BW","Body Weight","406.1","g","406.1",406.1,"g",NA,NA,NA,NA,NA,NA,19,"2010-12-29T10:03:06",19
"PDS2014","BW","PDS2014-0044",1143,"BW","Body Weight","401.8","g","401.8",401.8,"g",NA,NA,NA,NA,NA,NA,20,"2010-12-30T09:18:41",20
"PDS2014","BW","PDS2014-0044",1144,"BW","Body Weight","410.5","g","410.5",410.5,"g",NA,NA,NA,NA,NA,NA,21,"2010-12-31T09:13:43",21
"PDS2014","BW","PDS2014-0044",1145,"BW","Body Weight","417.7","g","417.7",417.7,"g",NA,NA,NA,NA,NA,NA,22,"2011-01-01T07:13:49",22
"PDS2014","BW","PDS2014-0044",1146,"BW","Body Weight","420.3","g","420.3",420.3,"g",NA,NA,NA,NA,NA,NA,23,"2011-01-02T10:43:41",23
"PDS2014","BW","PDS2014-0044",1147,"BW","Body Weight","416.9","g","416.9",416.9,"g",NA,NA,NA,NA,NA,NA,24,"2011-01-03T09:20:51",24
"PDS2014","BW","PDS2014-0044",1148,"BW","Body Weight","422.2","g","422.2",422.2,"g",NA,NA,NA,NA,NA,NA,25,"2011-01-04T08:56:45",25
"PDS2014","BW","PDS2014-0044",1149,"BW","Body Weight","422","g","422",422,"g",NA,NA,NA,NA,NA,NA,26,"2011-01-05T09:33:24",26
"PDS2014","BW","PDS2014-0044",1150,"BW","Body Weight","425.2","g","425.2",425.2,"g",NA,NA,NA,NA,NA,NA,27,"2011-01-06T09:26:34",27
"PDS2014","BW","PDS2014-0044",1151,"BW","Body Weight","429","g","429",429,"g",NA,NA,NA,NA,NA,NA,28,"2011-01-07T08:23:42",28
"PDS2014","BW","PDS2014-0044",1152,"BW","Body Weight","431.6","g","431.6",431.6,"g",NA,NA,NA,NA,NA,NA,29,"2011-01-08T08:36:38",29
"PDS2014","BW","PDS2014-0044",1153,"BW","Body Weight","401.5","g","401.5",401.5,"g",NA,NA,NA,NA,NA,NA,30,"2011-01-09T08:25:34",30
"PDS2014","BW","PDS2014-0044",1154,"TERMBW","Terminal Body Weight","401.5","g","401.5",401.5,"g",NA,NA,NA,NA,NA,NA,30,"2011-01-09T11:30:16",30
"PDS2014","BW","PDS2014-0045",1155,"BW","Body Weight","282.8","g","282.8",282.8,"g",NA,NA,NA,NA,NA,NA,-4,"2010-12-07T10:40:27",-4
"PDS2014","BW","PDS2014-0045",1156,"BW","Body Weight","313.2","g","313.2",313.2,"g",NA,NA,"Y",NA,NA,NA,1,"2010-12-11T10:16:47",1
"PDS2014","BW","PDS2014-0045",1157,"BW","Body Weight","308.6","g","308.6",308.6,"g",NA,NA,NA,NA,NA,NA,2,"2010-12-12T11:33:04",2
"PDS2014","BW","PDS2014-0045",1158,"BW","Body Weight","310.8","g","310.8",310.8,"g",NA,NA,NA,NA,NA,NA,3,"2010-12-13T12:36:54",3
"PDS2014","BW","PDS2014-0045",1159,"BW","Body Weight","315.2","g","315.2",315.2,"g",NA,NA,NA,NA,NA,NA,4,"2010-12-14T10:56:05",4
"PDS2014","BW","PDS2014-0045",1160,"BW","Body Weight","319.8","g","319.8",319.8,"g",NA,NA,NA,NA,NA,NA,5,"2010-12-15T09:57:57",5
"PDS2014","BW","PDS2014-0045",1161,"BW","Body Weight","327.5","g","327.5",327.5,"g",NA,NA,NA,NA,NA,NA,6,"2010-12-16T09:14:47",6
"PDS2014","BW","PDS2014-0045",1162,"BW","Body Weight","335.6","g","335.6",335.6,"g",NA,NA,NA,NA,NA,NA,7,"2010-12-17T08:34:16",7
"PDS2014","BW","PDS2014-0045",1163,"BW","Body Weight","336.5","g","336.5",336.5,"g",NA,NA,NA,NA,NA,NA,8,"2010-12-18T08:48:08",8
"PDS2014","BW","PDS2014-0045",1164,"BW","Body Weight","340.7","g","340.7",340.7,"g",NA,NA,NA,NA,NA,NA,9,"2010-12-19T13:30:53",9
"PDS2014","BW","PDS2014-0045",1165,"BW","Body Weight","346.9","g","346.9",346.9,"g",NA,NA,NA,NA,NA,NA,10,"2010-12-20T11:28:44",10
"PDS2014","BW","PDS2014-0045",1166,"BW","Body Weight","358.5","g","358.5",358.5,"g",NA,NA,NA,NA,NA,NA,11,"2010-12-21T08:06:30",11
"PDS2014","BW","PDS2014-0045",1167,"BW","Body Weight","352.3","g","352.3",352.3,"g",NA,NA,NA,NA,NA,NA,12,"2010-12-22T08:32:59",12
"PDS2014","BW","PDS2014-0045",1168,"BW","Body Weight","360.5","g","360.5",360.5,"g",NA,NA,NA,NA,NA,NA,13,"2010-12-23T08:01:28",13
"PDS2014","BW","PDS2014-0045",1169,"BW","Body Weight","359.8","g","359.8",359.8,"g",NA,NA,NA,NA,NA,NA,14,"2010-12-24T08:22:54",14
"PDS2014","BW","PDS2014-0045",1170,"BW","Body Weight","361.9","g","361.9",361.9,"g",NA,NA,NA,NA,NA,NA,15,"2010-12-25T08:24:55",15
"PDS2014","BW","PDS2014-0045",1171,"BW","Body Weight","369.2","g","369.2",369.2,"g",NA,NA,NA,NA,NA,NA,16,"2010-12-26T07:38:06",16
"PDS2014","BW","PDS2014-0045",1172,"BW","Body Weight","367.8","g","367.8",367.8,"g",NA,NA,NA,NA,NA,NA,17,"2010-12-27T10:39:14",17
"PDS2014","BW","PDS2014-0045",1173,"BW","Body Weight","375","g","375",375,"g",NA,NA,NA,NA,NA,NA,18,"2010-12-28T08:21:33",18
"PDS2014","BW","PDS2014-0045",1174,"BW","Body Weight","370.3","g","370.3",370.3,"g",NA,NA,NA,NA,NA,NA,19,"2010-12-29T10:02:21",19
"PDS2014","BW","PDS2014-0045",1175,"BW","Body Weight","372.7","g","372.7",372.7,"g",NA,NA,NA,NA,NA,NA,20,"2010-12-30T09:19:08",20
"PDS2014","BW","PDS2014-0045",1176,"BW","Body Weight","378","g","378",378,"g",NA,NA,NA,NA,NA,NA,21,"2010-12-31T09:14:18",21
"PDS2014","BW","PDS2014-0045",1177,"BW","Body Weight","387.1","g","387.1",387.1,"g",NA,NA,NA,NA,NA,NA,22,"2011-01-01T07:13:26",22
"PDS2014","BW","PDS2014-0045",1178,"BW","Body Weight","382.8","g","382.8",382.8,"g",NA,NA,NA,NA,NA,NA,23,"2011-01-02T10:42:41",23
"PDS2014","BW","PDS2014-0045",1179,"BW","Body Weight","379.6","g","379.6",379.6,"g",NA,NA,NA,NA,NA,NA,24,"2011-01-03T09:21:28",24
"PDS2014","BW","PDS2014-0045",1180,"BW","Body Weight","383.9","g","383.9",383.9,"g",NA,NA,NA,NA,NA,NA,25,"2011-01-04T08:55:39",25
"PDS2014","BW","PDS2014-0045",1181,"BW","Body Weight","382.7","g","382.7",382.7,"g",NA,NA,NA,NA,NA,NA,26,"2011-01-05T09:32:37",26
"PDS2014","BW","PDS2014-0045",1182,"BW","Body Weight","388.7","g","388.7",388.7,"g",NA,NA,NA,NA,NA,NA,27,"2011-01-06T09:25:56",27
"PDS2014","BW","PDS2014-0045",1183,"BW","Body Weight","387","g","387",387,"g",NA,NA,NA,NA,NA,NA,28,"2011-01-07T08:24:07",28
"PDS2014","BW","PDS2014-0045",1184,"BW","Body Weight","385.4","g","385.4",385.4,"g",NA,NA,NA,NA,NA,NA,29,"2011-01-08T08:37:47",29
"PDS2014","BW","PDS2014-0045",1185,"BW","Body Weight","360.9","g","360.9",360.9,"g",NA,NA,NA,NA,NA,NA,30,"2011-01-09T08:26:38",30
"PDS2014","BW","PDS2014-0045",1186,"TERMBW","Terminal Body Weight","360.9","g","360.9",360.9,"g",NA,NA,NA,NA,NA,NA,30,"2011-01-09T14:42:39",30
"PDS2014","BW","PDS2014-0046",1187,"BW","Body Weight","279.2","g","279.2",279.2,"g",NA,NA,NA,NA,NA,NA,-4,"2010-12-07T10:35:39",-4
"PDS2014","BW","PDS2014-0046",1188,"BW","Body Weight","311.8","g","311.8",311.8,"g",NA,NA,"Y",NA,NA,NA,1,"2010-12-11T10:18:26",1
"PDS2014","BW","PDS2014-0046",1189,"BW","Body Weight","308.5","g","308.5",308.5,"g",NA,NA,NA,NA,NA,NA,2,"2010-12-12T11:35:00",2
"PDS2014","BW","PDS2014-0046",1190,"BW","Body Weight","309.4","g","309.4",309.4,"g",NA,NA,NA,NA,NA,NA,3,"2010-12-13T12:38:07",3
"PDS2014","BW","PDS2014-0046",1191,"BW","Body Weight","319","g","319",319,"g",NA,NA,NA,NA,NA,NA,4,"2010-12-14T10:56:33",4
"PDS2014","BW","PDS2014-0046",1192,"BW","Body Weight","328.3","g","328.3",328.3,"g",NA,NA,NA,NA,NA,NA,5,"2010-12-15T09:59:53",5
"PDS2014","BW","PDS2014-0046",1193,"BW","Body Weight","334.9","g","334.9",334.9,"g",NA,NA,NA,NA,NA,NA,6,"2010-12-16T09:15:46",6
"PDS2014","BW","PDS2014-0046",1194,"BW","Body Weight","342.2","g","342.2",342.2,"g",NA,NA,NA,NA,NA,NA,7,"2010-12-17T08:38:41",7
"PDS2014","BW","PDS2014-0046",1195,"BW","Body Weight","344.7","g","344.7",344.7,"g",NA,NA,NA,NA,NA,NA,8,"2010-12-18T08:49:38",8
"PDS2014","BW","PDS2014-0046",1196,"BW","Body Weight","352.9","g","352.9",352.9,"g",NA,NA,NA,NA,NA,NA,9,"2010-12-19T13:32:34",9
"PDS2014","BW","PDS2014-0046",1197,"BW","Body Weight","360.6","g","360.6",360.6,"g",NA,NA,NA,NA,NA,NA,10,"2010-12-20T11:29:53",10
"PDS2014","BW","PDS2014-0046",1198,"BW","Body Weight","365.6","g","365.6",365.6,"g",NA,NA,NA,NA,NA,NA,11,"2010-12-21T08:07:01",11
"PDS2014","BW","PDS2014-0046",1199,"BW","Body Weight","370.4","g","370.4",370.4,"g",NA,NA,NA,NA,NA,NA,12,"2010-12-22T08:33:20",12
"PDS2014","BW","PDS2014-0046",1200,"BW","Body Weight","376","g","376",376,"g",NA,NA,NA,NA,NA,NA,13,"2010-12-23T08:02:30",13
"PDS2014","BW","PDS2014-0046",1201,"BW","Body Weight","381.1","g","381.1",381.1,"g",NA,NA,NA,NA,NA,NA,14,"2010-12-24T08:24:18",14
"PDS2014","BW","PDS2014-0046",1202,"BW","Body Weight","388.3","g","388.3",388.3,"g",NA,NA,NA,NA,NA,NA,15,"2010-12-25T08:26:23",15
"PDS2014","BW","PDS2014-0046",1203,"BW","Body Weight","389.9","g","389.9",389.9,"g",NA,NA,NA,NA,NA,NA,16,"2010-12-26T07:44:12",16
"PDS2014","BW","PDS2014-0046",1204,"BW","Body Weight","400.8","g","400.8",400.8,"g",NA,NA,NA,NA,NA,NA,17,"2010-12-27T10:41:02",17
"PDS2014","BW","PDS2014-0046",1205,"BW","Body Weight","400.9","g","400.9",400.9,"g",NA,NA,NA,NA,NA,NA,18,"2010-12-28T08:22:29",18
"PDS2014","BW","PDS2014-0046",1206,"BW","Body Weight","405.7","g","405.7",405.7,"g",NA,NA,NA,NA,NA,NA,19,"2010-12-29T10:03:54",19
"PDS2014","BW","PDS2014-0046",1207,"BW","Body Weight","410.4","g","410.4",410.4,"g",NA,NA,NA,NA,NA,NA,20,"2010-12-30T09:20:01",20
"PDS2014","BW","PDS2014-0046",1208,"BW","Body Weight","410.7","g","410.7",410.7,"g",NA,NA,NA,NA,NA,NA,21,"2010-12-31T09:15:44",21
"PDS2014","BW","PDS2014-0046",1209,"BW","Body Weight","416.6","g","416.6",416.6,"g",NA,NA,NA,NA,NA,NA,22,"2011-01-01T07:15:08",22
"PDS2014","BW","PDS2014-0046",1210,"BW","Body Weight","419.1","g","419.1",419.1,"g",NA,NA,NA,NA,NA,NA,23,"2011-01-02T10:44:29",23
"PDS2014","BW","PDS2014-0046",1211,"BW","Body Weight","419.2","g","419.2",419.2,"g",NA,NA,NA,NA,NA,NA,24,"2011-01-03T09:22:14",24
"PDS2014","BW","PDS2014-0046",1212,"BW","Body Weight","421.8","g","421.8",421.8,"g",NA,NA,NA,NA,NA,NA,25,"2011-01-04T08:57:43",25
"PDS2014","BW","PDS2014-0046",1213,"BW","Body Weight","426.9","g","426.9",426.9,"g",NA,NA,NA,NA,NA,NA,26,"2011-01-05T09:35:46",26
"PDS2014","BW","PDS2014-0046",1214,"BW","Body Weight","429.5","g","429.5",429.5,"g",NA,NA,NA,NA,NA,NA,27,"2011-01-06T09:27:44",27
"PDS2014","BW","PDS2014-0046",1215,"BW","Body Weight","429.4","g","429.4",429.4,"g",NA,NA,NA,NA,NA,NA,28,"2011-01-07T08:25:39",28
"PDS2014","BW","PDS2014-0046",1216,"BW","Body Weight","433.4","g","433.4",433.4,"g",NA,NA,NA,NA,NA,NA,29,"2011-01-08T08:38:48",29
"PDS2014","BW","PDS2014-0046",1217,"BW","Body Weight","432.1","g","432.1",432.1,"g",NA,NA,NA,NA,NA,NA,30,"2011-01-09T11:20:12",30
"PDS2014","BW","PDS2014-0046",1218,"BW","Body Weight","398.8","g","398.8",398.8,"g",NA,NA,NA,NA,NA,NA,31,"2011-01-10T08:32:20",31
"PDS2014","BW","PDS2014-0046",1219,"TERMBW","Terminal Body Weight","398.8","g","398.8",398.8,"g",NA,NA,NA,NA,NA,NA,31,"2011-01-10T10:42:05",31
"PDS2014","BW","PDS2014-0047",1220,"BW","Body Weight","291.2","g","291.2",291.2,"g",NA,NA,NA,NA,NA,NA,-4,"2010-12-07T10:31:21",-4
"PDS2014","BW","PDS2014-0047",1221,"BW","Body Weight","324.3","g","324.3",324.3,"g",NA,NA,"Y",NA,NA,NA,1,"2010-12-11T10:20:07",1
"PDS2014","BW","PDS2014-0047",1222,"BW","Body Weight","316.5","g","316.5",316.5,"g",NA,NA,NA,NA,NA,NA,2,"2010-12-12T11:35:44",2
"PDS2014","BW","PDS2014-0047",1223,"BW","Body Weight","322.5","g","322.5",322.5,"g",NA,NA,NA,NA,NA,NA,3,"2010-12-13T12:38:44",3
"PDS2014","BW","PDS2014-0047",1224,"BW","Body Weight","328.8","g","328.8",328.8,"g",NA,NA,NA,NA,NA,NA,4,"2010-12-14T10:57:16",4
"PDS2014","BW","PDS2014-0047",1225,"BW","Body Weight","334.9","g","334.9",334.9,"g",NA,NA,NA,NA,NA,NA,5,"2010-12-15T09:59:27",5
"PDS2014","BW","PDS2014-0047",1226,"BW","Body Weight","337.9","g","337.9",337.9,"g",NA,NA,NA,NA,NA,NA,6,"2010-12-16T09:15:33",6
"PDS2014","BW","PDS2014-0047",1227,"BW","Body Weight","343.1","g","343.1",343.1,"g",NA,NA,NA,NA,NA,NA,7,"2010-12-17T08:38:21",7
"PDS2014","BW","PDS2014-0047",1228,"BW","Body Weight","345.9","g","345.9",345.9,"g",NA,NA,NA,NA,NA,NA,8,"2010-12-18T08:50:53",8
"PDS2014","BW","PDS2014-0047",1229,"BW","Body Weight","357.2","g","357.2",357.2,"g",NA,NA,NA,NA,NA,NA,9,"2010-12-19T13:31:32",9
"PDS2014","BW","PDS2014-0047",1230,"BW","Body Weight","356.9","g","356.9",356.9,"g",NA,NA,NA,NA,NA,NA,10,"2010-12-20T11:31:08",10
"PDS2014","BW","PDS2014-0047",1231,"BW","Body Weight","365.2","g","365.2",365.2,"g",NA,NA,NA,NA,NA,NA,11,"2010-12-21T08:07:23",11
"PDS2014","BW","PDS2014-0047",1232,"BW","Body Weight","366","g","366",366,"g",NA,NA,NA,NA,NA,NA,12,"2010-12-22T08:34:15",12
"PDS2014","BW","PDS2014-0047",1233,"BW","Body Weight","374.5","g","374.5",374.5,"g",NA,NA,NA,NA,NA,NA,13,"2010-12-23T08:03:07",13
"PDS2014","BW","PDS2014-0047",1234,"BW","Body Weight","372.8","g","372.8",372.8,"g",NA,NA,NA,NA,NA,NA,14,"2010-12-24T08:24:55",14
"PDS2014","BW","PDS2014-0047",1235,"BW","Body Weight","376.7","g","376.7",376.7,"g",NA,NA,NA,NA,NA,NA,15,"2010-12-25T08:26:58",15
"PDS2014","BW","PDS2014-0047",1236,"BW","Body Weight","384.8","g","384.8",384.8,"g",NA,NA,NA,NA,NA,NA,16,"2010-12-26T07:43:30",16
"PDS2014","BW","PDS2014-0047",1237,"BW","Body Weight","390.5","g","390.5",390.5,"g",NA,NA,NA,NA,NA,NA,17,"2010-12-27T10:41:19",17
"PDS2014","BW","PDS2014-0047",1238,"BW","Body Weight","387","g","387",387,"g",NA,NA,NA,NA,NA,NA,18,"2010-12-28T08:22:46",18
"PDS2014","BW","PDS2014-0047",1239,"BW","Body Weight","390.8","g","390.8",390.8,"g",NA,NA,NA,NA,NA,NA,19,"2010-12-29T10:04:24",19
"PDS2014","BW","PDS2014-0047",1240,"BW","Body Weight","394.1","g","394.1",394.1,"g",NA,NA,NA,NA,NA,NA,20,"2010-12-30T09:20:22",20
"PDS2014","BW","PDS2014-0047",1241,"BW","Body Weight","398.8","g","398.8",398.8,"g",NA,NA,NA,NA,NA,NA,21,"2010-12-31T09:15:24",21
"PDS2014","BW","PDS2014-0047",1242,"BW","Body Weight","402.8","g","402.8",402.8,"g",NA,NA,NA,NA,NA,NA,22,"2011-01-01T07:15:42",22
"PDS2014","BW","PDS2014-0047",1243,"BW","Body Weight","411.7","g","411.7",411.7,"g",NA,NA,NA,NA,NA,NA,23,"2011-01-02T10:44:06",23
"PDS2014","BW","PDS2014-0047",1244,"BW","Body Weight","413.6","g","413.6",413.6,"g",NA,NA,NA,NA,NA,NA,24,"2011-01-03T09:21:52",24
"PDS2014","BW","PDS2014-0047",1245,"BW","Body Weight","412.8","g","412.8",412.8,"g",NA,NA,NA,NA,NA,NA,25,"2011-01-04T08:58:14",25
"PDS2014","BW","PDS2014-0047",1246,"BW","Body Weight","416.7","g","416.7",416.7,"g",NA,NA,NA,NA,NA,NA,26,"2011-01-05T09:35:23",26
"PDS2014","BW","PDS2014-0047",1247,"BW","Body Weight","419.8","g","419.8",419.8,"g",NA,NA,NA,NA,NA,NA,27,"2011-01-06T09:27:00",27
"PDS2014","BW","PDS2014-0047",1248,"BW","Body Weight","426.4","g","426.4",426.4,"g",NA,NA,NA,NA,NA,NA,28,"2011-01-07T08:25:18",28
"PDS2014","BW","PDS2014-0047",1249,"BW","Body Weight","428.8","g","428.8",428.8,"g",NA,NA,NA,NA,NA,NA,29,"2011-01-08T08:39:07",29
"PDS2014","BW","PDS2014-0047",1250,"BW","Body Weight","433.8","g","433.8",433.8,"g",NA,NA,NA,NA,NA,NA,30,"2011-01-09T11:20:42",30
"PDS2014","BW","PDS2014-0047",1251,"BW","Body Weight","402.7","g","402.7",402.7,"g",NA,NA,NA,NA,NA,NA,31,"2011-01-10T08:33:46",31
"PDS2014","BW","PDS2014-0047",1252,"TERMBW","Terminal Body Weight","402.7","g","402.7",402.7,"g",NA,NA,NA,NA,NA,NA,31,"2011-01-10T13:59:24",31
"PDS2014","BW","PDS2014-0048",1253,"BW","Body Weight","273.4","g","273.4",273.4,"g",NA,NA,NA,NA,NA,NA,-4,"2010-12-07T10:41:09",-4
"PDS2014","BW","PDS2014-0048",1254,"BW","Body Weight","302.3","g","302.3",302.3,"g",NA,NA,"Y",NA,NA,NA,1,"2010-12-11T10:19:43",1
"PDS2014","BW","PDS2014-0048",1255,"BW","Body Weight","299.4","g","299.4",299.4,"g",NA,NA,NA,NA,NA,NA,2,"2010-12-12T11:35:25",2
"PDS2014","BW","PDS2014-0048",1256,"BW","Body Weight","287","g","287",287,"g",NA,NA,NA,NA,NA,NA,3,"2010-12-13T12:39:06",3
"PDS2014","BW","PDS2014-0048",1257,"BW","Body Weight","303.2","g","303.2",303.2,"g",NA,NA,NA,NA,NA,NA,4,"2010-12-14T10:58:08",4
"PDS2014","BW","PDS2014-0048",1258,"BW","Body Weight","302.8","g","302.8",302.8,"g",NA,NA,NA,NA,NA,NA,5,"2010-12-15T09:59:40",5
"PDS2014","BW","PDS2014-0048",1259,"BW","Body Weight","314.3","g","314.3",314.3,"g",NA,NA,NA,NA,NA,NA,6,"2010-12-16T09:16:03",6
"PDS2014","BW","PDS2014-0048",1260,"BW","Body Weight","316.3","g","316.3",316.3,"g",NA,NA,NA,NA,NA,NA,7,"2010-12-17T08:39:03",7
"PDS2014","BW","PDS2014-0048",1261,"BW","Body Weight","301.3","g","301.3",301.3,"g",NA,NA,NA,NA,NA,NA,8,"2010-12-18T08:51:21",8
"PDS2014","BW","PDS2014-0048",1262,"BW","Body Weight","318.9","g","318.9",318.9,"g",NA,NA,NA,NA,NA,NA,9,"2010-12-19T13:33:02",9
"PDS2014","BW","PDS2014-0048",1263,"BW","Body Weight","320.5","g","320.5",320.5,"g",NA,NA,NA,NA,NA,NA,10,"2010-12-20T11:30:11",10
"PDS2014","BW","PDS2014-0048",1264,"BW","Body Weight","332.9","g","332.9",332.9,"g",NA,NA,NA,NA,NA,NA,11,"2010-12-21T08:08:14",11
"PDS2014","BW","PDS2014-0048",1265,"BW","Body Weight","333.3","g","333.3",333.3,"g",NA,NA,NA,NA,NA,NA,12,"2010-12-22T08:34:31",12
"PDS2014","BW","PDS2014-0048",1266,"BW","Body Weight","340.6","g","340.6",340.6,"g",NA,NA,NA,NA,NA,NA,13,"2010-12-23T08:02:48",13
"PDS2014","BW","PDS2014-0048",1267,"BW","Body Weight","345.8","g","345.8",345.8,"g",NA,NA,NA,NA,NA,NA,14,"2010-12-24T08:25:14",14
"PDS2014","BW","PDS2014-0048",1268,"BW","Body Weight","346.1","g","346.1",346.1,"g",NA,NA,NA,NA,NA,NA,15,"2010-12-25T08:27:15",15
"PDS2014","BW","PDS2014-0048",1269,"BW","Body Weight","343.7","g","343.7",343.7,"g",NA,NA,NA,NA,NA,NA,16,"2010-12-26T07:43:51",16
"PDS2014","BW","PDS2014-0048",1270,"BW","Body Weight","354.4","g","354.4",354.4,"g",NA,NA,NA,NA,NA,NA,17,"2010-12-27T10:41:36",17
"PDS2014","BW","PDS2014-0048",1271,"BW","Body Weight","352.5","g","352.5",352.5,"g",NA,NA,NA,NA,NA,NA,18,"2010-12-28T08:23:21",18
"PDS2014","BW","PDS2014-0048",1272,"BW","Body Weight","360.1","g","360.1",360.1,"g",NA,NA,NA,NA,NA,NA,19,"2010-12-29T10:05:09",19
"PDS2014","BW","PDS2014-0048",1273,"BW","Body Weight","368","g","368",368,"g",NA,NA,NA,NA,NA,NA,20,"2010-12-30T09:20:44",20
"PDS2014","BW","PDS2014-0048",1274,"BW","Body Weight","371","g","371",371,"g",NA,NA,NA,NA,NA,NA,21,"2010-12-31T09:15:09",21
"PDS2014","BW","PDS2014-0048",1275,"BW","Body Weight","377.6","g","377.6",377.6,"g",NA,NA,NA,NA,NA,NA,22,"2011-01-01T07:16:46",22
"PDS2014","BW","PDS2014-0048",1276,"BW","Body Weight","383.2","g","383.2",383.2,"g",NA,NA,NA,NA,NA,NA,23,"2011-01-02T10:45:26",23
"PDS2014","BW","PDS2014-0048",1277,"BW","Body Weight","380.5","g","380.5",380.5,"g",NA,NA,NA,NA,NA,NA,24,"2011-01-03T09:23:03",24
"PDS2014","BW","PDS2014-0048",1278,"BW","Body Weight","379","g","379",379,"g",NA,NA,NA,NA,NA,NA,25,"2011-01-04T08:59:39",25
"PDS2014","BW","PDS2014-0048",1279,"BW","Body Weight","383.2","g","383.2",383.2,"g",NA,NA,NA,NA,NA,NA,26,"2011-01-05T09:36:05",26
"PDS2014","BW","PDS2014-0048",1280,"BW","Body Weight","391.1","g","391.1",391.1,"g",NA,NA,NA,NA,NA,NA,27,"2011-01-06T09:28:25",27
"PDS2014","BW","PDS2014-0048",1281,"BW","Body Weight","390.5","g","390.5",390.5,"g",NA,NA,NA,NA,NA,NA,28,"2011-01-07T08:26:02",28
"PDS2014","BW","PDS2014-0048",1282,"BW","Body Weight","393.7","g","393.7",393.7,"g",NA,NA,NA,NA,NA,NA,29,"2011-01-08T08:39:54",29
"PDS2014","BW","PDS2014-0048",1283,"BW","Body Weight","400.9","g","400.9",400.9,"g",NA,NA,NA,NA,NA,NA,30,"2011-01-09T11:21:14",30
"PDS2014","BW","PDS2014-0048",1284,"BW","Body Weight","364.6","g","364.6",364.6,"g",NA,NA,NA,NA,NA,NA,31,"2011-01-10T08:34:30",31
"PDS2014","BW","PDS2014-0048",1285,"TERMBW","Terminal Body Weight","364.6","g","364.6",364.6,"g",NA,NA,NA,NA,NA,NA,31,"2011-01-10T10:44:27",31
"PDS2014","BW","PDS2014-0049",1286,"BW","Body Weight","272.2","g","272.2",272.2,"g",NA,NA,NA,NA,NA,NA,-4,"2010-12-07T10:33:17",-4
"PDS2014","BW","PDS2014-0049",1287,"BW","Body Weight","303.6","g","303.6",303.6,"g",NA,NA,"Y",NA,NA,NA,1,"2010-12-11T10:19:17",1
"PDS2014","BW","PDS2014-0049",1288,"BW","Body Weight","301","g","301",301,"g",NA,NA,NA,NA,NA,NA,2,"2010-12-12T11:34:11",2
"PDS2014","BW","PDS2014-0049",1289,"BW","Body Weight","302.5","g","302.5",302.5,"g",NA,NA,NA,NA,NA,NA,3,"2010-12-13T12:39:27",3
"PDS2014","BW","PDS2014-0049",1290,"BW","Body Weight","304","g","304",304,"g",NA,NA,NA,NA,NA,NA,4,"2010-12-14T10:57:38",4
"PDS2014","BW","PDS2014-0049",1291,"BW","Body Weight","309.2","g","309.2",309.2,"g",NA,NA,NA,NA,NA,NA,5,"2010-12-15T10:00:07",5
"PDS2014","BW","PDS2014-0049",1292,"BW","Body Weight","313","g","313",313,"g",NA,NA,NA,NA,NA,NA,6,"2010-12-16T09:16:16",6
"PDS2014","BW","PDS2014-0049",1293,"BW","Body Weight","315.4","g","315.4",315.4,"g",NA,NA,NA,NA,NA,NA,7,"2010-12-17T08:37:59",7
"PDS2014","BW","PDS2014-0049",1294,"BW","Body Weight","319.3","g","319.3",319.3,"g",NA,NA,NA,NA,NA,NA,8,"2010-12-18T08:50:23",8
"PDS2014","BW","PDS2014-0049",1295,"BW","Body Weight","324.4","g","324.4",324.4,"g",NA,NA,NA,NA,NA,NA,9,"2010-12-19T13:31:53",9
"PDS2014","BW","PDS2014-0049",1296,"BW","Body Weight","328.7","g","328.7",328.7,"g",NA,NA,NA,NA,NA,NA,10,"2010-12-20T11:30:29",10
"PDS2014","BW","PDS2014-0049",1297,"BW","Body Weight","333.9","g","333.9",333.9,"g",NA,NA,NA,NA,NA,NA,11,"2010-12-21T08:08:38",11
"PDS2014","BW","PDS2014-0049",1298,"BW","Body Weight","337.1","g","337.1",337.1,"g",NA,NA,NA,NA,NA,NA,12,"2010-12-22T08:33:58",12
"PDS2014","BW","PDS2014-0049",1299,"BW","Body Weight","340.8","g","340.8",340.8,"g",NA,NA,NA,NA,NA,NA,13,"2010-12-23T08:01:53",13
"PDS2014","BW","PDS2014-0049",1300,"BW","Body Weight","343.1","g","343.1",343.1,"g",NA,NA,NA,NA,NA,NA,14,"2010-12-24T08:24:36",14
"PDS2014","BW","PDS2014-0049",1301,"BW","Body Weight","347.6","g","347.6",347.6,"g",NA,NA,NA,NA,NA,NA,15,"2010-12-25T08:27:31",15
"PDS2014","BW","PDS2014-0049",1302,"BW","Body Weight","350.3","g","350.3",350.3,"g",NA,NA,NA,NA,NA,NA,16,"2010-12-26T07:44:33",16
"PDS2014","BW","PDS2014-0049",1303,"BW","Body Weight","352.6","g","352.6",352.6,"g",NA,NA,NA,NA,NA,NA,17,"2010-12-27T10:41:53",17
"PDS2014","BW","PDS2014-0049",1304,"BW","Body Weight","350.3","g","350.3",350.3,"g",NA,NA,NA,NA,NA,NA,18,"2010-12-28T08:23:02",18
"PDS2014","BW","PDS2014-0049",1305,"BW","Body Weight","357.9","g","357.9",357.9,"g",NA,NA,NA,NA,NA,NA,19,"2010-12-29T10:04:46",19
"PDS2014","BW","PDS2014-0049",1306,"BW","Body Weight","368.1","g","368.1",368.1,"g",NA,NA,NA,NA,NA,NA,20,"2010-12-30T09:21:15",20
"PDS2014","BW","PDS2014-0049",1307,"BW","Body Weight","368.3","g","368.3",368.3,"g",NA,NA,NA,NA,NA,NA,21,"2010-12-31T09:16:01",21
"PDS2014","BW","PDS2014-0049",1308,"BW","Body Weight","369.3","g","369.3",369.3,"g",NA,NA,NA,NA,NA,NA,22,"2011-01-01T07:16:27",22
"PDS2014","BW","PDS2014-0049",1309,"BW","Body Weight","372.5","g","372.5",372.5,"g",NA,NA,NA,NA,NA,NA,23,"2011-01-02T10:45:06",23
"PDS2014","BW","PDS2014-0049",1310,"BW","Body Weight","368.3","g","368.3",368.3,"g",NA,NA,NA,NA,NA,NA,24,"2011-01-03T09:22:49",24
"PDS2014","BW","PDS2014-0049",1311,"BW","Body Weight","371.8","g","371.8",371.8,"g",NA,NA,NA,NA,NA,NA,25,"2011-01-04T08:58:38",25
"PDS2014","BW","PDS2014-0049",1312,"BW","Body Weight","379","g","379",379,"g",NA,NA,NA,NA,NA,NA,26,"2011-01-05T09:34:35",26
"PDS2014","BW","PDS2014-0049",1313,"BW","Body Weight","380.5","g","380.5",380.5,"g",NA,NA,NA,NA,NA,NA,27,"2011-01-06T09:28:05",27
"PDS2014","BW","PDS2014-0049",1314,"BW","Body Weight","379.8","g","379.8",379.8,"g",NA,NA,NA,NA,NA,NA,28,"2011-01-07T08:26:21",28
"PDS2014","BW","PDS2014-0049",1315,"BW","Body Weight","389.4","g","389.4",389.4,"g",NA,NA,NA,NA,NA,NA,29,"2011-01-08T08:39:33",29
"PDS2014","BW","PDS2014-0049",1316,"BW","Body Weight","387.6","g","387.6",387.6,"g",NA,NA,NA,NA,NA,NA,30,"2011-01-09T11:22:14",30
"PDS2014","BW","PDS2014-0049",1317,"BW","Body Weight","358.3","g","358.3",358.3,"g",NA,NA,NA,NA,NA,NA,31,"2011-01-10T08:35:12",31
"PDS2014","BW","PDS2014-0049",1318,"TERMBW","Terminal Body Weight","358.3","g","358.3",358.3,"g",NA,NA,NA,NA,NA,NA,31,"2011-01-10T13:59:13",31
"PDS2014","BW","PDS2014-0050",1319,"BW","Body Weight","305","g","305",305,"g",NA,NA,NA,NA,NA,NA,-4,"2010-12-07T10:36:58",-4
"PDS2014","BW","PDS2014-0050",1320,"BW","Body Weight","337.3","g","337.3",337.3,"g",NA,NA,"Y",NA,NA,NA,1,"2010-12-11T10:18:52",1
"PDS2014","BW","PDS2014-0050",1321,"BW","Body Weight","325.6","g","325.6",325.6,"g",NA,NA,NA,NA,NA,NA,2,"2010-12-12T11:34:36",2
"PDS2014","BW","PDS2014-0050",1322,"BW","Body Weight","328.2","g","328.2",328.2,"g",NA,NA,NA,NA,NA,NA,3,"2010-12-13T12:38:27",3
"PDS2014","BW","PDS2014-0050",1323,"BW","Body Weight","332.8","g","332.8",332.8,"g",NA,NA,NA,NA,NA,NA,4,"2010-12-14T10:56:55",4
"PDS2014","BW","PDS2014-0050",1324,"BW","Body Weight","336.6","g","336.6",336.6,"g",NA,NA,NA,NA,NA,NA,5,"2010-12-15T09:59:11",5
"PDS2014","BW","PDS2014-0050",1325,"BW","Body Weight","340.4","g","340.4",340.4,"g",NA,NA,NA,NA,NA,NA,6,"2010-12-16T09:16:31",6
"PDS2014","BW","PDS2014-0050",1326,"BW","Body Weight","344.4","g","344.4",344.4,"g",NA,NA,NA,NA,NA,NA,7,"2010-12-17T08:39:24",7
"PDS2014","BW","PDS2014-0050",1327,"BW","Body Weight","347","g","347",347,"g",NA,NA,NA,NA,NA,NA,8,"2010-12-18T08:51:57",8
"PDS2014","BW","PDS2014-0050",1328,"BW","Body Weight","356.4","g","356.4",356.4,"g",NA,NA,NA,NA,NA,NA,9,"2010-12-19T13:32:14",9
"PDS2014","BW","PDS2014-0050",1329,"BW","Body Weight","348","g","348",348,"g",NA,NA,NA,NA,NA,NA,10,"2010-12-20T11:30:46",10
"PDS2014","BW","PDS2014-0050",1330,"BW","Body Weight","358.9","g","358.9",358.9,"g",NA,NA,NA,NA,NA,NA,11,"2010-12-21T08:07:48",11
"PDS2014","BW","PDS2014-0050",1331,"BW","Body Weight","359.4","g","359.4",359.4,"g",NA,NA,NA,NA,NA,NA,12,"2010-12-22T08:33:38",12
"PDS2014","BW","PDS2014-0050",1332,"BW","Body Weight","366.6","g","366.6",366.6,"g",NA,NA,NA,NA,NA,NA,13,"2010-12-23T08:02:10",13
"PDS2014","BW","PDS2014-0050",1333,"BW","Body Weight","367.6","g","367.6",367.6,"g",NA,NA,NA,NA,NA,NA,14,"2010-12-24T08:24:00",14
"PDS2014","BW","PDS2014-0050",1334,"BW","Body Weight","372.2","g","372.2",372.2,"g",NA,NA,NA,NA,NA,NA,15,"2010-12-25T08:27:50",15
"PDS2014","BW","PDS2014-0050",1335,"BW","Body Weight","373.1","g","373.1",373.1,"g",NA,NA,NA,NA,NA,NA,16,"2010-12-26T07:44:56",16
"PDS2014","BW","PDS2014-0050",1336,"BW","Body Weight","374.3","g","374.3",374.3,"g",NA,NA,NA,NA,NA,NA,17,"2010-12-27T10:40:43",17
"PDS2014","BW","PDS2014-0050",1337,"BW","Body Weight","374.1","g","374.1",374.1,"g",NA,NA,NA,NA,NA,NA,18,"2010-12-28T08:22:02",18
"PDS2014","BW","PDS2014-0050",1338,"BW","Body Weight","383.8","g","383.8",383.8,"g",NA,NA,NA,NA,NA,NA,19,"2010-12-29T10:03:35",19
"PDS2014","BW","PDS2014-0050",1339,"BW","Body Weight","385.1","g","385.1",385.1,"g",NA,NA,NA,NA,NA,NA,20,"2010-12-30T09:19:34",20
"PDS2014","BW","PDS2014-0050",1340,"BW","Body Weight","389.1","g","389.1",389.1,"g",NA,NA,NA,NA,NA,NA,21,"2010-12-31T09:14:49",21
"PDS2014","BW","PDS2014-0050",1341,"BW","Body Weight","390","g","390",390,"g",NA,NA,NA,NA,NA,NA,22,"2011-01-01T07:16:06",22
"PDS2014","BW","PDS2014-0050",1342,"BW","Body Weight","398","g","398",398,"g",NA,NA,NA,NA,NA,NA,23,"2011-01-02T10:44:48",23
"PDS2014","BW","PDS2014-0050",1343,"BW","Body Weight","393.2","g","393.2",393.2,"g",NA,NA,NA,NA,NA,NA,24,"2011-01-03T09:22:28",24
"PDS2014","BW","PDS2014-0050",1344,"BW","Body Weight","392.7","g","392.7",392.7,"g",NA,NA,NA,NA,NA,NA,25,"2011-01-04T08:59:12",25
"PDS2014","BW","PDS2014-0050",1345,"BW","Body Weight","396.8","g","396.8",396.8,"g",NA,NA,NA,NA,NA,NA,26,"2011-01-05T09:35:00",26
"PDS2014","BW","PDS2014-0050",1346,"BW","Body Weight","402","g","402",402,"g",NA,NA,NA,NA,NA,NA,27,"2011-01-06T09:27:21",27
"PDS2014","BW","PDS2014-0050",1347,"BW","Body Weight","404","g","404",404,"g",NA,NA,NA,NA,NA,NA,28,"2011-01-07T08:24:55",28
"PDS2014","BW","PDS2014-0050",1348,"BW","Body Weight","403.4","g","403.4",403.4,"g",NA,NA,NA,NA,NA,NA,29,"2011-01-08T08:38:21",29
"PDS2014","BW","PDS2014-0050",1349,"BW","Body Weight","411.1","g","411.1",411.1,"g",NA,NA,NA,NA,NA,NA,30,"2011-01-09T11:21:44",30
"PDS2014","BW","PDS2014-0050",1350,"BW","Body Weight","385.5","g","385.5",385.5,"g",NA,NA,NA,NA,NA,NA,31,"2011-01-10T08:35:50",31
"PDS2014","BW","PDS2014-0050",1351,"TERMBW","Terminal Body Weight",NA,NA,NA,NA,NA,"NOT DONE","perfusion animal",NA,NA,NA,NA,31,"2011-01-10T12:00:00",31
"PDS2014","BW","PDS2014-0051",1352,"BW","Body Weight","294.5","g","294.5",294.5,"g",NA,NA,NA,NA,NA,NA,-4,"2010-12-07T10:40:12",-4
"PDS2014","BW","PDS2014-0051",1353,"BW","Body Weight","330.7","g","330.7",330.7,"g",NA,NA,"Y",NA,NA,NA,1,"2010-12-11T08:51:14",1
"PDS2014","BW","PDS2014-0051",1354,"BW","Body Weight","316.8","g","316.8",316.8,"g",NA,NA,NA,NA,NA,NA,2,"2010-12-12T11:36:40",2
"PDS2014","BW","PDS2014-0051",1355,"BW","Body Weight","322.3","g","322.3",322.3,"g",NA,NA,NA,NA,NA,NA,3,"2010-12-13T12:40:42",3
"PDS2014","BW","PDS2014-0051",1356,"BW","Body Weight","326.7","g","326.7",326.7,"g",NA,NA,NA,NA,NA,NA,4,"2010-12-14T10:58:41",4
"PDS2014","BW","PDS2014-0051",1357,"BW","Body Weight","334","g","334",334,"g",NA,NA,NA,NA,NA,NA,5,"2010-12-15T10:00:30",5
"PDS2014","BW","PDS2014-0051",1358,"BW","Body Weight","339.6","g","339.6",339.6,"g",NA,NA,NA,NA,NA,NA,6,"2010-12-16T09:17:10",6
"PDS2014","BW","PDS2014-0051",1359,"BW","Body Weight","351.7","g","351.7",351.7,"g",NA,NA,NA,NA,NA,NA,7,"2010-12-17T08:40:47",7
"PDS2014","BW","PDS2014-0051",1360,"BW","Body Weight","352.9","g","352.9",352.9,"g",NA,NA,NA,NA,NA,NA,8,"2010-12-18T08:53:19",8
"PDS2014","BW","PDS2014-0051",1361,"BW","Body Weight","362.9","g","362.9",362.9,"g",NA,NA,NA,NA,NA,NA,9,"2010-12-19T13:33:48",9
"PDS2014","BW","PDS2014-0051",1362,"BW","Body Weight","368.2","g","368.2",368.2,"g",NA,NA,NA,NA,NA,NA,10,"2010-12-20T11:31:55",10
"PDS2014","BW","PDS2014-0051",1363,"BW","Body Weight","388","g","388",388,"g",NA,NA,NA,NA,NA,NA,11,"2010-12-21T08:10:16",11
"PDS2014","BW","PDS2014-0051",1364,"BW","Body Weight","381.9","g","381.9",381.9,"g",NA,NA,NA,NA,NA,NA,12,"2010-12-22T08:35:10",12
"PDS2014","BW","PDS2014-0051",1365,"BW","Body Weight","390","g","390",390,"g",NA,NA,NA,NA,NA,NA,13,"2010-12-23T08:03:40",13
"PDS2014","BW","PDS2014-0051",1366,"BW","Body Weight","393.9","g","393.9",393.9,"g",NA,NA,NA,NA,NA,NA,14,"2010-12-24T08:25:41",14
"PDS2014","BW","PDS2014-0051",1367,"BW","Body Weight","395.6","g","395.6",395.6,"g",NA,NA,NA,NA,NA,NA,15,"2010-12-25T08:28:30",15
"PDS2014","BW","PDS2014-0051",1368,"BW","Body Weight","404.7","g","404.7",404.7,"g",NA,NA,NA,NA,NA,NA,16,"2010-12-26T07:45:49",16
"PDS2014","BW","PDS2014-0051",1369,"BW","Body Weight","405.8","g","405.8",405.8,"g",NA,NA,NA,NA,NA,NA,17,"2010-12-27T10:42:23",17
"PDS2014","BW","PDS2014-0051",1370,"BW","Body Weight","406.4","g","406.4",406.4,"g",NA,NA,NA,NA,NA,NA,18,"2010-12-28T08:23:49",18
"PDS2014","BW","PDS2014-0051",1371,"BW","Body Weight","413.9","g","413.9",413.9,"g",NA,NA,NA,NA,NA,NA,19,"2010-12-29T10:06:08",19
"PDS2014","BW","PDS2014-0051",1372,"BW","Body Weight","414.5","g","414.5",414.5,"g",NA,NA,NA,NA,NA,NA,20,"2010-12-30T09:21:48",20
"PDS2014","BW","PDS2014-0051",1373,"BW","Body Weight","416.1","g","416.1",416.1,"g",NA,NA,NA,NA,NA,NA,21,"2010-12-31T09:16:28",21
"PDS2014","BW","PDS2014-0051",1374,"BW","Body Weight","422.7","g","422.7",422.7,"g",NA,NA,NA,NA,NA,NA,22,"2011-01-01T07:17:54",22
"PDS2014","BW","PDS2014-0051",1375,"BW","Body Weight","432.5","g","432.5",432.5,"g",NA,NA,NA,NA,NA,NA,23,"2011-01-02T10:46:09",23
"PDS2014","BW","PDS2014-0051",1376,"BW","Body Weight","436.6","g","436.6",436.6,"g",NA,NA,NA,NA,NA,NA,24,"2011-01-03T09:23:39",24
"PDS2014","BW","PDS2014-0051",1377,"BW","Body Weight","436.1","g","436.1",436.1,"g",NA,NA,NA,NA,NA,NA,25,"2011-01-04T09:00:26",25
"PDS2014","BW","PDS2014-0051",1378,"BW","Body Weight","436.7","g","436.7",436.7,"g",NA,NA,NA,NA,NA,NA,26,"2011-01-05T09:36:58",26
"PDS2014","BW","PDS2014-0051",1379,"BW","Body Weight","442.4","g","442.4",442.4,"g",NA,NA,NA,NA,NA,NA,27,"2011-01-06T09:29:21",27
"PDS2014","BW","PDS2014-0051",1380,"BW","Body Weight","449.7","g","449.7",449.7,"g",NA,NA,NA,NA,NA,NA,28,"2011-01-07T07:46:19",28
"PDS2014","BW","PDS2014-0051",1381,"BW","Body Weight","445.4","g","445.4",445.4,"g",NA,NA,NA,NA,NA,NA,29,"2011-01-08T07:57:53",29
"PDS2014","BW","PDS2014-0051",1382,"BW","Body Weight","432.3","g","432.3",432.3,"g",NA,NA,NA,NA,NA,NA,30,"2011-01-09T13:55:08",30
"PDS2014","BW","PDS2014-0052",1383,"BW","Body Weight","291.8","g","291.8",291.8,"g",NA,NA,NA,NA,NA,NA,-4,"2010-12-07T10:40:52",-4
"PDS2014","BW","PDS2014-0052",1384,"BW","Body Weight","333.2","g","333.2",333.2,"g",NA,NA,"Y",NA,NA,NA,1,"2010-12-11T08:53:20",1
"PDS2014","BW","PDS2014-0052",1385,"BW","Body Weight","304.6","g","304.6",304.6,"g",NA,NA,NA,NA,NA,NA,2,"2010-12-12T11:37:11",2
"PDS2014","BW","PDS2014-0052",1386,"BW","Body Weight","320","g","320",320,"g",NA,NA,NA,NA,NA,NA,3,"2010-12-13T12:40:21",3
"PDS2014","BW","PDS2014-0052",1387,"BW","Body Weight","322.5","g","322.5",322.5,"g",NA,NA,NA,NA,NA,NA,4,"2010-12-14T10:59:23",4
"PDS2014","BW","PDS2014-0052",1388,"BW","Body Weight","332.1","g","332.1",332.1,"g",NA,NA,NA,NA,NA,NA,5,"2010-12-15T10:01:04",5
"PDS2014","BW","PDS2014-0052",1389,"BW","Body Weight","342","g","342",342,"g",NA,NA,NA,NA,NA,NA,6,"2010-12-16T09:17:28",6
"PDS2014","BW","PDS2014-0052",1390,"BW","Body Weight","349.2","g","349.2",349.2,"g",NA,NA,NA,NA,NA,NA,7,"2010-12-17T08:41:08",7
"PDS2014","BW","PDS2014-0052",1391,"BW","Body Weight","356.1","g","356.1",356.1,"g",NA,NA,NA,NA,NA,NA,8,"2010-12-18T08:52:36",8
"PDS2014","BW","PDS2014-0052",1392,"BW","Body Weight","358.3","g","358.3",358.3,"g",NA,NA,NA,NA,NA,NA,9,"2010-12-19T13:34:12",9
"PDS2014","BW","PDS2014-0052",1393,"BW","Body Weight","369.5","g","369.5",369.5,"g",NA,NA,NA,NA,NA,NA,10,"2010-12-20T11:31:37",10
"PDS2014","BW","PDS2014-0052",1394,"BW","Body Weight","377.8","g","377.8",377.8,"g",NA,NA,NA,NA,NA,NA,11,"2010-12-21T08:09:17",11
"PDS2014","BW","PDS2014-0052",1395,"BW","Body Weight","385","g","385",385,"g",NA,NA,NA,NA,NA,NA,12,"2010-12-22T08:35:27",12
"PDS2014","BW","PDS2014-0052",1396,"BW","Body Weight","392.4","g","392.4",392.4,"g",NA,NA,NA,NA,NA,NA,13,"2010-12-23T08:03:57",13
"PDS2014","BW","PDS2014-0052",1397,"BW","Body Weight","400.9","g","400.9",400.9,"g",NA,NA,NA,NA,NA,NA,14,"2010-12-24T08:26:25",14
"PDS2014","BW","PDS2014-0052",1398,"BW","Body Weight","396.7","g","396.7",396.7,"g",NA,NA,NA,NA,NA,NA,15,"2010-12-25T08:28:46",15
"PDS2014","BW","PDS2014-0052",1399,"BW","Body Weight","409.8","g","409.8",409.8,"g",NA,NA,NA,NA,NA,NA,16,"2010-12-26T07:46:11",16
"PDS2014","BW","PDS2014-0052",1400,"BW","Body Weight","410.8","g","410.8",410.8,"g",NA,NA,NA,NA,NA,NA,17,"2010-12-27T10:42:44",17
"PDS2014","BW","PDS2014-0052",1401,"BW","Body Weight","411.6","g","411.6",411.6,"g",NA,NA,NA,NA,NA,NA,18,"2010-12-28T08:24:51",18
"PDS2014","BW","PDS2014-0052",1402,"BW","Body Weight","425.1","g","425.1",425.1,"g",NA,NA,NA,NA,NA,NA,19,"2010-12-29T10:05:45",19
"PDS2014","BW","PDS2014-0052",1403,"BW","Body Weight","429.4","g","429.4",429.4,"g",NA,NA,NA,NA,NA,NA,20,"2010-12-30T09:22:32",20
"PDS2014","BW","PDS2014-0052",1404,"BW","Body Weight","435.3","g","435.3",435.3,"g",NA,NA,NA,NA,NA,NA,21,"2010-12-31T09:16:55",21
"PDS2014","BW","PDS2014-0052",1405,"BW","Body Weight","440.1","g","440.1",440.1,"g",NA,NA,NA,NA,NA,NA,22,"2011-01-01T07:17:15",22
"PDS2014","BW","PDS2014-0052",1406,"BW","Body Weight","437.1","g","437.1",437.1,"g",NA,NA,NA,NA,NA,NA,23,"2011-01-02T10:46:28",23
"PDS2014","BW","PDS2014-0052",1407,"BW","Body Weight","442.2","g","442.2",442.2,"g",NA,NA,NA,NA,NA,NA,24,"2011-01-03T09:23:25",24
"PDS2014","BW","PDS2014-0052",1408,"BW","Body Weight","446.2","g","446.2",446.2,"g",NA,NA,NA,NA,NA,NA,25,"2011-01-04T09:00:09",25
"PDS2014","BW","PDS2014-0052",1409,"BW","Body Weight","445.6","g","445.6",445.6,"g",NA,NA,NA,NA,NA,NA,26,"2011-01-05T09:36:40",26
"PDS2014","BW","PDS2014-0052",1410,"BW","Body Weight","455.9","g","455.9",455.9,"g",NA,NA,NA,NA,NA,NA,27,"2011-01-06T09:29:39",27
"PDS2014","BW","PDS2014-0052",1411,"BW","Body Weight","456","g","456",456,"g",NA,NA,NA,NA,NA,NA,28,"2011-01-07T07:46:42",28
"PDS2014","BW","PDS2014-0052",1412,"BW","Body Weight","455.1","g","455.1",455.1,"g",NA,NA,NA,NA,NA,NA,29,"2011-01-08T08:00:11",29
"PDS2014","BW","PDS2014-0052",1413,"BW","Body Weight","445.7","g","445.7",445.7,"g",NA,NA,NA,NA,NA,NA,30,"2011-01-09T13:54:40",30
"PDS2014","BW","PDS2014-0053",1414,"BW","Body Weight","276.5","g","276.5",276.5,"g",NA,NA,NA,NA,NA,NA,-4,"2010-12-07T10:29:56",-4
"PDS2014","BW","PDS2014-0053",1415,"BW","Body Weight","303.4","g","303.4",303.4,"g",NA,NA,"Y",NA,NA,NA,1,"2010-12-11T08:55:13",1
"PDS2014","BW","PDS2014-0053",1416,"BW","Body Weight","288.7","g","288.7",288.7,"g",NA,NA,NA,NA,NA,NA,2,"2010-12-12T11:36:18",2
"PDS2014","BW","PDS2014-0053",1417,"BW","Body Weight","294.7","g","294.7",294.7,"g",NA,NA,NA,NA,NA,NA,3,"2010-12-13T12:40:03",3
"PDS2014","BW","PDS2014-0053",1418,"BW","Body Weight","305.5","g","305.5",305.5,"g",NA,NA,NA,NA,NA,NA,4,"2010-12-14T10:59:03",4
"PDS2014","BW","PDS2014-0053",1419,"BW","Body Weight","309.3","g","309.3",309.3,"g",NA,NA,NA,NA,NA,NA,5,"2010-12-15T10:00:45",5
"PDS2014","BW","PDS2014-0053",1420,"BW","Body Weight","316.6","g","316.6",316.6,"g",NA,NA,NA,NA,NA,NA,6,"2010-12-16T09:16:57",6
"PDS2014","BW","PDS2014-0053",1421,"BW","Body Weight","322.6","g","322.6",322.6,"g",NA,NA,NA,NA,NA,NA,7,"2010-12-17T08:40:24",7
"PDS2014","BW","PDS2014-0053",1422,"BW","Body Weight","322.8","g","322.8",322.8,"g",NA,NA,NA,NA,NA,NA,8,"2010-12-18T08:52:57",8
"PDS2014","BW","PDS2014-0053",1423,"BW","Body Weight","331.5","g","331.5",331.5,"g",NA,NA,NA,NA,NA,NA,9,"2010-12-19T13:33:29",9
"PDS2014","BW","PDS2014-0053",1424,"BW","Body Weight","330.8","g","330.8",330.8,"g",NA,NA,NA,NA,NA,NA,10,"2010-12-20T11:32:17",10
"PDS2014","BW","PDS2014-0053",1425,"BW","Body Weight","343.8","g","343.8",343.8,"g",NA,NA,NA,NA,NA,NA,11,"2010-12-21T08:09:40",11
"PDS2014","BW","PDS2014-0053",1426,"BW","Body Weight","340.7","g","340.7",340.7,"g",NA,NA,NA,NA,NA,NA,12,"2010-12-22T08:34:53",12
"PDS2014","BW","PDS2014-0053",1427,"BW","Body Weight","347.3","g","347.3",347.3,"g",NA,NA,NA,NA,NA,NA,13,"2010-12-23T08:04:14",13
"PDS2014","BW","PDS2014-0053",1428,"BW","Body Weight","348.8","g","348.8",348.8,"g",NA,NA,NA,NA,NA,NA,14,"2010-12-24T08:26:04",14
"PDS2014","BW","PDS2014-0053",1429,"BW","Body Weight","352.2","g","352.2",352.2,"g",NA,NA,NA,NA,NA,NA,15,"2010-12-25T08:29:06",15
"PDS2014","BW","PDS2014-0053",1430,"BW","Body Weight","353.9","g","353.9",353.9,"g",NA,NA,NA,NA,NA,NA,16,"2010-12-26T07:46:31",16
"PDS2014","BW","PDS2014-0053",1431,"BW","Body Weight","362.4","g","362.4",362.4,"g",NA,NA,NA,NA,NA,NA,17,"2010-12-27T10:43:00",17
"PDS2014","BW","PDS2014-0053",1432,"BW","Body Weight","356.1","g","356.1",356.1,"g",NA,NA,NA,NA,NA,NA,18,"2010-12-28T08:24:27",18
"PDS2014","BW","PDS2014-0053",1433,"BW","Body Weight","359.2","g","359.2",359.2,"g",NA,NA,NA,NA,NA,NA,19,"2010-12-29T10:06:32",19
"PDS2014","BW","PDS2014-0053",1434,"BW","Body Weight","361.4","g","361.4",361.4,"g",NA,NA,NA,NA,NA,NA,20,"2010-12-30T09:22:09",20
"PDS2014","BW","PDS2014-0053",1435,"BW","Body Weight","362.3","g","362.3",362.3,"g",NA,NA,NA,NA,NA,NA,21,"2010-12-31T09:17:12",21
"PDS2014","BW","PDS2014-0053",1436,"BW","Body Weight","368.6","g","368.6",368.6,"g",NA,NA,NA,NA,NA,NA,22,"2011-01-01T07:17:32",22
"PDS2014","BW","PDS2014-0053",1437,"BW","Body Weight","375","g","375",375,"g",NA,NA,NA,NA,NA,NA,23,"2011-01-02T10:45:51",23
"PDS2014","BW","PDS2014-0053",1438,"BW","Body Weight","370.9","g","370.9",370.9,"g",NA,NA,NA,NA,NA,NA,24,"2011-01-03T09:23:56",24
"PDS2014","BW","PDS2014-0053",1439,"BW","Body Weight","372.3","g","372.3",372.3,"g",NA,NA,NA,NA,NA,NA,25,"2011-01-04T09:00:42",25
"PDS2014","BW","PDS2014-0053",1440,"BW","Body Weight","373.2","g","373.2",373.2,"g",NA,NA,NA,NA,NA,NA,26,"2011-01-05T09:37:18",26
"PDS2014","BW","PDS2014-0053",1441,"BW","Body Weight","370.3","g","370.3",370.3,"g",NA,NA,NA,NA,NA,NA,27,"2011-01-06T09:28:58",27
"PDS2014","BW","PDS2014-0053",1442,"BW","Body Weight","378.5","g","378.5",378.5,"g",NA,NA,NA,NA,NA,NA,28,"2011-01-07T07:45:52",28
"PDS2014","BW","PDS2014-0053",1443,"BW","Body Weight","378.8","g","378.8",378.8,"g",NA,NA,NA,NA,NA,NA,29,"2011-01-08T08:02:10",29
"PDS2014","BW","PDS2014-0053",1444,"BW","Body Weight","371.2","g","371.2",371.2,"g",NA,NA,NA,NA,NA,NA,30,"2011-01-09T13:55:53",30
"PDS2014","BW","PDS2014-0061",1445,"BW","Body Weight","275.7","g","275.7",275.7,"g",NA,NA,NA,NA,NA,NA,-4,"2010-12-07T10:36:34",-4
"PDS2014","BW","PDS2014-0061",1446,"BW","Body Weight","309.6","g","309.6",309.6,"g",NA,NA,"Y",NA,NA,NA,1,"2010-12-11T10:27:54",1
"PDS2014","BW","PDS2014-0061",1447,"BW","Body Weight","297.9","g","297.9",297.9,"g",NA,NA,NA,NA,NA,NA,2,"2010-12-12T11:46:18",2
"PDS2014","BW","PDS2014-0061",1448,"BW","Body Weight","293.3","g","293.3",293.3,"g",NA,NA,NA,NA,NA,NA,3,"2010-12-13T12:49:00",3
"PDS2014","BW","PDS2014-0061",1449,"BW","Body Weight","303.3","g","303.3",303.3,"g",NA,NA,NA,NA,NA,NA,4,"2010-12-14T11:07:47",4
"PDS2014","BW","PDS2014-0061",1450,"BW","Body Weight","307.4","g","307.4",307.4,"g",NA,NA,NA,NA,NA,NA,5,"2010-12-15T10:06:41",5
"PDS2014","BW","PDS2014-0061",1451,"BW","Body Weight","308.7","g","308.7",308.7,"g",NA,NA,NA,NA,NA,NA,6,"2010-12-16T09:22:53",6
"PDS2014","BW","PDS2014-0061",1452,"BW","Body Weight","312.6","g","312.6",312.6,"g",NA,NA,NA,NA,NA,NA,7,"2010-12-17T08:50:25",7
"PDS2014","BW","PDS2014-0061",1453,"BW","Body Weight","319.3","g","319.3",319.3,"g",NA,NA,NA,NA,NA,NA,8,"2010-12-18T09:07:02",8
"PDS2014","BW","PDS2014-0061",1454,"BW","Body Weight","325.6","g","325.6",325.6,"g",NA,NA,NA,NA,NA,NA,9,"2010-12-19T13:44:03",9
"PDS2014","BW","PDS2014-0061",1455,"BW","Body Weight","334.6","g","334.6",334.6,"g",NA,NA,NA,NA,NA,NA,10,"2010-12-20T12:46:17",10
"PDS2014","BW","PDS2014-0061",1456,"BW","Body Weight","341.2","g","341.2",341.2,"g",NA,NA,NA,NA,NA,NA,11,"2010-12-21T08:23:34",11
"PDS2014","BW","PDS2014-0061",1457,"BW","Body Weight","339.1","g","339.1",339.1,"g",NA,NA,NA,NA,NA,NA,12,"2010-12-22T08:42:44",12
"PDS2014","BW","PDS2014-0061",1458,"BW","Body Weight","336.3","g","336.3",336.3,"g",NA,NA,NA,NA,NA,NA,13,"2010-12-23T08:57:58",13
"PDS2014","BW","PDS2014-0061",1459,"BW","Body Weight","343.2","g","343.2",343.2,"g",NA,NA,NA,NA,NA,NA,14,"2010-12-24T08:33:32",14
"PDS2014","BW","PDS2014-0061",1460,"BW","Body Weight","347","g","347",347,"g",NA,NA,NA,NA,NA,NA,15,"2010-12-25T08:39:00",15
"PDS2014","BW","PDS2014-0061",1461,"BW","Body Weight","356","g","356",356,"g",NA,NA,NA,NA,NA,NA,16,"2010-12-26T07:53:12",16
"PDS2014","BW","PDS2014-0061",1462,"BW","Body Weight","369.5","g","369.5",369.5,"g",NA,NA,NA,NA,NA,NA,17,"2010-12-27T10:52:36",17
"PDS2014","BW","PDS2014-0061",1463,"BW","Body Weight","369.6","g","369.6",369.6,"g",NA,NA,NA,NA,NA,NA,18,"2010-12-28T08:32:20",18
"PDS2014","BW","PDS2014-0061",1464,"BW","Body Weight","359.9","g","359.9",359.9,"g",NA,NA,NA,NA,NA,NA,19,"2010-12-29T10:13:50",19
"PDS2014","BW","PDS2014-0061",1465,"BW","Body Weight","363.3","g","363.3",363.3,"g",NA,NA,NA,NA,NA,NA,20,"2010-12-30T09:30:06",20
"PDS2014","BW","PDS2014-0061",1466,"BW","Body Weight","372.2","g","372.2",372.2,"g",NA,NA,NA,NA,NA,NA,21,"2010-12-31T09:23:57",21
"PDS2014","BW","PDS2014-0061",1467,"BW","Body Weight","373.5","g","373.5",373.5,"g",NA,NA,NA,NA,NA,NA,22,"2011-01-01T07:28:03",22
"PDS2014","BW","PDS2014-0061",1468,"BW","Body Weight","378","g","378",378,"g",NA,NA,NA,NA,NA,NA,23,"2011-01-02T10:54:15",23
"PDS2014","BW","PDS2014-0061",1469,"BW","Body Weight","379.7","g","379.7",379.7,"g",NA,NA,NA,NA,NA,NA,24,"2011-01-03T09:30:29",24
"PDS2014","BW","PDS2014-0061",1470,"BW","Body Weight","382.9","g","382.9",382.9,"g",NA,NA,NA,NA,NA,NA,25,"2011-01-04T09:09:45",25
"PDS2014","BW","PDS2014-0061",1471,"BW","Body Weight","391.9","g","391.9",391.9,"g",NA,NA,NA,NA,NA,NA,26,"2011-01-05T09:45:11",26
"PDS2014","BW","PDS2014-0061",1472,"BW","Body Weight","395.6","g","395.6",395.6,"g",NA,NA,NA,NA,NA,NA,27,"2011-01-06T09:37:20",27
"PDS2014","BW","PDS2014-0061",1473,"BW","Body Weight","394.5","g","394.5",394.5,"g",NA,NA,NA,NA,NA,NA,28,"2011-01-07T08:32:27",28
"PDS2014","BW","PDS2014-0061",1474,"BW","Body Weight","394.7","g","394.7",394.7,"g",NA,NA,NA,NA,NA,NA,29,"2011-01-08T08:49:58",29
"PDS2014","BW","PDS2014-0061",1475,"BW","Body Weight","365","g","365",365,"g",NA,NA,NA,NA,NA,NA,30,"2011-01-09T08:35:31",30
"PDS2014","BW","PDS2014-0061",1476,"TERMBW","Terminal Body Weight","365","g","365",365,"g",NA,NA,NA,NA,NA,NA,30,"2011-01-09T10:23:27",30
"PDS2014","BW","PDS2014-0062",1477,"BW","Body Weight","282.4","g","282.4",282.4,"g",NA,NA,NA,NA,NA,NA,-4,"2010-12-07T10:34:53",-4
"PDS2014","BW","PDS2014-0062",1478,"BW","Body Weight","318.1","g","318.1",318.1,"g",NA,NA,"Y",NA,NA,NA,1,"2010-12-11T10:27:26",1
"PDS2014","BW","PDS2014-0062",1479,"BW","Body Weight","312.1","g","312.1",312.1,"g",NA,NA,NA,NA,NA,NA,2,"2010-12-12T11:47:42",2
"PDS2014","BW","PDS2014-0062",1480,"BW","Body Weight","290.4","g","290.4",290.4,"g",NA,NA,NA,NA,NA,NA,3,"2010-12-13T12:47:50",3
"PDS2014","BW","PDS2014-0062",1481,"BW","Body Weight","284.5","g","284.5",284.5,"g",NA,NA,NA,NA,NA,NA,4,"2010-12-14T11:07:21",4
"PDS2014","BW","PDS2014-0062",1482,"BW","Body Weight","283.2","g","283.2",283.2,"g",NA,NA,NA,NA,NA,NA,5,"2010-12-15T10:06:23",5
"PDS2014","BW","PDS2014-0062",1483,"BW","Body Weight","283.6","g","283.6",283.6,"g",NA,NA,NA,NA,NA,NA,6,"2010-12-16T09:23:24",6
"PDS2014","BW","PDS2014-0062",1484,"BW","Body Weight","286.4","g","286.4",286.4,"g",NA,NA,NA,NA,NA,NA,7,"2010-12-17T08:50:49",7
"PDS2014","BW","PDS2014-0062",1485,"BW","Body Weight","308.8","g","308.8",308.8,"g",NA,NA,NA,NA,NA,NA,8,"2010-12-18T09:08:27",8
"PDS2014","BW","PDS2014-0062",1486,"BW","Body Weight","302.5","g","302.5",302.5,"g",NA,NA,NA,NA,NA,NA,9,"2010-12-19T13:43:42",9
"PDS2014","BW","PDS2014-0062",1487,"BW","Body Weight","295.4","g","295.4",295.4,"g",NA,NA,NA,NA,NA,NA,10,"2010-12-20T12:46:48",10
"PDS2014","BW","PDS2014-0062",1488,"BW","Body Weight","305.1","g","305.1",305.1,"g",NA,NA,NA,NA,NA,NA,11,"2010-12-21T08:22:58",11
"PDS2014","BW","PDS2014-0062",1489,"BW","Body Weight","323.1","g","323.1",323.1,"g",NA,NA,NA,NA,NA,NA,12,"2010-12-22T08:42:03",12
"PDS2014","BW","PDS2014-0062",1490,"BW","Body Weight","337.3","g","337.3",337.3,"g",NA,NA,NA,NA,NA,NA,13,"2010-12-23T08:58:17",13
"PDS2014","BW","PDS2014-0062",1491,"BW","Body Weight","323.7","g","323.7",323.7,"g",NA,NA,NA,NA,NA,NA,14,"2010-12-24T08:34:17",14
"PDS2014","BW","PDS2014-0062",1492,"BW","Body Weight","335.8","g","335.8",335.8,"g",NA,NA,NA,NA,NA,NA,15,"2010-12-25T08:39:48",15
"PDS2014","BW","PDS2014-0062",1493,"BW","Body Weight","350.3","g","350.3",350.3,"g",NA,NA,NA,NA,NA,NA,16,"2010-12-26T07:53:31",16
"PDS2014","BW","PDS2014-0062",1494,"BW","Body Weight","346","g","346",346,"g",NA,NA,NA,NA,NA,NA,17,"2010-12-27T10:52:18",17
"PDS2014","BW","PDS2014-0062",1495,"BW","Body Weight","348.6","g","348.6",348.6,"g",NA,NA,NA,NA,NA,NA,18,"2010-12-28T08:31:17",18
"PDS2014","BW","PDS2014-0062",1496,"BW","Body Weight","356.2","g","356.2",356.2,"g",NA,NA,NA,NA,NA,NA,19,"2010-12-29T10:15:18",19
"PDS2014","BW","PDS2014-0062",1497,"BW","Body Weight","362.5","g","362.5",362.5,"g",NA,NA,NA,NA,NA,NA,20,"2010-12-30T09:30:31",20
"PDS2014","BW","PDS2014-0062",1498,"BW","Body Weight","368.2","g","368.2",368.2,"g",NA,NA,NA,NA,NA,NA,21,"2010-12-31T09:24:13",21
"PDS2014","BW","PDS2014-0062",1499,"BW","Body Weight","373.4","g","373.4",373.4,"g",NA,NA,NA,NA,NA,NA,22,"2011-01-01T07:27:01",22
"PDS2014","BW","PDS2014-0062",1500,"BW","Body Weight","372.7","g","372.7",372.7,"g",NA,NA,NA,NA,NA,NA,23,"2011-01-02T10:53:18",23
"PDS2014","BW","PDS2014-0062",1501,"BW","Body Weight","374","g","374",374,"g",NA,NA,NA,NA,NA,NA,24,"2011-01-03T09:30:14",24
"PDS2014","BW","PDS2014-0062",1502,"BW","Body Weight","379.6","g","379.6",379.6,"g",NA,NA,NA,NA,NA,NA,25,"2011-01-04T09:09:25",25
"PDS2014","BW","PDS2014-0062",1503,"BW","Body Weight","373.7","g","373.7",373.7,"g",NA,NA,NA,NA,NA,NA,26,"2011-01-05T09:45:52",26
"PDS2014","BW","PDS2014-0062",1504,"BW","Body Weight","383.6","g","383.6",383.6,"g",NA,NA,NA,NA,NA,NA,27,"2011-01-06T09:38:34",27
"PDS2014","BW","PDS2014-0062",1505,"BW","Body Weight","391.5","g","391.5",391.5,"g",NA,NA,NA,NA,NA,NA,28,"2011-01-07T08:33:33",28
"PDS2014","BW","PDS2014-0062",1506,"BW","Body Weight","385.5","g","385.5",385.5,"g",NA,NA,NA,NA,NA,NA,29,"2011-01-08T08:52:40",29
"PDS2014","BW","PDS2014-0062",1507,"BW","Body Weight","351.8","g","351.8",351.8,"g",NA,NA,NA,NA,NA,NA,30,"2011-01-09T08:36:28",30
"PDS2014","BW","PDS2014-0062",1508,"TERMBW","Terminal Body Weight","351.8","g","351.8",351.8,"g",NA,NA,NA,NA,NA,NA,30,"2011-01-09T12:56:20",30
"PDS2014","BW","PDS2014-0063",1509,"BW","Body Weight","290.7","g","290.7",290.7,"g",NA,NA,NA,NA,NA,NA,-4,"2010-12-07T10:39:54",-4
"PDS2014","BW","PDS2014-0063",1510,"BW","Body Weight","319.7","g","319.7",319.7,"g",NA,NA,"Y",NA,NA,NA,1,"2010-12-11T10:29:24",1
"PDS2014","BW","PDS2014-0063",1511,"BW","Body Weight","307.1","g","307.1",307.1,"g",NA,NA,NA,NA,NA,NA,2,"2010-12-12T11:47:16",2
"PDS2014","BW","PDS2014-0063",1512,"BW","Body Weight","306.5","g","306.5",306.5,"g",NA,NA,NA,NA,NA,NA,3,"2010-12-13T12:48:35",3
"PDS2014","BW","PDS2014-0063",1513,"BW","Body Weight","312.4","g","312.4",312.4,"g",NA,NA,NA,NA,NA,NA,4,"2010-12-14T11:08:31",4
"PDS2014","BW","PDS2014-0063",1514,"BW","Body Weight","324.2","g","324.2",324.2,"g",NA,NA,NA,NA,NA,NA,5,"2010-12-15T10:07:13",5
"PDS2014","BW","PDS2014-0063",1515,"BW","Body Weight","320.7","g","320.7",320.7,"g",NA,NA,NA,NA,NA,NA,6,"2010-12-16T09:23:51",6
"PDS2014","BW","PDS2014-0063",1516,"BW","Body Weight","322.9","g","322.9",322.9,"g",NA,NA,NA,NA,NA,NA,7,"2010-12-17T08:49:58",7
"PDS2014","BW","PDS2014-0063",1517,"BW","Body Weight","327.9","g","327.9",327.9,"g",NA,NA,NA,NA,NA,NA,8,"2010-12-18T09:09:33",8
"PDS2014","BW","PDS2014-0063",1518,"BW","Body Weight","332.1","g","332.1",332.1,"g",NA,NA,NA,NA,NA,NA,9,"2010-12-19T13:42:59",9
"PDS2014","BW","PDS2014-0063",1519,"BW","Body Weight","337.1","g","337.1",337.1,"g",NA,NA,NA,NA,NA,NA,10,"2010-12-20T12:47:51",10
"PDS2014","BW","PDS2014-0063",1520,"BW","Body Weight","348.2","g","348.2",348.2,"g",NA,NA,NA,NA,NA,NA,11,"2010-12-21T08:24:20",11
"PDS2014","BW","PDS2014-0063",1521,"BW","Body Weight","341.7","g","341.7",341.7,"g",NA,NA,NA,NA,NA,NA,12,"2010-12-22T08:41:37",12
"PDS2014","BW","PDS2014-0063",1522,"BW","Body Weight","352.4","g","352.4",352.4,"g",NA,NA,NA,NA,NA,NA,13,"2010-12-23T08:58:37",13
"PDS2014","BW","PDS2014-0063",1523,"BW","Body Weight","365.2","g","365.2",365.2,"g",NA,NA,NA,NA,NA,NA,14,"2010-12-24T08:32:52",14
"PDS2014","BW","PDS2014-0063",1524,"BW","Body Weight","367.4","g","367.4",367.4,"g",NA,NA,NA,NA,NA,NA,15,"2010-12-25T08:40:34",15
"PDS2014","BW","PDS2014-0063",1525,"BW","Body Weight","370.5","g","370.5",370.5,"g",NA,NA,NA,NA,NA,NA,16,"2010-12-26T07:53:53",16
"PDS2014","BW","PDS2014-0063",1526,"BW","Body Weight","374.3","g","374.3",374.3,"g",NA,NA,NA,NA,NA,NA,17,"2010-12-27T10:51:54",17
"PDS2014","BW","PDS2014-0063",1527,"BW","Body Weight","382.7","g","382.7",382.7,"g",NA,NA,NA,NA,NA,NA,18,"2010-12-28T08:32:02",18
"PDS2014","BW","PDS2014-0063",1528,"BW","Body Weight","380.4","g","380.4",380.4,"g",NA,NA,NA,NA,NA,NA,19,"2010-12-29T10:14:38",19
"PDS2014","BW","PDS2014-0063",1529,"BW","Body Weight","385.8","g","385.8",385.8,"g",NA,NA,NA,NA,NA,NA,20,"2010-12-30T09:30:51",20
"PDS2014","BW","PDS2014-0063",1530,"BW","Body Weight","389.4","g","389.4",389.4,"g",NA,NA,NA,NA,NA,NA,21,"2010-12-31T09:23:36",21
"PDS2014","BW","PDS2014-0063",1531,"BW","Body Weight","387.6","g","387.6",387.6,"g",NA,NA,NA,NA,NA,NA,22,"2011-01-01T07:28:24",22
"PDS2014","BW","PDS2014-0063",1532,"BW","Body Weight","392.8","g","392.8",392.8,"g",NA,NA,NA,NA,NA,NA,23,"2011-01-02T10:52:59",23
"PDS2014","BW","PDS2014-0063",1533,"BW","Body Weight","399","g","399",399,"g",NA,NA,NA,NA,NA,NA,24,"2011-01-03T09:29:45",24
"PDS2014","BW","PDS2014-0063",1534,"BW","Body Weight","397.2","g","397.2",397.2,"g",NA,NA,NA,NA,NA,NA,25,"2011-01-04T09:07:55",25
"PDS2014","BW","PDS2014-0063",1535,"BW","Body Weight","405.5","g","405.5",405.5,"g",NA,NA,NA,NA,NA,NA,26,"2011-01-05T09:44:31",26
"PDS2014","BW","PDS2014-0063",1536,"BW","Body Weight","414","g","414",414,"g",NA,NA,NA,NA,NA,NA,27,"2011-01-06T09:37:00",27
"PDS2014","BW","PDS2014-0063",1537,"BW","Body Weight","408.7","g","408.7",408.7,"g",NA,NA,NA,NA,NA,NA,28,"2011-01-07T08:33:55",28
"PDS2014","BW","PDS2014-0063",1538,"BW","Body Weight","412.1","g","412.1",412.1,"g",NA,NA,NA,NA,NA,NA,29,"2011-01-08T08:52:05",29
"PDS2014","BW","PDS2014-0063",1539,"BW","Body Weight","378.8","g","378.8",378.8,"g",NA,NA,NA,NA,NA,NA,30,"2011-01-09T08:37:54",30
"PDS2014","BW","PDS2014-0063",1540,"TERMBW","Terminal Body Weight","378.8","g","378.8",378.8,"g",NA,NA,NA,NA,NA,NA,30,"2011-01-09T14:40:15",30
"PDS2014","BW","PDS2014-0064",1541,"BW","Body Weight","278.9","g","278.9",278.9,"g",NA,NA,NA,NA,NA,NA,-4,"2010-12-07T10:37:36",-4
"PDS2014","BW","PDS2014-0064",1542,"BW","Body Weight","318.5","g","318.5",318.5,"g",NA,NA,"Y",NA,NA,NA,1,"2010-12-11T10:28:21",1
"PDS2014","BW","PDS2014-0064",1543,"BW","Body Weight","294.6","g","294.6",294.6,"g",NA,NA,NA,NA,NA,NA,2,"2010-12-12T11:46:54",2
