"STUDYID","DOMAIN","USUBJID","POOLID","CLSEQ","CLGRPID","CLREFID","CLSPID","CLTESTCD","CLTEST","CLCAT","CLSCAT","CLBODSYS","CLORRES","CLSTRESC","CLRESCAT","CLSTAT","CLREASND","CLLOC","CLEVAL","CLSEV","CLEXCLFL","CLREASEX","VISITDY","CLDTC","CLDY","CLTPT","CLTPTNUM","CLELTM","CLTPTREF","CLRFTDTC"
"PDS2014","CL","PDS2014-0001",NA,1,NA,NA,NA,"CS","Clinical Sign","CLINICAL SIGNS",NA,NA,"No abnormalities","No abnormalities",NA,NA,NA,NA,NA,NA,NA,NA,22,"2011-01-01T06:37:15",22,NA,NA,NA,NA,NA
"PDS2014","CL","PDS2014-0001",NA,2,NA,NA,NA,"CS","Clinical Sign","CLINICAL SIGNS",NA,NA,"No abnormalities","No abnormalities",NA,NA,NA,NA,NA,NA,NA,NA,22,"2011-01-01T11:37:26",22,NA,NA,NA,NA,NA
"PDS2014","CL","PDS2014-0001",NA,3,NA,NA,NA,"CS","Clinical Sign","CLINICAL SIGNS",NA,NA,"No abnormalities","No abnormalities",NA,NA,NA,NA,NA,NA,NA,NA,29,"2011-01-08T07:20:13",29,NA,NA,NA,NA,NA
"PDS2014","CL","PDS2014-0001",NA,4,NA,NA,NA,"CS","Clinical Sign","CLINICAL SIGNS",NA,NA,"No abnormalities","No abnormalities",NA,NA,NA,NA,NA,NA,NA,NA,3,"2010-12-13T11:14:24",3,NA,NA,NA,NA,NA
"PDS2014","CL","PDS2014-0001",NA,5,NA,NA,NA,"CS","Clinical Sign","CLINICAL SIGNS",NA,NA,"No abnormalities","No abnormalities",NA,NA,NA,NA,NA,NA,NA,NA,15,"2010-12-25T07:18:27",15,NA,NA,NA,NA,NA
"PDS2014","CL","PDS2014-0001",NA,6,NA,NA,NA,"CS","Clinical Sign","CLINICAL SIGNS",NA,NA,"No abnormalities","No abnormalities",NA,NA,NA,NA,NA,NA,NA,NA,10,"2010-12-20T11:00:10",10,NA,NA,NA,NA,NA
"PDS2014","CL","PDS2014-0001",NA,7,NA,NA,NA,"CS","Clinical Sign","CLINICAL SIGNS",NA,NA,"No abnormalities","No abnormalities",NA,NA,NA,NA,NA,NA,NA,NA,2,"2010-12-12T09:12:57",2,NA,NA,NA,NA,NA
"PDS2014","CL","PDS2014-0001",NA,8,NA,NA,NA,"CS","Clinical Sign","CLINICAL SIGNS",NA,NA,"No abnormalities","No abnormalities",NA,NA,NA,NA,NA,NA,NA,NA,25,"2011-01-04T09:53:12",25,NA,NA,NA,NA,NA
"PDS2014","CL","PDS2014-0001",NA,9,NA,NA,NA,"CS","Clinical Sign","CLINICAL SIGNS",NA,NA,"No abnormalities","No abnormalities",NA,NA,NA,NA,NA,NA,NA,NA,25,"2011-01-04T11:33:45",25,NA,NA,NA,NA,NA
"PDS2014","CL","PDS2014-0001",NA,10,NA,NA,NA,"CS","Clinical Sign","CLINICAL SIGNS",NA,NA,"No abnormalities","No abnormalities",NA,NA,NA,NA,NA,NA,NA,NA,21,"2010-12-31T08:53:05",21,NA,NA,NA,NA,NA
"PDS2014","CL","PDS2014-0001",NA,11,NA,NA,NA,"CS","Clinical Sign","CLINICAL SIGNS",NA,NA,"No abnormalities","No abnormalities",NA,NA,NA,NA,NA,NA,NA,NA,25,"2011-01-04T08:38:48",25,NA,NA,NA,NA,NA
"PDS2014","CL","PDS2014-0001",NA,12,NA,NA,NA,"CS","Clinical Sign","CLINICAL SIGNS",NA,NA,"No abnormalities","No abnormalities",NA,NA,NA,NA,NA,NA,NA,NA,22,"2011-01-01T10:04:22",22,NA,NA,NA,NA,NA
"PDS2014","CL","PDS2014-0001",NA,13,NA,NA,NA,"CS","Clinical Sign","CLINICAL SIGNS",NA,NA,"No abnormalities","No abnormalities",NA,NA,NA,NA,NA,NA,NA,NA,22,"2011-01-01T08:25:39",22,NA,NA,NA,NA,NA
"PDS2014","CL","PDS2014-0001",NA,14,NA,NA,NA,"CS","Clinical Sign","CLINICAL SIGNS",NA,NA,"No abnormalities","No abnormalities",NA,NA,NA,NA,NA,NA,NA,NA,1,"2010-12-11T09:17:21",1,NA,NA,NA,NA,NA
"PDS2014","CL","PDS2014-0001",NA,15,NA,NA,NA,"CS","Clinical Sign","CLINICAL SIGNS",NA,NA,"No abnormalities","No abnormalities",NA,NA,NA,NA,NA,NA,NA,NA,6,"2010-12-16T08:57:44",6,NA,NA,NA,NA,NA
"PDS2014","CL","PDS2014-0001",NA,16,NA,NA,NA,"CS","Clinical Sign","CLINICAL SIGNS",NA,NA,"No abnormalities","No abnormalities",NA,NA,NA,NA,NA,NA,NA,NA,24,"2011-01-03T08:36:36",24,NA,NA,NA,NA,NA
"PDS2014","CL","PDS2014-0001",NA,17,NA,NA,NA,"CS","Clinical Sign","CLINICAL SIGNS",NA,NA,"No abnormalities","No abnormalities",NA,NA,NA,NA,NA,NA,NA,NA,7,"2010-12-17T08:06:21",7,NA,NA,NA,NA,NA
"PDS2014","CL","PDS2014-0001",NA,18,NA,NA,NA,"CS","Clinical Sign","CLINICAL SIGNS",NA,NA,"No abnormalities","No abnormalities",NA,NA,NA,NA,NA,NA,NA,NA,13,"2010-12-23T07:29:02",13,NA,NA,NA,NA,NA
"PDS2014","CL","PDS2014-0001",NA,19,NA,NA,NA,"CS","Clinical Sign","CLINICAL SIGNS",NA,NA,"No abnormalities","No abnormalities",NA,NA,NA,NA,NA,NA,NA,NA,9,"2010-12-19T08:07:39",9,NA,NA,NA,NA,NA
"PDS2014","CL","PDS2014-0001",NA,20,NA,NA,NA,"CS","Clinical Sign","CLINICAL SIGNS",NA,NA,"No abnormalities","No abnormalities",NA,NA,NA,NA,NA,NA,NA,NA,20,"2010-12-30T08:08:39",20,NA,NA,NA,NA,NA
"PDS2014","CL","PDS2014-0001",NA,21,NA,NA,NA,"CS","Clinical Sign","CLINICAL SIGNS",NA,NA,"No abnormalities","No abnormalities",NA,NA,NA,NA,NA,NA,NA,NA,9,"2010-12-19T11:43:59",9,NA,NA,NA,NA,NA
"PDS2014","CL","PDS2014-0001",NA,22,NA,NA,NA,"CS","Clinical Sign","CLINICAL SIGNS",NA,NA,"No abnormalities","No abnormalities",NA,NA,NA,NA,NA,NA,NA,NA,23,"2011-01-02T08:17:56",23,NA,NA,NA,NA,NA
"PDS2014","CL","PDS2014-0001",NA,23,NA,NA,NA,"CS","Clinical Sign","CLINICAL SIGNS",NA,NA,"No abnormalities","No abnormalities",NA,NA,NA,NA,NA,NA,NA,NA,15,"2010-12-25T11:16:05",15,NA,NA,NA,NA,NA
"PDS2014","CL","PDS2014-0001",NA,24,NA,NA,NA,"CS","Clinical Sign","CLINICAL SIGNS",NA,NA,"No abnormalities","No abnormalities",NA,NA,NA,NA,NA,NA,NA,NA,11,"2010-12-21T07:29:59",11,NA,NA,NA,NA,NA
"PDS2014","CL","PDS2014-0001",NA,25,NA,NA,NA,"CS","Clinical Sign","CLINICAL SIGNS",NA,NA,"No abnormalities","No abnormalities",NA,NA,NA,NA,NA,NA,NA,NA,26,"2011-01-05T10:05:01",26,NA,NA,NA,NA,NA
"PDS2014","CL","PDS2014-0001",NA,26,NA,NA,NA,"CS","Clinical Sign","CLINICAL SIGNS",NA,NA,"No abnormalities","No abnormalities",NA,NA,NA,NA,NA,NA,NA,NA,23,"2011-01-02T06:29:04",23,NA,NA,NA,NA,NA
"PDS2014","CL","PDS2014-0001",NA,27,NA,NA,NA,"CS","Clinical Sign","CLINICAL SIGNS",NA,NA,"No abnormalities","No abnormalities",NA,NA,NA,NA,NA,NA,NA,NA,8,"2010-12-18T08:14:27",8,NA,NA,NA,NA,NA
"PDS2014","CL","PDS2014-0001",NA,28,NA,NA,NA,"CS","Clinical Sign","CLINICAL SIGNS",NA,NA,"No abnormalities","No abnormalities",NA,NA,NA,NA,NA,NA,NA,NA,19,"2010-12-29T09:34:46",19,NA,NA,NA,NA,NA
"PDS2014","CL","PDS2014-0001",NA,29,NA,NA,NA,"CS","Clinical Sign","CLINICAL SIGNS",NA,NA,"No abnormalities","No abnormalities",NA,NA,NA,NA,NA,NA,NA,NA,5,"2010-12-15T08:37:15",5,NA,NA,NA,NA,NA
"PDS2014","CL","PDS2014-0001",NA,30,NA,NA,NA,"CS","Clinical Sign","CLINICAL SIGNS",NA,NA,"No abnormalities","No abnormalities",NA,NA,NA,NA,NA,NA,NA,NA,25,"2011-01-04T08:29:35",25,NA,NA,NA,NA,NA
"PDS2014","CL","PDS2014-0001",NA,31,NA,NA,NA,"CS","Clinical Sign","CLINICAL SIGNS",NA,NA,"No abnormalities","No abnormalities",NA,NA,NA,NA,NA,NA,NA,NA,16,"2010-12-26T06:59:23",16,NA,NA,NA,NA,NA
"PDS2014","CL","PDS2014-0001",NA,32,NA,NA,NA,"CS","Clinical Sign","CLINICAL SIGNS",NA,NA,"No abnormalities","No abnormalities",NA,NA,NA,NA,NA,NA,NA,NA,1,"2010-12-11T13:13:25",1,NA,NA,NA,NA,NA
"PDS2014","CL","PDS2014-0001",NA,33,NA,NA,NA,"CS","Clinical Sign","CLINICAL SIGNS",NA,NA,"No abnormalities","No abnormalities",NA,NA,NA,NA,NA,NA,NA,NA,15,"2010-12-25T08:24:08",15,NA,NA,NA,NA,NA
"PDS2014","CL","PDS2014-0001",NA,34,NA,NA,NA,"CS","Clinical Sign","CLINICAL SIGNS",NA,NA,"No abnormalities","No abnormalities",NA,NA,NA,NA,NA,NA,NA,NA,14,"2010-12-24T07:59:18",14,NA,NA,NA,NA,NA
"PDS2014","CL","PDS2014-0001",NA,35,NA,NA,NA,"CS","Clinical Sign","CLINICAL SIGNS",NA,NA,"No abnormalities","No abnormalities",NA,NA,NA,NA,NA,NA,NA,NA,25,"2011-01-04T08:21:06",25,NA,NA,NA,NA,NA
"PDS2014","CL","PDS2014-0001",NA,36,NA,NA,NA,"CS","Clinical Sign","CLINICAL SIGNS",NA,NA,"No abnormalities","No abnormalities",NA,NA,NA,NA,NA,NA,NA,NA,12,"2010-12-22T08:09:19",12,NA,NA,NA,NA,NA
"PDS2014","CL","PDS2014-0001",NA,37,NA,NA,NA,"CS","Clinical Sign","CLINICAL SIGNS",NA,NA,"No abnormalities","No abnormalities",NA,NA,NA,NA,NA,NA,NA,NA,28,"2011-01-07T07:27:06",28,NA,NA,NA,NA,NA
"PDS2014","CL","PDS2014-0001",NA,38,NA,NA,NA,"CS","Clinical Sign","CLINICAL SIGNS",NA,NA,"No abnormalities","No abnormalities",NA,NA,NA,NA,NA,NA,NA,NA,15,"2010-12-25T12:59:20",15,NA,NA,NA,NA,NA
"PDS2014","CL","PDS2014-0001",NA,39,NA,NA,NA,"CS","Clinical Sign","CLINICAL SIGNS",NA,NA,"No abnormalities","No abnormalities",NA,NA,NA,NA,NA,NA,NA,NA,22,"2011-01-01T06:32:11",22,NA,NA,NA,NA,NA
"PDS2014","CL","PDS2014-0001",NA,40,NA,NA,NA,"CS","Clinical Sign","CLINICAL SIGNS",NA,NA,"No abnormalities","No abnormalities",NA,NA,NA,NA,NA,NA,NA,NA,8,"2010-12-18T08:04:34",8,NA,NA,NA,NA,NA
"PDS2014","CL","PDS2014-0001",NA,41,NA,NA,NA,"CS","Clinical Sign","CLINICAL SIGNS",NA,NA,"No abnormalities","No abnormalities",NA,NA,NA,NA,NA,NA,NA,NA,18,"2010-12-28T07:57:27",18,NA,NA,NA,NA,NA
"PDS2014","CL","PDS2014-0001",NA,42,NA,NA,NA,"CS","Clinical Sign","CLINICAL SIGNS",NA,NA,"No abnormalities","No abnormalities",NA,NA,NA,NA,NA,NA,NA,NA,8,"2010-12-18T09:53:45",8,NA,NA,NA,NA,NA
"PDS2014","CL","PDS2014-0001",NA,43,NA,NA,NA,"CS","Clinical Sign","OPHTHALMOLOGY",NA,NA,"No abnormalities","No abnormalities",NA,NA,NA,NA,NA,NA,NA,NA,-1,"2010-12-10T10:45:50",-1,NA,NA,NA,NA,NA
"PDS2014","CL","PDS2014-0001",NA,44,NA,NA,NA,"CS","Clinical Sign","CLINICAL SIGNS",NA,NA,"No abnormalities","No abnormalities",NA,NA,NA,NA,NA,NA,NA,NA,15,"2010-12-25T07:27:18",15,NA,NA,NA,NA,NA
"PDS2014","CL","PDS2014-0001",NA,45,NA,NA,NA,"CS","Clinical Sign","CLINICAL SIGNS",NA,NA,"No abnormalities","No abnormalities",NA,NA,NA,NA,NA,NA,NA,NA,22,"2011-01-01T07:56:48",22,NA,NA,NA,NA,NA
"PDS2014","CL","PDS2014-0001",NA,46,NA,NA,NA,"CS","Clinical Sign","CLINICAL SIGNS",NA,NA,"No abnormalities","No abnormalities",NA,NA,NA,NA,NA,NA,NA,NA,8,"2010-12-18T09:05:50",8,NA,NA,NA,NA,NA
"PDS2014","CL","PDS2014-0001",NA,47,NA,NA,NA,"CS","Clinical Sign","CLINICAL SIGNS",NA,NA,"No abnormalities","No abnormalities",NA,NA,NA,NA,NA,NA,NA,NA,8,"2010-12-18T15:08:57",8,NA,NA,NA,NA,NA
"PDS2014","CL","PDS2014-0001",NA,48,NA,NA,NA,"CS","Clinical Sign","CLINICAL SIGNS",NA,NA,"No abnormalities","No abnormalities",NA,NA,NA,NA,NA,NA,NA,NA,1,"2010-12-11T09:30:54",1,NA,NA,NA,NA,NA
"PDS2014","CL","PDS2014-0001",NA,49,NA,NA,NA,"CS","Clinical Sign","CLINICAL SIGNS",NA,NA,"No abnormalities","No abnormalities",NA,NA,NA,NA,NA,NA,NA,NA,30,"2011-01-09T07:40:47",30,NA,NA,NA,NA,NA
"PDS2014","CL","PDS2014-0001",NA,50,NA,NA,NA,"CS","Clinical Sign","CLINICAL SIGNS",NA,NA,"No abnormalities","No abnormalities",NA,NA,NA,NA,NA,NA,NA,NA,4,"2010-12-14T09:56:20",4,NA,NA,NA,NA,NA
"PDS2014","CL","PDS2014-0001",NA,51,NA,NA,NA,"CS","Clinical Sign","OPHTHALMOLOGY",NA,NA,"No abnormalities","No abnormalities",NA,NA,NA,NA,NA,NA,NA,NA,28,"2011-01-07T10:41:07",28,NA,NA,NA,NA,NA
"PDS2014","CL","PDS2014-0001",NA,52,NA,NA,NA,"CS","Clinical Sign","CLINICAL SIGNS",NA,NA,"No abnormalities","No abnormalities",NA,NA,NA,NA,NA,NA,NA,NA,16,"2010-12-26T07:05:06",16,NA,NA,NA,NA,NA
"PDS2014","CL","PDS2014-0001",NA,53,NA,NA,NA,"CS","Clinical Sign","CLINICAL SIGNS",NA,NA,"No abnormalities","No abnormalities",NA,NA,NA,NA,NA,NA,NA,NA,22,"2011-01-01T07:25:58",22,NA,NA,NA,NA,NA
"PDS2014","CL","PDS2014-0001",NA,54,NA,NA,NA,"CS","Clinical Sign","CLINICAL SIGNS",NA,NA,"No abnormalities","No abnormalities",NA,NA,NA,NA,NA,NA,NA,NA,2,"2010-12-12T10:37:40",2,NA,NA,NA,NA,NA
"PDS2014","CL","PDS2014-0001",NA,55,NA,NA,NA,"CS","Clinical Sign","CLINICAL SIGNS",NA,NA,"No abnormalities","No abnormalities",NA,NA,NA,NA,NA,NA,NA,NA,1,"2010-12-11T15:11:14",1,NA,NA,NA,NA,NA
"PDS2014","CL","PDS2014-0001",NA,56,NA,NA,NA,"CS","Clinical Sign","CLINICAL SIGNS",NA,NA,"No abnormalities","No abnormalities",NA,NA,NA,NA,NA,NA,NA,NA,8,"2010-12-18T11:44:47",8,NA,NA,NA,NA,NA
"PDS2014","CL","PDS2014-0001",NA,57,NA,NA,NA,"CS","Clinical Sign","CLINICAL SIGNS",NA,NA,"No abnormalities","No abnormalities",NA,NA,NA,NA,NA,NA,NA,NA,1,"2010-12-11T13:09:50",1,NA,NA,NA,NA,NA
"PDS2014","CL","PDS2014-0001",NA,58,NA,NA,NA,"CS","Clinical Sign","CLINICAL SIGNS",NA,NA,"No abnormalities","No abnormalities",NA,NA,NA,NA,NA,NA,NA,NA,1,"2010-12-11T11:18:24",1,NA,NA,NA,NA,NA
"PDS2014","CL","PDS2014-0001",NA,59,NA,NA,NA,"CS","Clinical Sign","CLINICAL SIGNS",NA,NA,"No abnormalities","No abnormalities",NA,NA,NA,NA,NA,NA,NA,NA,15,"2010-12-25T09:02:25",15,NA,NA,NA,NA,NA
"PDS2014","CL","PDS2014-0001",NA,60,NA,NA,NA,"CS","Clinical Sign","CLINICAL SIGNS",NA,NA,"No abnormalities","No abnormalities",NA,NA,NA,NA,NA,NA,NA,NA,27,"2011-01-06T08:56:42",27,NA,NA,NA,NA,NA
"PDS2014","CL","PDS2014-0001",NA,61,NA,NA,NA,"CS","Clinical Sign","CLINICAL SIGNS",NA,NA,"No abnormalities","No abnormalities",NA,NA,NA,NA,NA,NA,NA,NA,17,"2010-12-27T09:59:01",17,NA,NA,NA,NA,NA
"PDS2014","CL","PDS2014-0001",NA,62,NA,NA,NA,"CS","Clinical Sign","CLINICAL SIGNS",NA,NA,"No abnormalities","No abnormalities",NA,NA,NA,NA,NA,NA,NA,NA,25,"2011-01-04T08:10:54",25,NA,NA,NA,NA,NA
"PDS2014","CL","PDS2014-0001",NA,63,NA,NA,NA,"CS","Clinical Sign","CLINICAL SIGNS",NA,NA,"No abnormalities","No abnormalities",NA,NA,NA,NA,NA,NA,NA,NA,26,"2011-01-05T08:08:11",26,NA,NA,NA,NA,NA
"PDS2014","CL","PDS2014-0001",NA,64,NA,NA,NA,"CS","Clinical Sign","CLINICAL SIGNS",NA,NA,"No abnormalities","No abnormalities",NA,NA,NA,NA,NA,NA,NA,NA,25,"2011-01-04T15:26:10",25,NA,NA,NA,NA,NA
"PDS2014","CL","PDS2014-0001",NA,65,NA,NA,NA,"CS","Clinical Sign","CLINICAL SIGNS",NA,NA,"No abnormalities","No abnormalities",NA,NA,NA,NA,NA,NA,NA,NA,1,"2010-12-11T10:14:27",1,NA,NA,NA,NA,NA
"PDS2014","CL","PDS2014-0001",NA,66,NA,NA,NA,"CS","Clinical Sign","CLINICAL SIGNS",NA,NA,"No abnormalities","No abnormalities",NA,NA,NA,NA,NA,NA,NA,NA,15,"2010-12-25T10:38:59",15,NA,NA,NA,NA,NA
"PDS2014","CL","PDS2014-0001",NA,67,NA,NA,NA,"CS","Clinical Sign","CLINICAL SIGNS",NA,NA,"No abnormalities","No abnormalities",NA,NA,NA,NA,NA,NA,NA,NA,8,"2010-12-18T07:52:06",8,NA,NA,NA,NA,NA
"PDS2014","CL","PDS2014-0002",NA,68,NA,NA,NA,"CS","Clinical Sign","CLINICAL SIGNS",NA,NA,"No abnormalities","No abnormalities",NA,NA,NA,NA,NA,NA,NA,NA,22,"2011-01-01T10:04:22",22,NA,NA,NA,NA,NA
"PDS2014","CL","PDS2014-0002",NA,69,NA,NA,NA,"CS","Clinical Sign","CLINICAL SIGNS",NA,NA,"No abnormalities","No abnormalities",NA,NA,NA,NA,NA,NA,NA,NA,1,"2010-12-11T15:11:14",1,NA,NA,NA,NA,NA
"PDS2014","CL","PDS2014-0002",NA,70,NA,NA,NA,"CS","Clinical Sign","CLINICAL SIGNS",NA,NA,"No abnormalities","No abnormalities",NA,NA,NA,NA,NA,NA,NA,NA,22,"2011-01-01T08:25:39",22,NA,NA,NA,NA,NA
"PDS2014","CL","PDS2014-0002",NA,71,NA,NA,NA,"CS","Clinical Sign","CLINICAL SIGNS",NA,NA,"No abnormalities","No abnormalities",NA,NA,NA,NA,NA,NA,NA,NA,25,"2011-01-04T15:26:10",25,NA,NA,NA,NA,NA
"PDS2014","CL","PDS2014-0002",NA,72,NA,NA,NA,"CS","Clinical Sign","CLINICAL SIGNS",NA,NA,"No abnormalities","No abnormalities",NA,NA,NA,NA,NA,NA,NA,NA,1,"2010-12-11T09:17:21",1,NA,NA,NA,NA,NA
"PDS2014","CL","PDS2014-0002",NA,73,NA,NA,NA,"CS","Clinical Sign","CLINICAL SIGNS",NA,NA,"No abnormalities","No abnormalities",NA,NA,NA,NA,NA,NA,NA,NA,3,"2010-12-13T11:14:24",3,NA,NA,NA,NA,NA
"PDS2014","CL","PDS2014-0002",NA,74,NA,NA,NA,"CS","Clinical Sign","CLINICAL SIGNS",NA,NA,"No abnormalities","No abnormalities",NA,NA,NA,NA,NA,NA,NA,NA,29,"2011-01-08T07:20:13",29,NA,NA,NA,NA,NA
"PDS2014","CL","PDS2014-0002",NA,75,NA,NA,NA,"CS","Clinical Sign","CLINICAL SIGNS",NA,NA,"No abnormalities","No abnormalities",NA,NA,NA,NA,NA,NA,NA,NA,15,"2010-12-25T11:16:05",15,NA,NA,NA,NA,NA
"PDS2014","CL","PDS2014-0002",NA,76,NA,NA,NA,"CS","Clinical Sign","CLINICAL SIGNS",NA,NA,"No abnormalities","No abnormalities",NA,NA,NA,NA,NA,NA,NA,NA,8,"2010-12-18T11:44:47",8,NA,NA,NA,NA,NA
"PDS2014","CL","PDS2014-0002",NA,77,NA,NA,NA,"CS","Clinical Sign","CLINICAL SIGNS",NA,NA,"No abnormalities","No abnormalities",NA,NA,NA,NA,NA,NA,NA,NA,21,"2010-12-31T08:53:05",21,NA,NA,NA,NA,NA
"PDS2014","CL","PDS2014-0002",NA,78,NA,NA,NA,"CS","Clinical Sign","CLINICAL SIGNS",NA,NA,"No abnormalities","No abnormalities",NA,NA,NA,NA,NA,NA,NA,NA,10,"2010-12-20T11:00:10",10,NA,NA,NA,NA,NA
"PDS2014","CL","PDS2014-0002",NA,79,NA,NA,NA,"CS","Clinical Sign","CLINICAL SIGNS",NA,NA,"No abnormalities","No abnormalities",NA,NA,NA,NA,NA,NA,NA,NA,22,"2011-01-01T07:56:48",22,NA,NA,NA,NA,NA
"PDS2014","CL","PDS2014-0002",NA,80,NA,NA,NA,"CS","Clinical Sign","CLINICAL SIGNS",NA,NA,"No abnormalities","No abnormalities",NA,NA,NA,NA,NA,NA,NA,NA,25,"2011-01-04T09:53:12",25,NA,NA,NA,NA,NA
"PDS2014","CL","PDS2014-0002",NA,81,NA,NA,NA,"CS","Clinical Sign","CLINICAL SIGNS",NA,NA,"No abnormalities","No abnormalities",NA,NA,NA,NA,NA,NA,NA,NA,25,"2011-01-04T08:38:48",25,NA,NA,NA,NA,NA
"PDS2014","CL","PDS2014-0002",NA,82,NA,NA,NA,"CS","Clinical Sign","CLINICAL SIGNS",NA,NA,"No abnormalities","No abnormalities",NA,NA,NA,NA,NA,NA,NA,NA,25,"2011-01-04T11:33:45",25,NA,NA,NA,NA,NA
"PDS2014","CL","PDS2014-0002",NA,83,NA,NA,NA,"CS","Clinical Sign","CLINICAL SIGNS",NA,NA,"No abnormalities","No abnormalities",NA,NA,NA,NA,NA,NA,NA,NA,24,"2011-01-03T08:36:36",24,NA,NA,NA,NA,NA
"PDS2014","CL","PDS2014-0002",NA,84,NA,NA,NA,"CS","Clinical Sign","CLINICAL SIGNS",NA,NA,"No abnormalities","No abnormalities",NA,NA,NA,NA,NA,NA,NA,NA,13,"2010-12-23T07:29:02",13,NA,NA,NA,NA,NA
"PDS2014","CL","PDS2014-0002",NA,85,NA,NA,NA,"CS","Clinical Sign","CLINICAL SIGNS",NA,NA,"No abnormalities","No abnormalities",NA,NA,NA,NA,NA,NA,NA,NA,6,"2010-12-16T08:57:44",6,NA,NA,NA,NA,NA
"PDS2014","CL","PDS2014-0002",NA,86,NA,NA,NA,"CS","Clinical Sign","CLINICAL SIGNS",NA,NA,"No abnormalities","No abnormalities",NA,NA,NA,NA,NA,NA,NA,NA,15,"2010-12-25T12:59:20",15,NA,NA,NA,NA,NA
"PDS2014","CL","PDS2014-0002",NA,87,NA,NA,NA,"CS","Clinical Sign","CLINICAL SIGNS",NA,NA,"No abnormalities","No abnormalities",NA,NA,NA,NA,NA,NA,NA,NA,23,"2011-01-02T06:29:04",23,NA,NA,NA,NA,NA
"PDS2014","CL","PDS2014-0002",NA,88,NA,NA,NA,"CS","Clinical Sign","CLINICAL SIGNS",NA,NA,"No abnormalities","No abnormalities",NA,NA,NA,NA,NA,NA,NA,NA,7,"2010-12-17T08:06:21",7,NA,NA,NA,NA,NA
"PDS2014","CL","PDS2014-0002",NA,89,NA,NA,NA,"CS","Clinical Sign","CLINICAL SIGNS",NA,NA,"No abnormalities","No abnormalities",NA,NA,NA,NA,NA,NA,NA,NA,20,"2010-12-30T08:08:39",20,NA,NA,NA,NA,NA
"PDS2014","CL","PDS2014-0002",NA,90,NA,NA,NA,"CS","Clinical Sign","CLINICAL SIGNS",NA,NA,"No abnormalities","No abnormalities",NA,NA,NA,NA,NA,NA,NA,NA,9,"2010-12-19T11:43:59",9,NA,NA,NA,NA,NA
"PDS2014","CL","PDS2014-0002",NA,91,NA,NA,NA,"CS","Clinical Sign","CLINICAL SIGNS",NA,NA,"No abnormalities","No abnormalities",NA,NA,NA,NA,NA,NA,NA,NA,2,"2010-12-12T09:12:57",2,NA,NA,NA,NA,NA
"PDS2014","CL","PDS2014-0002",NA,92,NA,NA,NA,"CS","Clinical Sign","CLINICAL SIGNS",NA,NA,"No abnormalities","No abnormalities",NA,NA,NA,NA,NA,NA,NA,NA,15,"2010-12-25T07:18:27",15,NA,NA,NA,NA,NA
"PDS2014","CL","PDS2014-0002",NA,93,NA,NA,NA,"CS","Clinical Sign","CLINICAL SIGNS",NA,NA,"No abnormalities","No abnormalities",NA,NA,NA,NA,NA,NA,NA,NA,11,"2010-12-21T07:29:59",11,NA,NA,NA,NA,NA
"PDS2014","CL","PDS2014-0002",NA,94,NA,NA,NA,"CS","Clinical Sign","CLINICAL SIGNS",NA,NA,"No abnormalities","No abnormalities",NA,NA,NA,NA,NA,NA,NA,NA,23,"2011-01-02T08:17:56",23,NA,NA,NA,NA,NA
"PDS2014","CL","PDS2014-0002",NA,95,NA,NA,NA,"CS","Clinical Sign","CLINICAL SIGNS",NA,NA,"No abnormalities","No abnormalities",NA,NA,NA,NA,NA,NA,NA,NA,9,"2010-12-19T08:07:39",9,NA,NA,NA,NA,NA
"PDS2014","CL","PDS2014-0002",NA,96,NA,NA,NA,"CS","Clinical Sign","CLINICAL SIGNS",NA,NA,"No abnormalities","No abnormalities",NA,NA,NA,NA,NA,NA,NA,NA,16,"2010-12-26T06:59:23",16,NA,NA,NA,NA,NA
"PDS2014","CL","PDS2014-0002",NA,97,NA,NA,NA,"CS","Clinical Sign","CLINICAL SIGNS",NA,NA,"No abnormalities","No abnormalities",NA,NA,NA,NA,NA,NA,NA,NA,19,"2010-12-29T09:34:46",19,NA,NA,NA,NA,NA
"PDS2014","CL","PDS2014-0002",NA,98,NA,NA,NA,"CS","Clinical Sign","CLINICAL SIGNS",NA,NA,"No abnormalities","No abnormalities",NA,NA,NA,NA,NA,NA,NA,NA,8,"2010-12-18T08:14:27",8,NA,NA,NA,NA,NA
"PDS2014","CL","PDS2014-0002",NA,99,NA,NA,NA,"CS","Clinical Sign","CLINICAL SIGNS",NA,NA,"No abnormalities","No abnormalities",NA,NA,NA,NA,NA,NA,NA,NA,12,"2010-12-22T08:09:19",12,NA,NA,NA,NA,NA
"PDS2014","CL","PDS2014-0002",NA,100,NA,NA,NA,"CS","Clinical Sign","CLINICAL SIGNS",NA,NA,"No abnormalities","No abnormalities",NA,NA,NA,NA,NA,NA,NA,NA,25,"2011-01-04T08:29:35",25,NA,NA,NA,NA,NA
"PDS2014","CL","PDS2014-0002",NA,101,NA,NA,NA,"CS","Clinical Sign","CLINICAL SIGNS",NA,NA,"No abnormalities","No abnormalities",NA,NA,NA,NA,NA,NA,NA,NA,2,"2010-12-12T10:37:40",2,NA,NA,NA,NA,NA
"PDS2014","CL","PDS2014-0002",NA,102,NA,NA,NA,"CS","Clinical Sign","CLINICAL SIGNS",NA,NA,"No abnormalities","No abnormalities",NA,NA,NA,NA,NA,NA,NA,NA,5,"2010-12-15T08:37:15",5,NA,NA,NA,NA,NA
"PDS2014","CL","PDS2014-0002",NA,103,NA,NA,NA,"CS","Clinical Sign","CLINICAL SIGNS",NA,NA,"No abnormalities","No abnormalities",NA,NA,NA,NA,NA,NA,NA,NA,8,"2010-12-18T07:59:19",8,NA,NA,NA,NA,NA
"PDS2014","CL","PDS2014-0002",NA,104,NA,NA,NA,"CS","Clinical Sign","CLINICAL SIGNS",NA,NA,"No abnormalities","No abnormalities",NA,NA,NA,NA,NA,NA,NA,NA,8,"2010-12-18T07:59:18",8,NA,NA,NA,NA,NA
"PDS2014","CL","PDS2014-0002",NA,105,NA,NA,NA,"CS","Clinical Sign","CLINICAL SIGNS",NA,NA,"No abnormalities","No abnormalities",NA,NA,NA,NA,NA,NA,NA,NA,25,"2011-01-04T08:22:27",25,NA,NA,NA,NA,NA
"PDS2014","CL","PDS2014-0002",NA,106,NA,NA,NA,"CS","Clinical Sign","CLINICAL SIGNS",NA,NA,"No abnormalities","No abnormalities",NA,NA,NA,NA,NA,NA,NA,NA,14,"2010-12-24T07:59:18",14,NA,NA,NA,NA,NA
"PDS2014","CL","PDS2014-0002",NA,107,NA,NA,NA,"CS","Clinical Sign","CLINICAL SIGNS",NA,NA,"No abnormalities","No abnormalities",NA,NA,NA,NA,NA,NA,NA,NA,15,"2010-12-25T08:24:08",15,NA,NA,NA,NA,NA
"PDS2014","CL","PDS2014-0002",NA,108,NA,NA,NA,"CS","Clinical Sign","OPHTHALMOLOGY",NA,NA,"No abnormalities","No abnormalities",NA,NA,NA,NA,NA,NA,NA,NA,28,"2011-01-07T10:43:33",28,NA,NA,NA,NA,NA
"PDS2014","CL","PDS2014-0002",NA,109,NA,NA,NA,"CS","Clinical Sign","CLINICAL SIGNS",NA,NA,"No abnormalities","No abnormalities",NA,NA,NA,NA,NA,NA,NA,NA,8,"2010-12-18T07:59:38",8,NA,NA,NA,NA,NA
"PDS2014","CL","PDS2014-0002",NA,110,NA,NA,NA,"CS","Clinical Sign","CLINICAL SIGNS",NA,NA,"No abnormalities","No abnormalities",NA,NA,NA,NA,NA,NA,NA,NA,26,"2011-01-05T10:05:01",26,NA,NA,NA,NA,NA
"PDS2014","CL","PDS2014-0002",NA,111,NA,NA,NA,"CS","Clinical Sign","CLINICAL SIGNS",NA,NA,"No abnormalities","No abnormalities",NA,NA,NA,NA,NA,NA,NA,NA,22,"2011-01-01T06:32:11",22,NA,NA,NA,NA,NA
"PDS2014","CL","PDS2014-0002",NA,112,NA,NA,NA,"CS","Clinical Sign","CLINICAL SIGNS",NA,NA,"No abnormalities","No abnormalities",NA,NA,NA,NA,NA,NA,NA,NA,18,"2010-12-28T07:57:27",18,NA,NA,NA,NA,NA
"PDS2014","CL","PDS2014-0002",NA,113,NA,NA,NA,"CS","Clinical Sign","CLINICAL SIGNS",NA,NA,"No abnormalities","No abnormalities",NA,NA,NA,NA,NA,NA,NA,NA,28,"2011-01-07T07:27:06",28,NA,NA,NA,NA,NA
"PDS2014","CL","PDS2014-0002",NA,114,NA,NA,NA,"CS","Clinical Sign","CLINICAL SIGNS",NA,NA,"No abnormalities","No abnormalities",NA,NA,NA,NA,NA,NA,NA,NA,1,"2010-12-11T13:13:25",1,NA,NA,NA,NA,NA
"PDS2014","CL","PDS2014-0002",NA,115,NA,NA,NA,"CS","Clinical Sign","CLINICAL SIGNS",NA,NA,"No abnormalities","No abnormalities",NA,NA,NA,NA,NA,NA,NA,NA,8,"2010-12-18T09:53:45",8,NA,NA,NA,NA,NA
"PDS2014","CL","PDS2014-0002",NA,116,NA,NA,NA,"CS","Clinical Sign","CLINICAL SIGNS",NA,NA,"No abnormalities","No abnormalities",NA,NA,NA,NA,NA,NA,NA,NA,16,"2010-12-26T07:04:40",16,NA,NA,NA,NA,NA
"PDS2014","CL","PDS2014-0002",NA,117,NA,NA,NA,"CS","Clinical Sign","CLINICAL SIGNS",NA,NA,"No abnormalities","No abnormalities",NA,NA,NA,NA,NA,NA,NA,NA,26,"2011-01-05T08:08:11",26,NA,NA,NA,NA,NA
"PDS2014","CL","PDS2014-0002",NA,118,NA,NA,NA,"CS","Clinical Sign","CLINICAL SIGNS",NA,NA,"No abnormalities","No abnormalities",NA,NA,NA,NA,NA,NA,NA,NA,15,"2010-12-25T07:25:45",15,NA,NA,NA,NA,NA
"PDS2014","CL","PDS2014-0002",NA,119,NA,NA,NA,"CS","Clinical Sign","CLINICAL SIGNS",NA,NA,"No abnormalities","No abnormalities",NA,NA,NA,NA,NA,NA,NA,NA,30,"2011-01-09T07:41:50",30,NA,NA,NA,NA,NA
"PDS2014","CL","PDS2014-0002",NA,120,NA,NA,NA,"CS","Clinical Sign","CLINICAL SIGNS",NA,NA,"No abnormalities","No abnormalities",NA,NA,NA,NA,NA,NA,NA,NA,1,"2010-12-11T09:30:31",1,NA,NA,NA,NA,NA
"PDS2014","CL","PDS2014-0002",NA,121,NA,NA,NA,"CS","Clinical Sign","CLINICAL SIGNS",NA,NA,"No abnormalities","No abnormalities",NA,NA,NA,NA,NA,NA,NA,NA,8,"2010-12-18T15:08:57",8,NA,NA,NA,NA,NA
"PDS2014","CL","PDS2014-0002",NA,122,NA,NA,NA,"CS","Clinical Sign","CLINICAL SIGNS",NA,NA,"No abnormalities","No abnormalities",NA,NA,NA,NA,NA,NA,NA,NA,1,"2010-12-11T13:09:50",1,NA,NA,NA,NA,NA
"PDS2014","CL","PDS2014-0002",NA,123,NA,NA,NA,"CS","Clinical Sign","OPHTHALMOLOGY",NA,NA,"No abnormalities","No abnormalities",NA,NA,NA,NA,NA,NA,NA,NA,-1,"2010-12-10T10:45:00",-1,NA,NA,NA,NA,NA
"PDS2014","CL","PDS2014-0002",NA,124,NA,NA,NA,"CS","Clinical Sign","CLINICAL SIGNS",NA,NA,"No abnormalities","No abnormalities",NA,NA,NA,NA,NA,NA,NA,NA,25,"2011-01-04T08:10:54",25,NA,NA,NA,NA,NA
"PDS2014","CL","PDS2014-0002",NA,125,NA,NA,NA,"CS","Clinical Sign","CLINICAL SIGNS",NA,NA,"No abnormalities","No abnormalities",NA,NA,NA,NA,NA,NA,NA,NA,4,"2010-12-14T09:56:20",4,NA,NA,NA,NA,NA
"PDS2014","CL","PDS2014-0002",NA,126,NA,NA,NA,"CS","Clinical Sign","CLINICAL SIGNS",NA,NA,"No abnormalities","No abnormalities",NA,NA,NA,NA,NA,NA,NA,NA,1,"2010-12-11T11:18:24",1,NA,NA,NA,NA,NA
"PDS2014","CL","PDS2014-0002",NA,127,NA,NA,NA,"CS","Clinical Sign","CLINICAL SIGNS",NA,NA,"No abnormalities","No abnormalities",NA,NA,NA,NA,NA,NA,NA,NA,15,"2010-12-25T09:02:25",15,NA,NA,NA,NA,NA
"PDS2014","CL","PDS2014-0002",NA,128,NA,NA,NA,"CS","Clinical Sign","CLINICAL SIGNS",NA,NA,"No abnormalities","No abnormalities",NA,NA,NA,NA,NA,NA,NA,NA,22,"2011-01-01T06:40:16",22,NA,NA,NA,NA,NA
"PDS2014","CL","PDS2014-0002",NA,129,NA,NA,NA,"CS","Clinical Sign","CLINICAL SIGNS",NA,NA,"No abnormalities","No abnormalities",NA,NA,NA,NA,NA,NA,NA,NA,1,"2010-12-11T10:14:27",1,NA,NA,NA,NA,NA
"PDS2014","CL","PDS2014-0002",NA,130,NA,NA,NA,"CS","Clinical Sign","CLINICAL SIGNS",NA,NA,"No abnormalities","No abnormalities",NA,NA,NA,NA,NA,NA,NA,NA,22,"2011-01-01T07:25:58",22,NA,NA,NA,NA,NA
"PDS2014","CL","PDS2014-0002",NA,131,NA,NA,NA,"CS","Clinical Sign","CLINICAL SIGNS",NA,NA,"No abnormalities","No abnormalities",NA,NA,NA,NA,NA,NA,NA,NA,15,"2010-12-25T10:38:59",15,NA,NA,NA,NA,NA
"PDS2014","CL","PDS2014-0002",NA,132,NA,NA,NA,"CS","Clinical Sign","CLINICAL SIGNS",NA,NA,"No abnormalities","No abnormalities",NA,NA,NA,NA,NA,NA,NA,NA,22,"2011-01-01T11:37:26",22,NA,NA,NA,NA,NA
"PDS2014","CL","PDS2014-0002",NA,133,NA,NA,NA,"CS","Clinical Sign","CLINICAL SIGNS",NA,NA,"No abnormalities","No abnormalities",NA,NA,NA,NA,NA,NA,NA,NA,27,"2011-01-06T08:56:42",27,NA,NA,NA,NA,NA
"PDS2014","CL","PDS2014-0002",NA,134,NA,NA,NA,"CS","Clinical Sign","CLINICAL SIGNS",NA,NA,"No abnormalities","No abnormalities",NA,NA,NA,NA,NA,NA,NA,NA,17,"2010-12-27T09:59:01",17,NA,NA,NA,NA,NA
"PDS2014","CL","PDS2014-0003",NA,135,NA,NA,NA,"CS","Clinical Sign","CLINICAL SIGNS",NA,NA,"No abnormalities","No abnormalities",NA,NA,NA,NA,NA,NA,NA,NA,15,"2010-12-25T12:59:20",15,NA,NA,NA,NA,NA
"PDS2014","CL","PDS2014-0003",NA,136,NA,NA,NA,"CS","Clinical Sign","CLINICAL SIGNS",NA,NA,"No abnormalities","No abnormalities",NA,NA,NA,NA,NA,NA,NA,NA,9,"2010-12-19T08:07:39",9,NA,NA,NA,NA,NA
"PDS2014","CL","PDS2014-0003",NA,137,NA,NA,NA,"CS","Clinical Sign","CLINICAL SIGNS",NA,NA,"No abnormalities","No abnormalities",NA,NA,NA,NA,NA,NA,NA,NA,23,"2011-01-02T06:29:04",23,NA,NA,NA,NA,NA
"PDS2014","CL","PDS2014-0003",NA,138,NA,NA,NA,"CS","Clinical Sign","CLINICAL SIGNS",NA,NA,"No abnormalities","No abnormalities",NA,NA,NA,NA,NA,NA,NA,NA,22,"2011-01-01T07:56:48",22,NA,NA,NA,NA,NA
"PDS2014","CL","PDS2014-0003",NA,139,NA,NA,NA,"CS","Clinical Sign","CLINICAL SIGNS",NA,NA,"No abnormalities","No abnormalities",NA,NA,NA,NA,NA,NA,NA,NA,22,"2011-01-01T06:36:13",22,NA,NA,NA,NA,NA
"PDS2014","CL","PDS2014-0003",NA,140,NA,NA,NA,"CS","Clinical Sign","CLINICAL SIGNS",NA,NA,"No abnormalities","No abnormalities",NA,NA,NA,NA,NA,NA,NA,NA,3,"2010-12-13T11:14:24",3,NA,NA,NA,NA,NA
"PDS2014","CL","PDS2014-0003",NA,141,NA,NA,NA,"CS","Clinical Sign","CLINICAL SIGNS",NA,NA,"No abnormalities","No abnormalities",NA,NA,NA,NA,NA,NA,NA,NA,22,"2011-01-01T07:25:58",22,NA,NA,NA,NA,NA
"PDS2014","CL","PDS2014-0003",NA,142,NA,NA,NA,"CS","Clinical Sign","CLINICAL SIGNS",NA,NA,"No abnormalities","No abnormalities",NA,NA,NA,NA,NA,NA,NA,NA,29,"2011-01-08T07:20:13",29,NA,NA,NA,NA,NA
"PDS2014","CL","PDS2014-0003",NA,143,NA,NA,NA,"CS","Clinical Sign","CLINICAL SIGNS",NA,NA,"No abnormalities","No abnormalities",NA,NA,NA,NA,NA,NA,NA,NA,8,"2010-12-18T09:05:50",8,NA,NA,NA,NA,NA
"PDS2014","CL","PDS2014-0003",NA,144,NA,NA,NA,"CS","Clinical Sign","CLINICAL SIGNS",NA,NA,"No abnormalities","No abnormalities",NA,NA,NA,NA,NA,NA,NA,NA,8,"2010-12-18T11:44:47",8,NA,NA,NA,NA,NA
"PDS2014","CL","PDS2014-0003",NA,145,NA,NA,NA,"CS","Clinical Sign","CLINICAL SIGNS",NA,NA,"No abnormalities","No abnormalities",NA,NA,NA,NA,NA,NA,NA,NA,10,"2010-12-20T11:00:10",10,NA,NA,NA,NA,NA
"PDS2014","CL","PDS2014-0003",NA,146,NA,NA,NA,"CS","Clinical Sign","CLINICAL SIGNS",NA,NA,"No abnormalities","No abnormalities",NA,NA,NA,NA,NA,NA,NA,NA,15,"2010-12-25T11:16:05",15,NA,NA,NA,NA,NA
"PDS2014","CL","PDS2014-0003",NA,147,NA,NA,NA,"CS","Clinical Sign","CLINICAL SIGNS",NA,NA,"No abnormalities","No abnormalities",NA,NA,NA,NA,NA,NA,NA,NA,1,"2010-12-11T13:09:50",1,NA,NA,NA,NA,NA
"PDS2014","CL","PDS2014-0003",NA,148,NA,NA,NA,"CS","Clinical Sign","CLINICAL SIGNS",NA,NA,"No abnormalities","No abnormalities",NA,NA,NA,NA,NA,NA,NA,NA,25,"2011-01-04T09:53:12",25,NA,NA,NA,NA,NA
"PDS2014","CL","PDS2014-0003",NA,149,NA,NA,NA,"CS","Clinical Sign","CLINICAL SIGNS",NA,NA,"No abnormalities","No abnormalities",NA,NA,NA,NA,NA,NA,NA,NA,8,"2010-12-18T07:52:06",8,NA,NA,NA,NA,NA
"PDS2014","CL","PDS2014-0003",NA,150,NA,NA,NA,"CS","Clinical Sign","CLINICAL SIGNS",NA,NA,"No abnormalities","No abnormalities",NA,NA,NA,NA,NA,NA,NA,NA,25,"2011-01-04T08:38:48",25,NA,NA,NA,NA,NA
"PDS2014","CL","PDS2014-0003",NA,151,NA,NA,NA,"CS","Clinical Sign","CLINICAL SIGNS",NA,NA,"No abnormalities","No abnormalities",NA,NA,NA,NA,NA,NA,NA,NA,25,"2011-01-04T08:10:54",25,NA,NA,NA,NA,NA
"PDS2014","CL","PDS2014-0003",NA,152,NA,NA,NA,"CS","Clinical Sign","CLINICAL SIGNS",NA,NA,"No abnormalities","No abnormalities",NA,NA,NA,NA,NA,NA,NA,NA,24,"2011-01-03T08:36:36",24,NA,NA,NA,NA,NA
"PDS2014","CL","PDS2014-0003",NA,153,NA,NA,NA,"CS","Clinical Sign","CLINICAL SIGNS",NA,NA,"No abnormalities","No abnormalities",NA,NA,NA,NA,NA,NA,NA,NA,13,"2010-12-23T07:29:02",13,NA,NA,NA,NA,NA
"PDS2014","CL","PDS2014-0003",NA,154,NA,NA,NA,"CS","Clinical Sign","CLINICAL SIGNS",NA,NA,"No abnormalities","No abnormalities",NA,NA,NA,NA,NA,NA,NA,NA,16,"2010-12-26T06:59:23",16,NA,NA,NA,NA,NA
"PDS2014","CL","PDS2014-0003",NA,155,NA,NA,NA,"CS","Clinical Sign","CLINICAL SIGNS",NA,NA,"No abnormalities","No abnormalities",NA,NA,NA,NA,NA,NA,NA,NA,7,"2010-12-17T08:06:21",7,NA,NA,NA,NA,NA
"PDS2014","CL","PDS2014-0003",NA,156,NA,NA,NA,"CS","Clinical Sign","CLINICAL SIGNS",NA,NA,"No abnormalities","No abnormalities",NA,NA,NA,NA,NA,NA,NA,NA,25,"2011-01-04T15:26:10",25,NA,NA,NA,NA,NA
"PDS2014","CL","PDS2014-0003",NA,157,NA,NA,NA,"CS","Clinical Sign","CLINICAL SIGNS",NA,NA,"No abnormalities","No abnormalities",NA,NA,NA,NA,NA,NA,NA,NA,2,"2010-12-12T09:12:57",2,NA,NA,NA,NA,NA
"PDS2014","CL","PDS2014-0003",NA,158,NA,NA,NA,"CS","Clinical Sign","CLINICAL SIGNS",NA,NA,"No abnormalities","No abnormalities",NA,NA,NA,NA,NA,NA,NA,NA,6,"2010-12-16T08:57:44",6,NA,NA,NA,NA,NA
"PDS2014","CL","PDS2014-0003",NA,159,NA,NA,NA,"CS","Clinical Sign","CLINICAL SIGNS",NA,NA,"No abnormalities","No abnormalities",NA,NA,NA,NA,NA,NA,NA,NA,26,"2011-01-05T10:05:01",26,NA,NA,NA,NA,NA
"PDS2014","CL","PDS2014-0003",NA,160,NA,NA,NA,"CS","Clinical Sign","CLINICAL SIGNS",NA,NA,"No abnormalities","No abnormalities",NA,NA,NA,NA,NA,NA,NA,NA,1,"2010-12-11T15:11:14",1,NA,NA,NA,NA,NA
"PDS2014","CL","PDS2014-0003",NA,161,NA,NA,NA,"CS","Clinical Sign","CLINICAL SIGNS",NA,NA,"No abnormalities","No abnormalities",NA,NA,NA,NA,NA,NA,NA,NA,21,"2010-12-31T08:53:05",21,NA,NA,NA,NA,NA
"PDS2014","CL","PDS2014-0003",NA,162,NA,NA,NA,"CS","Clinical Sign","CLINICAL SIGNS",NA,NA,"No abnormalities","No abnormalities",NA,NA,NA,NA,NA,NA,NA,NA,9,"2010-12-19T11:43:59",9,NA,NA,NA,NA,NA
"PDS2014","CL","PDS2014-0003",NA,163,NA,NA,NA,"CS","Clinical Sign","CLINICAL SIGNS",NA,NA,"No abnormalities","No abnormalities",NA,NA,NA,NA,NA,NA,NA,NA,20,"2010-12-30T08:08:39",20,NA,NA,NA,NA,NA
"PDS2014","CL","PDS2014-0003",NA,164,NA,NA,NA,"CS","Clinical Sign","CLINICAL SIGNS",NA,NA,"No abnormalities","No abnormalities",NA,NA,NA,NA,NA,NA,NA,NA,22,"2011-01-01T11:37:26",22,NA,NA,NA,NA,NA
"PDS2014","CL","PDS2014-0003",NA,165,NA,NA,NA,"CS","Clinical Sign","CLINICAL SIGNS",NA,NA,"No abnormalities","No abnormalities",NA,NA,NA,NA,NA,NA,NA,NA,11,"2010-12-21T07:29:59",11,NA,NA,NA,NA,NA
"PDS2014","CL","PDS2014-0003",NA,166,NA,NA,NA,"CS","Clinical Sign","CLINICAL SIGNS",NA,NA,"No abnormalities","No abnormalities",NA,NA,NA,NA,NA,NA,NA,NA,22,"2011-01-01T06:32:11",22,NA,NA,NA,NA,NA
"PDS2014","CL","PDS2014-0003",NA,167,NA,NA,NA,"CS","Clinical Sign","CLINICAL SIGNS",NA,NA,"No abnormalities","No abnormalities",NA,NA,NA,NA,NA,NA,NA,NA,23,"2011-01-02T08:17:56",23,NA,NA,NA,NA,NA
"PDS2014","CL","PDS2014-0003",NA,168,NA,NA,NA,"CS","Clinical Sign","CLINICAL SIGNS",NA,NA,"No abnormalities","No abnormalities",NA,NA,NA,NA,NA,NA,NA,NA,15,"2010-12-25T08:24:08",15,NA,NA,NA,NA,NA
"PDS2014","CL","PDS2014-0003",NA,169,NA,NA,NA,"CS","Clinical Sign","CLINICAL SIGNS",NA,NA,"No abnormalities","No abnormalities",NA,NA,NA,NA,NA,NA,NA,NA,1,"2010-12-11T09:17:21",1,NA,NA,NA,NA,NA
"PDS2014","CL","PDS2014-0003",NA,170,NA,NA,NA,"CS","Clinical Sign","CLINICAL SIGNS",NA,NA,"No abnormalities","No abnormalities",NA,NA,NA,NA,NA,NA,NA,NA,15,"2010-12-25T10:38:59",15,NA,NA,NA,NA,NA
"PDS2014","CL","PDS2014-0003",NA,171,NA,NA,NA,"CS","Clinical Sign","CLINICAL SIGNS",NA,NA,"No abnormalities","No abnormalities",NA,NA,NA,NA,NA,NA,NA,NA,25,"2011-01-04T11:33:45",25,NA,NA,NA,NA,NA
"PDS2014","CL","PDS2014-0003",NA,172,NA,NA,NA,"CS","Clinical Sign","CLINICAL SIGNS",NA,NA,"No abnormalities","No abnormalities",NA,NA,NA,NA,NA,NA,NA,NA,19,"2010-12-29T09:34:46",19,NA,NA,NA,NA,NA
"PDS2014","CL","PDS2014-0003",NA,173,NA,NA,NA,"CS","Clinical Sign","CLINICAL SIGNS",NA,NA,"No abnormalities","No abnormalities",NA,NA,NA,NA,NA,NA,NA,NA,1,"2010-12-11T13:13:25",1,NA,NA,NA,NA,NA
"PDS2014","CL","PDS2014-0003",NA,174,NA,NA,NA,"CS","Clinical Sign","CLINICAL SIGNS",NA,NA,"No abnormalities","No abnormalities",NA,NA,NA,NA,NA,NA,NA,NA,8,"2010-12-18T08:14:27",8,NA,NA,NA,NA,NA
"PDS2014","CL","PDS2014-0003",NA,175,NA,NA,NA,"CS","Clinical Sign","CLINICAL SIGNS",NA,NA,"No abnormalities","No abnormalities",NA,NA,NA,NA,NA,NA,NA,NA,12,"2010-12-22T08:09:19",12,NA,NA,NA,NA,NA
"PDS2014","CL","PDS2014-0003",NA,176,NA,NA,NA,"CS","Clinical Sign","CLINICAL SIGNS",NA,NA,"No abnormalities","No abnormalities",NA,NA,NA,NA,NA,NA,NA,NA,8,"2010-12-18T15:08:57",8,NA,NA,NA,NA,NA
"PDS2014","CL","PDS2014-0003",NA,177,NA,NA,NA,"CS","Clinical Sign","CLINICAL SIGNS",NA,NA,"No abnormalities","No abnormalities",NA,NA,NA,NA,NA,NA,NA,NA,25,"2011-01-04T08:29:35",25,NA,NA,NA,NA,NA
"PDS2014","CL","PDS2014-0003",NA,178,NA,NA,NA,"CS","Clinical Sign","CLINICAL SIGNS",NA,NA,"No abnormalities","No abnormalities",NA,NA,NA,NA,NA,NA,NA,NA,2,"2010-12-12T10:37:40",2,NA,NA,NA,NA,NA
"PDS2014","CL","PDS2014-0003",NA,179,NA,NA,NA,"CS","Clinical Sign","CLINICAL SIGNS",NA,NA,"No abnormalities","No abnormalities",NA,NA,NA,NA,NA,NA,NA,NA,5,"2010-12-15T08:37:15",5,NA,NA,NA,NA,NA
"PDS2014","CL","PDS2014-0003",NA,180,NA,NA,NA,"CS","Clinical Sign","CLINICAL SIGNS",NA,NA,"No abnormalities","No abnormalities",NA,NA,NA,NA,NA,NA,NA,NA,25,"2011-01-04T08:22:57",25,NA,NA,NA,NA,NA
"PDS2014","CL","PDS2014-0003",NA,181,NA,NA,NA,"CS","Clinical Sign","CLINICAL SIGNS",NA,NA,"No abnormalities","No abnormalities",NA,NA,NA,NA,NA,NA,NA,NA,14,"2010-12-24T07:59:18",14,NA,NA,NA,NA,NA
"PDS2014","CL","PDS2014-0003",NA,182,NA,NA,NA,"CS","Clinical Sign","CLINICAL SIGNS",NA,NA,"No abnormalities","No abnormalities",NA,NA,NA,NA,NA,NA,NA,NA,8,"2010-12-18T08:03:30",8,NA,NA,NA,NA,NA
"PDS2014","CL","PDS2014-0003",NA,183,NA,NA,NA,"CS","Clinical Sign","CLINICAL SIGNS",NA,NA,"No abnormalities","No abnormalities",NA,NA,NA,NA,NA,NA,NA,NA,28,"2011-01-07T07:27:06",28,NA,NA,NA,NA,NA
"PDS2014","CL","PDS2014-0003",NA,184,NA,NA,NA,"CS","Clinical Sign","CLINICAL SIGNS",NA,NA,"No abnormalities","No abnormalities",NA,NA,NA,NA,NA,NA,NA,NA,18,"2010-12-28T07:57:27",18,NA,NA,NA,NA,NA
"PDS2014","CL","PDS2014-0003",NA,185,NA,NA,NA,"CS","Clinical Sign","CLINICAL SIGNS",NA,NA,"No abnormalities","No abnormalities",NA,NA,NA,NA,NA,NA,NA,NA,15,"2010-12-25T07:18:27",15,NA,NA,NA,NA,NA
"PDS2014","CL","PDS2014-0003",NA,186,NA,NA,NA,"CS","Clinical Sign","CLINICAL SIGNS",NA,NA,"No abnormalities","No abnormalities",NA,NA,NA,NA,NA,NA,NA,NA,26,"2011-01-05T08:08:11",26,NA,NA,NA,NA,NA
"PDS2014","CL","PDS2014-0003",NA,187,NA,NA,NA,"CS","Clinical Sign","CLINICAL SIGNS",NA,NA,"No abnormalities","No abnormalities",NA,NA,NA,NA,NA,NA,NA,NA,15,"2010-12-25T09:02:25",15,NA,NA,NA,NA,NA
"PDS2014","CL","PDS2014-0003",NA,188,NA,NA,NA,"CS","Clinical Sign","CLINICAL SIGNS",NA,NA,"No abnormalities","No abnormalities",NA,NA,NA,NA,NA,NA,NA,NA,1,"2010-12-11T11:18:24",1,NA,NA,NA,NA,NA
"PDS2014","CL","PDS2014-0003",NA,189,NA,NA,NA,"CS","Clinical Sign","CLINICAL SIGNS",NA,NA,"No abnormalities","No abnormalities",NA,NA,NA,NA,NA,NA,NA,NA,15,"2010-12-25T07:26:43",15,NA,NA,NA,NA,NA
"PDS2014","CL","PDS2014-0003",NA,190,NA,NA,NA,"CS","Clinical Sign","CLINICAL SIGNS",NA,NA,"No abnormalities","No abnormalities",NA,NA,NA,NA,NA,NA,NA,NA,1,"2010-12-11T09:30:12",1,NA,NA,NA,NA,NA
"PDS2014","CL","PDS2014-0003",NA,191,NA,NA,NA,"CS","Clinical Sign","OPHTHALMOLOGY",NA,NA,"Corneal opacification","Corneal opacification",NA,NA,NA,"Location: bilateral, Locus: band-shaped",NA,NA,NA,NA,28,"2011-01-07T10:39:24",28,NA,NA,NA,NA,NA
"PDS2014","CL","PDS2014-0003",NA,192,NA,NA,NA,"CS","Clinical Sign","CLINICAL SIGNS",NA,NA,"No abnormalities","No abnormalities",NA,NA,NA,NA,NA,NA,NA,NA,16,"2010-12-26T07:05:37",16,NA,NA,NA,NA,NA
"PDS2014","CL","PDS2014-0003",NA,193,NA,NA,NA,"CS","Clinical Sign","CLINICAL SIGNS",NA,NA,"No abnormalities","No abnormalities",NA,NA,NA,NA,NA,NA,NA,NA,30,"2011-01-09T07:43:29",30,NA,NA,NA,NA,NA
"PDS2014","CL","PDS2014-0003",NA,194,NA,NA,NA,"CS","Clinical Sign","CLINICAL SIGNS",NA,NA,"No abnormalities","No abnormalities",NA,NA,NA,NA,NA,NA,NA,NA,4,"2010-12-14T09:56:20",4,NA,NA,NA,NA,NA
"PDS2014","CL","PDS2014-0003",NA,195,NA,NA,NA,"CS","Clinical Sign","OPHTHALMOLOGY",NA,NA,"Corneal opacification","Corneal opacification",NA,NA,NA,"Location: bilateral, Locus: band-shaped",NA,NA,NA,NA,-1,"2010-12-10T10:41:57",-1,NA,NA,NA,NA,NA
"PDS2014","CL","PDS2014-0003",NA,196,NA,NA,NA,"CS","Clinical Sign","CLINICAL SIGNS",NA,NA,"No abnormalities","No abnormalities",NA,NA,NA,NA,NA,NA,NA,NA,8,"2010-12-18T09:53:45",8,NA,NA,NA,NA,NA
"PDS2014","CL","PDS2014-0003",NA,197,NA,NA,NA,"CS","Clinical Sign","CLINICAL SIGNS",NA,NA,"No abnormalities","No abnormalities",NA,NA,NA,NA,NA,NA,NA,NA,22,"2011-01-01T08:25:39",22,NA,NA,NA,NA,NA
"PDS2014","CL","PDS2014-0003",NA,198,NA,NA,NA,"CS","Clinical Sign","CLINICAL SIGNS",NA,NA,"No abnormalities","No abnormalities",NA,NA,NA,NA,NA,NA,NA,NA,17,"2010-12-27T09:59:01",17,NA,NA,NA,NA,NA
"PDS2014","CL","PDS2014-0003",NA,199,NA,NA,NA,"CS","Clinical Sign","CLINICAL SIGNS",NA,NA,"No abnormalities","No abnormalities",NA,NA,NA,NA,NA,NA,NA,NA,22,"2011-01-01T10:04:22",22,NA,NA,NA,NA,NA
"PDS2014","CL","PDS2014-0003",NA,200,NA,NA,NA,"CS","Clinical Sign","CLINICAL SIGNS",NA,NA,"No abnormalities","No abnormalities",NA,NA,NA,NA,NA,NA,NA,NA,1,"2010-12-11T10:14:27",1,NA,NA,NA,NA,NA
"PDS2014","CL","PDS2014-0003",NA,201,NA,NA,NA,"CS","Clinical Sign","CLINICAL SIGNS",NA,NA,"No abnormalities","No abnormalities",NA,NA,NA,NA,NA,NA,NA,NA,27,"2011-01-06T08:56:42",27,NA,NA,NA,NA,NA
"PDS2014","CL","PDS2014-0004",NA,202,NA,NA,NA,"CS","Clinical Sign","CLINICAL SIGNS",NA,NA,"No abnormalities","No abnormalities",NA,NA,NA,NA,NA,NA,NA,NA,3,"2010-12-13T11:14:24",3,NA,NA,NA,NA,NA
"PDS2014","CL","PDS2014-0004",NA,203,NA,NA,NA,"CS","Clinical Sign","CLINICAL SIGNS",NA,NA,"No abnormalities","No abnormalities",NA,NA,NA,NA,NA,NA,NA,NA,9,"2010-12-19T08:07:39",9,NA,NA,NA,NA,NA
"PDS2014","CL","PDS2014-0004",NA,204,NA,NA,NA,"CS","Clinical Sign","CLINICAL SIGNS",NA,NA,"No abnormalities","No abnormalities",NA,NA,NA,NA,NA,NA,NA,NA,22,"2011-01-01T07:56:48",22,NA,NA,NA,NA,NA
"PDS2014","CL","PDS2014-0004",NA,205,NA,NA,NA,"CS","Clinical Sign","CLINICAL SIGNS",NA,NA,"No abnormalities","No abnormalities",NA,NA,NA,NA,NA,NA,NA,NA,8,"2010-12-18T09:05:50",8,NA,NA,NA,NA,NA
"PDS2014","CL","PDS2014-0004",NA,206,NA,NA,NA,"CS","Clinical Sign","CLINICAL SIGNS",NA,NA,"No abnormalities","No abnormalities",NA,NA,NA,NA,NA,NA,NA,NA,22,"2011-01-01T07:25:58",22,NA,NA,NA,NA,NA
"PDS2014","CL","PDS2014-0004",NA,207,NA,NA,NA,"CS","Clinical Sign","CLINICAL SIGNS",NA,NA,"No abnormalities","No abnormalities",NA,NA,NA,NA,NA,NA,NA,NA,1,"2010-12-11T13:09:50",1,NA,NA,NA,NA,NA
"PDS2014","CL","PDS2014-0004",NA,208,NA,NA,NA,"CS","Clinical Sign","CLINICAL SIGNS",NA,NA,"No abnormalities","No abnormalities",NA,NA,NA,NA,NA,NA,NA,NA,15,"2010-12-25T11:16:05",15,NA,NA,NA,NA,NA
"PDS2014","CL","PDS2014-0004",NA,209,NA,NA,NA,"CS","Clinical Sign","CLINICAL SIGNS",NA,NA,"No abnormalities","No abnormalities",NA,NA,NA,NA,NA,NA,NA,NA,10,"2010-12-20T11:00:10",10,NA,NA,NA,NA,NA
"PDS2014","CL","PDS2014-0004",NA,210,NA,NA,NA,"CS","Clinical Sign","CLINICAL SIGNS",NA,NA,"No abnormalities","No abnormalities",NA,NA,NA,NA,NA,NA,NA,NA,1,"2010-12-11T15:11:14",1,NA,NA,NA,NA,NA
"PDS2014","CL","PDS2014-0004",NA,211,NA,NA,NA,"CS","Clinical Sign","CLINICAL SIGNS",NA,NA,"No abnormalities","No abnormalities",NA,NA,NA,NA,NA,NA,NA,NA,25,"2011-01-04T08:10:54",25,NA,NA,NA,NA,NA
"PDS2014","CL","PDS2014-0004",NA,212,NA,NA,NA,"CS","Clinical Sign","CLINICAL SIGNS",NA,NA,"No abnormalities","No abnormalities",NA,NA,NA,NA,NA,NA,NA,NA,8,"2010-12-18T07:52:06",8,NA,NA,NA,NA,NA
"PDS2014","CL","PDS2014-0004",NA,213,NA,NA,NA,"CS","Clinical Sign","CLINICAL SIGNS",NA,NA,"No abnormalities","No abnormalities",NA,NA,NA,NA,NA,NA,NA,NA,25,"2011-01-04T15:26:10",25,NA,NA,NA,NA,NA
"PDS2014","CL","PDS2014-0004",NA,214,NA,NA,NA,"CS","Clinical Sign","CLINICAL SIGNS",NA,NA,"No abnormalities","No abnormalities",NA,NA,NA,NA,NA,NA,NA,NA,25,"2011-01-04T08:38:48",25,NA,NA,NA,NA,NA
"PDS2014","CL","PDS2014-0004",NA,215,NA,NA,NA,"CS","Clinical Sign","CLINICAL SIGNS",NA,NA,"No abnormalities","No abnormalities",NA,NA,NA,NA,NA,NA,NA,NA,8,"2010-12-18T11:44:47",8,NA,NA,NA,NA,NA
"PDS2014","CL","PDS2014-0004",NA,216,NA,NA,NA,"CS","Clinical Sign","CLINICAL SIGNS",NA,NA,"No abnormalities","No abnormalities",NA,NA,NA,NA,NA,NA,NA,NA,13,"2010-12-23T07:29:02",13,NA,NA,NA,NA,NA
"PDS2014","CL","PDS2014-0004",NA,217,NA,NA,NA,"CS","Clinical Sign","CLINICAL SIGNS",NA,NA,"No abnormalities","No abnormalities",NA,NA,NA,NA,NA,NA,NA,NA,2,"2010-12-12T09:12:57",2,NA,NA,NA,NA,NA
"PDS2014","CL","PDS2014-0004",NA,218,NA,NA,NA,"CS","Clinical Sign","CLINICAL SIGNS",NA,NA,"No abnormalities","No abnormalities",NA,NA,NA,NA,NA,NA,NA,NA,7,"2010-12-17T08:06:21",7,NA,NA,NA,NA,NA
"PDS2014","CL","PDS2014-0004",NA,219,NA,NA,NA,"CS","Clinical Sign","CLINICAL SIGNS",NA,NA,"No abnormalities","No abnormalities",NA,NA,NA,NA,NA,NA,NA,NA,26,"2011-01-05T10:05:01",26,NA,NA,NA,NA,NA
"PDS2014","CL","PDS2014-0004",NA,220,NA,NA,NA,"CS","Clinical Sign","CLINICAL SIGNS",NA,NA,"No abnormalities","No abnormalities",NA,NA,NA,NA,NA,NA,NA,NA,16,"2010-12-26T06:59:23",16,NA,NA,NA,NA,NA
"PDS2014","CL","PDS2014-0004",NA,221,NA,NA,NA,"CS","Clinical Sign","CLINICAL SIGNS",NA,NA,"No abnormalities","No abnormalities",NA,NA,NA,NA,NA,NA,NA,NA,25,"2011-01-04T09:53:12",25,NA,NA,NA,NA,NA
"PDS2014","CL","PDS2014-0004",NA,222,NA,NA,NA,"CS","Clinical Sign","CLINICAL SIGNS",NA,NA,"No abnormalities","No abnormalities",NA,NA,NA,NA,NA,NA,NA,NA,6,"2010-12-16T08:57:44",6,NA,NA,NA,NA,NA
"PDS2014","CL","PDS2014-0004",NA,223,NA,NA,NA,"CS","Clinical Sign","CLINICAL SIGNS",NA,NA,"No abnormalities","No abnormalities",NA,NA,NA,NA,NA,NA,NA,NA,15,"2010-12-25T07:18:27",15,NA,NA,NA,NA,NA
"PDS2014","CL","PDS2014-0004",NA,224,NA,NA,NA,"CS","Clinical Sign","CLINICAL SIGNS",NA,NA,"No abnormalities","No abnormalities",NA,NA,NA,NA,NA,NA,NA,NA,20,"2010-12-30T08:08:39",20,NA,NA,NA,NA,NA
"PDS2014","CL","PDS2014-0004",NA,225,NA,NA,NA,"CS","Clinical Sign","CLINICAL SIGNS",NA,NA,"No abnormalities","No abnormalities",NA,NA,NA,NA,NA,NA,NA,NA,9,"2010-12-19T11:43:59",9,NA,NA,NA,NA,NA
"PDS2014","CL","PDS2014-0004",NA,226,NA,NA,NA,"CS","Clinical Sign","CLINICAL SIGNS",NA,NA,"No abnormalities","No abnormalities",NA,NA,NA,NA,NA,NA,NA,NA,21,"2010-12-31T08:53:05",21,NA,NA,NA,NA,NA
"PDS2014","CL","PDS2014-0004",NA,227,NA,NA,NA,"CS","Clinical Sign","CLINICAL SIGNS",NA,NA,"No abnormalities","No abnormalities",NA,NA,NA,NA,NA,NA,NA,NA,23,"2011-01-02T08:17:56",23,NA,NA,NA,NA,NA
"PDS2014","CL","PDS2014-0004",NA,228,NA,NA,NA,"CS","Clinical Sign","CLINICAL SIGNS",NA,NA,"No abnormalities","No abnormalities",NA,NA,NA,NA,NA,NA,NA,NA,15,"2010-12-25T10:38:59",15,NA,NA,NA,NA,NA
"PDS2014","CL","PDS2014-0004",NA,229,NA,NA,NA,"CS","Clinical Sign","CLINICAL SIGNS",NA,NA,"No abnormalities","No abnormalities",NA,NA,NA,NA,NA,NA,NA,NA,25,"2011-01-04T11:33:45",25,NA,NA,NA,NA,NA
"PDS2014","CL","PDS2014-0004",NA,230,NA,NA,NA,"CS","Clinical Sign","CLINICAL SIGNS",NA,NA,"No abnormalities","No abnormalities",NA,NA,NA,NA,NA,NA,NA,NA,23,"2011-01-02T06:29:04",23,NA,NA,NA,NA,NA
"PDS2014","CL","PDS2014-0004",NA,231,NA,NA,NA,"CS","Clinical Sign","CLINICAL SIGNS",NA,NA,"No abnormalities","No abnormalities",NA,NA,NA,NA,NA,NA,NA,NA,11,"2010-12-21T07:29:59",11,NA,NA,NA,NA,NA
"PDS2014","CL","PDS2014-0004",NA,232,NA,NA,NA,"CS","Clinical Sign","CLINICAL SIGNS",NA,NA,"No abnormalities","No abnormalities",NA,NA,NA,NA,NA,NA,NA,NA,15,"2010-12-25T08:24:08",15,NA,NA,NA,NA,NA
"PDS2014","CL","PDS2014-0004",NA,233,NA,NA,NA,"CS","Clinical Sign","CLINICAL SIGNS",NA,NA,"No abnormalities","No abnormalities",NA,NA,NA,NA,NA,NA,NA,NA,1,"2010-12-11T09:17:21",1,NA,NA,NA,NA,NA
"PDS2014","CL","PDS2014-0004",NA,234,NA,NA,NA,"CS","Clinical Sign","CLINICAL SIGNS",NA,NA,"No abnormalities","No abnormalities",NA,NA,NA,NA,NA,NA,NA,NA,15,"2010-12-25T12:59:20",15,NA,NA,NA,NA,NA
"PDS2014","CL","PDS2014-0004",NA,235,NA,NA,NA,"CS","Clinical Sign","CLINICAL SIGNS",NA,NA,"No abnormalities","No abnormalities",NA,NA,NA,NA,NA,NA,NA,NA,22,"2011-01-01T11:37:26",22,NA,NA,NA,NA,NA
"PDS2014","CL","PDS2014-0004",NA,236,NA,NA,NA,"CS","Clinical Sign","CLINICAL SIGNS",NA,NA,"No abnormalities","No abnormalities",NA,NA,NA,NA,NA,NA,NA,NA,22,"2011-01-01T06:32:11",22,NA,NA,NA,NA,NA
"PDS2014","CL","PDS2014-0004",NA,237,NA,NA,NA,"CS","Clinical Sign","CLINICAL SIGNS",NA,NA,"No abnormalities","No abnormalities",NA,NA,NA,NA,NA,NA,NA,NA,1,"2010-12-11T10:14:27",1,NA,NA,NA,NA,NA
"PDS2014","CL","PDS2014-0004",NA,238,NA,NA,NA,"CS","Clinical Sign","CLINICAL SIGNS",NA,NA,"No abnormalities","No abnormalities",NA,NA,NA,NA,NA,NA,NA,NA,1,"2010-12-11T13:13:25",1,NA,NA,NA,NA,NA
"PDS2014","CL","PDS2014-0004",NA,239,NA,NA,NA,"CS","Clinical Sign","CLINICAL SIGNS",NA,NA,"No abnormalities","No abnormalities",NA,NA,NA,NA,NA,NA,NA,NA,8,"2010-12-18T15:08:57",8,NA,NA,NA,NA,NA
"PDS2014","CL","PDS2014-0004",NA,240,NA,NA,NA,"CS","Clinical Sign","CLINICAL SIGNS",NA,NA,"No abnormalities","No abnormalities",NA,NA,NA,NA,NA,NA,NA,NA,19,"2010-12-29T09:34:46",19,NA,NA,NA,NA,NA
"PDS2014","CL","PDS2014-0004",NA,241,NA,NA,NA,"CS","Clinical Sign","CLINICAL SIGNS",NA,NA,"No abnormalities","No abnormalities",NA,NA,NA,NA,NA,NA,NA,NA,8,"2010-12-18T08:14:27",8,NA,NA,NA,NA,NA
"PDS2014","CL","PDS2014-0004",NA,242,NA,NA,NA,"CS","Clinical Sign","CLINICAL SIGNS",NA,NA,"No abnormalities","No abnormalities",NA,NA,NA,NA,NA,NA,NA,NA,25,"2011-01-04T08:29:35",25,NA,NA,NA,NA,NA
"PDS2014","CL","PDS2014-0004",NA,243,NA,NA,NA,"CS","Clinical Sign","CLINICAL SIGNS",NA,NA,"No abnormalities","No abnormalities",NA,NA,NA,NA,NA,NA,NA,NA,12,"2010-12-22T08:09:19",12,NA,NA,NA,NA,NA
"PDS2014","CL","PDS2014-0004",NA,244,NA,NA,NA,"CS","Clinical Sign","CLINICAL SIGNS",NA,NA,"No abnormalities","No abnormalities",NA,NA,NA,NA,NA,NA,NA,NA,22,"2011-01-01T08:25:39",22,NA,NA,NA,NA,NA
"PDS2014","CL","PDS2014-0004",NA,245,NA,NA,NA,"CS","Clinical Sign","CLINICAL SIGNS",NA,NA,"No abnormalities","No abnormalities",NA,NA,NA,NA,NA,NA,NA,NA,2,"2010-12-12T10:37:40",2,NA,NA,NA,NA,NA
"PDS2014","CL","PDS2014-0004",NA,246,NA,NA,NA,"CS","Clinical Sign","CLINICAL SIGNS",NA,NA,"No abnormalities","No abnormalities",NA,NA,NA,NA,NA,NA,NA,NA,5,"2010-12-15T08:37:15",5,NA,NA,NA,NA,NA
"PDS2014","CL","PDS2014-0004",NA,247,NA,NA,NA,"CS","Clinical Sign","OPHTHALMOLOGY",NA,NA,"Corneal opacification","Corneal opacification",NA,NA,NA,"Location: bilateral, Locus: band-shaped",NA,NA,NA,NA,28,"2011-01-07T10:42:45",28,NA,NA,NA,NA,NA
"PDS2014","CL","PDS2014-0004",NA,248,NA,NA,NA,"CS","Clinical Sign","OPHTHALMOLOGY",NA,NA,"Cataract","Cataract",NA,NA,NA,"Location: unilateral, Location: left, Focal/diffuse: focal, Depth: nuclear, Position: central",NA,NA,NA,NA,28,"2011-01-07T10:42:40",28,NA,NA,NA,NA,NA
"PDS2014","CL","PDS2014-0004",NA,249,NA,NA,NA,"CS","Clinical Sign","CLINICAL SIGNS",NA,NA,"No abnormalities","No abnormalities",NA,NA,NA,NA,NA,NA,NA,NA,8,"2010-12-18T08:02:54",8,NA,NA,NA,NA,NA
"PDS2014","CL","PDS2014-0004",NA,250,NA,NA,NA,"CS","Clinical Sign","CLINICAL SIGNS",NA,NA,"No abnormalities","No abnormalities",NA,NA,NA,NA,NA,NA,NA,NA,25,"2011-01-04T08:21:34",25,NA,NA,NA,NA,NA
"PDS2014","CL","PDS2014-0004",NA,251,NA,NA,NA,"CS","Clinical Sign","CLINICAL SIGNS",NA,NA,"No abnormalities","No abnormalities",NA,NA,NA,NA,NA,NA,NA,NA,14,"2010-12-24T07:59:18",14,NA,NA,NA,NA,NA
"PDS2014","CL","PDS2014-0004",NA,252,NA,NA,NA,"CS","Clinical Sign","CLINICAL SIGNS",NA,NA,"No abnormalities","No abnormalities",NA,NA,NA,NA,NA,NA,NA,NA,28,"2011-01-07T07:27:06",28,NA,NA,NA,NA,NA
"PDS2014","CL","PDS2014-0004",NA,253,NA,NA,NA,"CS","Clinical Sign","CLINICAL SIGNS",NA,NA,"No abnormalities","No abnormalities",NA,NA,NA,NA,NA,NA,NA,NA,26,"2011-01-05T08:08:11",26,NA,NA,NA,NA,NA
"PDS2014","CL","PDS2014-0004",NA,254,NA,NA,NA,"CS","Clinical Sign","CLINICAL SIGNS",NA,NA,"No abnormalities","No abnormalities",NA,NA,NA,NA,NA,NA,NA,NA,18,"2010-12-28T07:57:27",18,NA,NA,NA,NA,NA
"PDS2014","CL","PDS2014-0004",NA,255,NA,NA,NA,"CS","Clinical Sign","CLINICAL SIGNS",NA,NA,"No abnormalities","No abnormalities",NA,NA,NA,NA,NA,NA,NA,NA,1,"2010-12-11T09:25:47",1,NA,NA,NA,NA,NA
"PDS2014","CL","PDS2014-0004",NA,256,NA,NA,NA,"CS","Clinical Sign","CLINICAL SIGNS",NA,NA,"No abnormalities","No abnormalities",NA,NA,NA,NA,NA,NA,NA,NA,15,"2010-12-25T09:02:25",15,NA,NA,NA,NA,NA
"PDS2014","CL","PDS2014-0004",NA,257,NA,NA,NA,"CS","Clinical Sign","CLINICAL SIGNS",NA,NA,"No abnormalities","No abnormalities",NA,NA,NA,NA,NA,NA,NA,NA,16,"2010-12-26T07:04:16",16,NA,NA,NA,NA,NA
"PDS2014","CL","PDS2014-0004",NA,258,NA,NA,NA,"CS","Clinical Sign","CLINICAL SIGNS",NA,NA,"No abnormalities","No abnormalities",NA,NA,NA,NA,NA,NA,NA,NA,24,"2011-01-03T08:36:36",24,NA,NA,NA,NA,NA
"PDS2014","CL","PDS2014-0004",NA,259,NA,NA,NA,"CS","Clinical Sign","OPHTHALMOLOGY",NA,NA,"Cataract","Cataract",NA,NA,NA,"Location: unilateral, Location: left, Focal/diffuse: focal, Depth: nuclear, Position: central",NA,NA,NA,NA,-1,"2010-12-10T10:44:20",-1,NA,NA,NA,NA,NA
"PDS2014","CL","PDS2014-0004",NA,260,NA,NA,NA,"CS","Clinical Sign","CLINICAL SIGNS",NA,NA,"No abnormalities","No abnormalities",NA,NA,NA,NA,NA,NA,NA,NA,4,"2010-12-14T09:56:20",4,NA,NA,NA,NA,NA
"PDS2014","CL","PDS2014-0004",NA,261,NA,NA,NA,"CS","Clinical Sign","OPHTHALMOLOGY",NA,NA,"Corneal opacification","Corneal opacification",NA,NA,NA,"Location: bilateral, Locus: band-shaped",NA,NA,NA,NA,-1,"2010-12-10T10:43:55",-1,NA,NA,NA,NA,NA
"PDS2014","CL","PDS2014-0004",NA,262,NA,NA,NA,"CS","Clinical Sign","CLINICAL SIGNS",NA,NA,"No abnormalities","No abnormalities",NA,NA,NA,NA,NA,NA,NA,NA,1,"2010-12-11T11:18:24",1,NA,NA,NA,NA,NA
"PDS2014","CL","PDS2014-0004",NA,263,NA,NA,NA,"CS","Clinical Sign","CLINICAL SIGNS",NA,NA,"No abnormalities","No abnormalities",NA,NA,NA,NA,NA,NA,NA,NA,29,"2011-01-08T07:11:24",29,NA,NA,NA,NA,NA
"PDS2014","CL","PDS2014-0004",NA,264,NA,NA,NA,"CS","Clinical Sign","CLINICAL SIGNS",NA,NA,"No abnormalities","No abnormalities",NA,NA,NA,NA,NA,NA,NA,NA,30,"2011-01-09T07:44:40",30,NA,NA,NA,NA,NA
"PDS2014","CL","PDS2014-0004",NA,265,NA,NA,NA,"CS","Clinical Sign","CLINICAL SIGNS",NA,NA,"No abnormalities","No abnormalities",NA,NA,NA,NA,NA,NA,NA,NA,15,"2010-12-25T07:23:57",15,NA,NA,NA,NA,NA
"PDS2014","CL","PDS2014-0004",NA,266,NA,NA,NA,"CS","Clinical Sign","CLINICAL SIGNS",NA,NA,"No abnormalities","No abnormalities",NA,NA,NA,NA,NA,NA,NA,NA,22,"2011-01-01T06:39:59",22,NA,NA,NA,NA,NA
"PDS2014","CL","PDS2014-0004",NA,267,NA,NA,NA,"CS","Clinical Sign","CLINICAL SIGNS",NA,NA,"No abnormalities","No abnormalities",NA,NA,NA,NA,NA,NA,NA,NA,1,"2010-12-11T09:17:29",1,NA,NA,NA,NA,NA
"PDS2014","CL","PDS2014-0004",NA,268,NA,NA,NA,"CS","Clinical Sign","CLINICAL SIGNS",NA,NA,"No abnormalities","No abnormalities",NA,NA,NA,NA,NA,NA,NA,NA,27,"2011-01-06T08:56:42",27,NA,NA,NA,NA,NA
"PDS2014","CL","PDS2014-0004",NA,269,NA,NA,NA,"CS","Clinical Sign","CLINICAL SIGNS",NA,NA,"No abnormalities","No abnormalities",NA,NA,NA,NA,NA,NA,NA,NA,8,"2010-12-18T09:53:45",8,NA,NA,NA,NA,NA
"PDS2014","CL","PDS2014-0004",NA,270,NA,NA,NA,"CS","Clinical Sign","CLINICAL SIGNS",NA,NA,"No abnormalities","No abnormalities",NA,NA,NA,NA,NA,NA,NA,NA,17,"2010-12-27T09:59:01",17,NA,NA,NA,NA,NA
"PDS2014","CL","PDS2014-0004",NA,271,NA,NA,NA,"CS","Clinical Sign","CLINICAL SIGNS",NA,NA,"No abnormalities","No abnormalities",NA,NA,NA,NA,NA,NA,NA,NA,22,"2011-01-01T10:04:22",22,NA,NA,NA,NA,NA
"PDS2014","CL","PDS2014-0005",NA,272,NA,NA,NA,"CS","Clinical Sign","CLINICAL SIGNS",NA,NA,"No abnormalities","No abnormalities",NA,NA,NA,NA,NA,NA,NA,NA,8,"2010-12-18T11:44:47",8,NA,NA,NA,NA,NA
"PDS2014","CL","PDS2014-0005",NA,273,NA,NA,NA,"CS","Clinical Sign","CLINICAL SIGNS",NA,NA,"No abnormalities","No abnormalities",NA,NA,NA,NA,NA,NA,NA,NA,22,"2011-01-01T06:36:49",22,NA,NA,NA,NA,NA
"PDS2014","CL","PDS2014-0005",NA,274,NA,NA,NA,"CS","Clinical Sign","CLINICAL SIGNS",NA,NA,"No abnormalities","No abnormalities",NA,NA,NA,NA,NA,NA,NA,NA,25,"2011-01-04T09:53:12",25,NA,NA,NA,NA,NA
"PDS2014","CL","PDS2014-0005",NA,275,NA,NA,NA,"CS","Clinical Sign","CLINICAL SIGNS",NA,NA,"No abnormalities","No abnormalities",NA,NA,NA,NA,NA,NA,NA,NA,25,"2011-01-04T11:33:45",25,NA,NA,NA,NA,NA
"PDS2014","CL","PDS2014-0005",NA,276,NA,NA,NA,"CS","Clinical Sign","CLINICAL SIGNS",NA,NA,"No abnormalities","No abnormalities",NA,NA,NA,NA,NA,NA,NA,NA,3,"2010-12-13T11:14:24",3,NA,NA,NA,NA,NA
"PDS2014","CL","PDS2014-0005",NA,277,NA,NA,NA,"CS","Clinical Sign","CLINICAL SIGNS",NA,NA,"No abnormalities","No abnormalities",NA,NA,NA,NA,NA,NA,NA,NA,15,"2010-12-25T11:16:05",15,NA,NA,NA,NA,NA
"PDS2014","CL","PDS2014-0005",NA,278,NA,NA,NA,"CS","Clinical Sign","CLINICAL SIGNS",NA,NA,"No abnormalities","No abnormalities",NA,NA,NA,NA,NA,NA,NA,NA,22,"2011-01-01T08:25:39",22,NA,NA,NA,NA,NA
"PDS2014","CL","PDS2014-0005",NA,279,NA,NA,NA,"CS","Clinical Sign","CLINICAL SIGNS",NA,NA,"No abnormalities","No abnormalities",NA,NA,NA,NA,NA,NA,NA,NA,1,"2010-12-11T09:17:21",1,NA,NA,NA,NA,NA
"PDS2014","CL","PDS2014-0005",NA,280,NA,NA,NA,"CS","Clinical Sign","CLINICAL SIGNS",NA,NA,"No abnormalities","No abnormalities",NA,NA,NA,NA,NA,NA,NA,NA,29,"2011-01-08T07:20:13",29,NA,NA,NA,NA,NA
"PDS2014","CL","PDS2014-0005",NA,281,NA,NA,NA,"CS","Clinical Sign","CLINICAL SIGNS",NA,NA,"No abnormalities","No abnormalities",NA,NA,NA,NA,NA,NA,NA,NA,15,"2010-12-25T09:02:25",15,NA,NA,NA,NA,NA
"PDS2014","CL","PDS2014-0005",NA,282,NA,NA,NA,"CS","Clinical Sign","CLINICAL SIGNS",NA,NA,"No abnormalities","No abnormalities",NA,NA,NA,NA,NA,NA,NA,NA,22,"2011-01-01T10:04:22",22,NA,NA,NA,NA,NA
"PDS2014","CL","PDS2014-0005",NA,283,NA,NA,NA,"CS","Clinical Sign","CLINICAL SIGNS",NA,NA,"No abnormalities","No abnormalities",NA,NA,NA,NA,NA,NA,NA,NA,25,"2011-01-04T08:38:48",25,NA,NA,NA,NA,NA
"PDS2014","CL","PDS2014-0005",NA,284,NA,NA,NA,"CS","Clinical Sign","CLINICAL SIGNS",NA,NA,"No abnormalities","No abnormalities",NA,NA,NA,NA,NA,NA,NA,NA,22,"2011-01-01T07:56:48",22,NA,NA,NA,NA,NA
"PDS2014","CL","PDS2014-0005",NA,285,NA,NA,NA,"CS","Clinical Sign","CLINICAL SIGNS",NA,NA,"No abnormalities","No abnormalities",NA,NA,NA,NA,NA,NA,NA,NA,10,"2010-12-20T11:00:10",10,NA,NA,NA,NA,NA
"PDS2014","CL","PDS2014-0005",NA,286,NA,NA,NA,"CS","Clinical Sign","CLINICAL SIGNS",NA,NA,"No abnormalities","No abnormalities",NA,NA,NA,NA,NA,NA,NA,NA,25,"2011-01-04T15:26:10",25,NA,NA,NA,NA,NA
"PDS2014","CL","PDS2014-0005",NA,287,NA,NA,NA,"CS","Clinical Sign","CLINICAL SIGNS",NA,NA,"No abnormalities","No abnormalities",NA,NA,NA,NA,NA,NA,NA,NA,1,"2010-12-11T15:11:14",1,NA,NA,NA,NA,NA
"PDS2014","CL","PDS2014-0005",NA,288,NA,NA,NA,"CS","Clinical Sign","CLINICAL SIGNS",NA,NA,"No abnormalities","No abnormalities",NA,NA,NA,NA,NA,NA,NA,NA,20,"2010-12-30T08:08:39",20,NA,NA,NA,NA,NA
"PDS2014","CL","PDS2014-0005",NA,289,NA,NA,NA,"CS","Clinical Sign","CLINICAL SIGNS",NA,NA,"No abnormalities","No abnormalities",NA,NA,NA,NA,NA,NA,NA,NA,7,"2010-12-17T08:06:21",7,NA,NA,NA,NA,NA
"PDS2014","CL","PDS2014-0005",NA,290,NA,NA,NA,"CS","Clinical Sign","CLINICAL SIGNS",NA,NA,"No abnormalities","No abnormalities",NA,NA,NA,NA,NA,NA,NA,NA,13,"2010-12-23T07:29:02",13,NA,NA,NA,NA,NA
"PDS2014","CL","PDS2014-0005",NA,291,NA,NA,NA,"CS","Clinical Sign","CLINICAL SIGNS",NA,NA,"No abnormalities","No abnormalities",NA,NA,NA,NA,NA,NA,NA,NA,2,"2010-12-12T09:12:57",2,NA,NA,NA,NA,NA
"PDS2014","CL","PDS2014-0005",NA,292,NA,NA,NA,"CS","Clinical Sign","CLINICAL SIGNS",NA,NA,"No abnormalities","No abnormalities",NA,NA,NA,NA,NA,NA,NA,NA,21,"2010-12-31T08:53:05",21,NA,NA,NA,NA,NA
"PDS2014","CL","PDS2014-0005",NA,293,NA,NA,NA,"CS","Clinical Sign","CLINICAL SIGNS",NA,NA,"No abnormalities","No abnormalities",NA,NA,NA,NA,NA,NA,NA,NA,23,"2011-01-02T06:29:04",23,NA,NA,NA,NA,NA
"PDS2014","CL","PDS2014-0005",NA,294,NA,NA,NA,"CS","Clinical Sign","CLINICAL SIGNS",NA,NA,"No abnormalities","No abnormalities",NA,NA,NA,NA,NA,NA,NA,NA,6,"2010-12-16T08:57:44",6,NA,NA,NA,NA,NA
"PDS2014","CL","PDS2014-0005",NA,295,NA,NA,NA,"CS","Clinical Sign","CLINICAL SIGNS",NA,NA,"No abnormalities","No abnormalities",NA,NA,NA,NA,NA,NA,NA,NA,15,"2010-12-25T12:59:20",15,NA,NA,NA,NA,NA
"PDS2014","CL","PDS2014-0005",NA,296,NA,NA,NA,"CS","Clinical Sign","CLINICAL SIGNS",NA,NA,"No abnormalities","No abnormalities",NA,NA,NA,NA,NA,NA,NA,NA,23,"2011-01-02T08:17:56",23,NA,NA,NA,NA,NA
"PDS2014","CL","PDS2014-0005",NA,297,NA,NA,NA,"CS","Clinical Sign","CLINICAL SIGNS",NA,NA,"No abnormalities","No abnormalities",NA,NA,NA,NA,NA,NA,NA,NA,9,"2010-12-19T08:07:39",9,NA,NA,NA,NA,NA
"PDS2014","CL","PDS2014-0005",NA,298,NA,NA,NA,"CS","Clinical Sign","CLINICAL SIGNS",NA,NA,"No abnormalities","No abnormalities",NA,NA,NA,NA,NA,NA,NA,NA,15,"2010-12-25T07:18:27",15,NA,NA,NA,NA,NA
"PDS2014","CL","PDS2014-0005",NA,299,NA,NA,NA,"CS","Clinical Sign","CLINICAL SIGNS",NA,NA,"No abnormalities","No abnormalities",NA,NA,NA,NA,NA,NA,NA,NA,15,"2010-12-25T07:35:07",15,NA,NA,NA,NA,NA
"PDS2014","CL","PDS2014-0005",NA,300,NA,NA,NA,"CS","Clinical Sign","CLINICAL SIGNS",NA,NA,"No abnormalities","No abnormalities",NA,NA,NA,NA,NA,NA,NA,NA,11,"2010-12-21T07:29:59",11,NA,NA,NA,NA,NA
"PDS2014","CL","PDS2014-0005",NA,301,NA,NA,NA,"CS","Clinical Sign","CLINICAL SIGNS",NA,NA,"No abnormalities","No abnormalities",NA,NA,NA,NA,NA,NA,NA,NA,16,"2010-12-26T06:59:23",16,NA,NA,NA,NA,NA
"PDS2014","CL","PDS2014-0005",NA,302,NA,NA,NA,"CS","Clinical Sign","CLINICAL SIGNS",NA,NA,"No abnormalities","No abnormalities",NA,NA,NA,NA,NA,NA,NA,NA,19,"2010-12-29T09:34:46",19,NA,NA,NA,NA,NA
"PDS2014","CL","PDS2014-0005",NA,303,NA,NA,NA,"CS","Clinical Sign","CLINICAL SIGNS",NA,NA,"No abnormalities","No abnormalities",NA,NA,NA,NA,NA,NA,NA,NA,5,"2010-12-15T08:37:15",5,NA,NA,NA,NA,NA
"PDS2014","CL","PDS2014-0005",NA,304,NA,NA,NA,"CS","Clinical Sign","CLINICAL SIGNS",NA,NA,"No abnormalities","No abnormalities",NA,NA,NA,NA,NA,NA,NA,NA,8,"2010-12-18T08:14:27",8,NA,NA,NA,NA,NA
"PDS2014","CL","PDS2014-0005",NA,305,NA,NA,NA,"CS","Clinical Sign","CLINICAL SIGNS",NA,NA,"No abnormalities","No abnormalities",NA,NA,NA,NA,NA,NA,NA,NA,25,"2011-01-04T08:29:35",25,NA,NA,NA,NA,NA
"PDS2014","CL","PDS2014-0005",NA,306,NA,NA,NA,"CS","Clinical Sign","CLINICAL SIGNS",NA,NA,"No abnormalities","No abnormalities",NA,NA,NA,NA,NA,NA,NA,NA,12,"2010-12-22T08:09:19",12,NA,NA,NA,NA,NA
"PDS2014","CL","PDS2014-0005",NA,307,NA,NA,NA,"CS","Clinical Sign","CLINICAL SIGNS",NA,NA,"No abnormalities","No abnormalities",NA,NA,NA,NA,NA,NA,NA,NA,22,"2011-01-01T07:25:58",22,NA,NA,NA,NA,NA
"PDS2014","CL","PDS2014-0005",NA,308,NA,NA,NA,"CS","Clinical Sign","CLINICAL SIGNS",NA,NA,"No abnormalities","No abnormalities",NA,NA,NA,NA,NA,NA,NA,NA,2,"2010-12-12T10:37:40",2,NA,NA,NA,NA,NA
"PDS2014","CL","PDS2014-0005",NA,309,NA,NA,NA,"CS","Clinical Sign","CLINICAL SIGNS",NA,NA,"No abnormalities","No abnormalities",NA,NA,NA,NA,NA,NA,NA,NA,1,"2010-12-11T11:18:24",1,NA,NA,NA,NA,NA
"PDS2014","CL","PDS2014-0005",NA,310,NA,NA,NA,"CS","Clinical Sign","CLINICAL SIGNS",NA,NA,"No abnormalities","No abnormalities",NA,NA,NA,NA,NA,NA,NA,NA,15,"2010-12-25T10:38:59",15,NA,NA,NA,NA,NA
"PDS2014","CL","PDS2014-0005",NA,311,NA,NA,NA,"CS","Clinical Sign","CLINICAL SIGNS",NA,NA,"No abnormalities","No abnormalities",NA,NA,NA,NA,NA,NA,NA,NA,22,"2011-01-01T06:32:11",22,NA,NA,NA,NA,NA
"PDS2014","CL","PDS2014-0005",NA,312,NA,NA,NA,"CS","Clinical Sign","CLINICAL SIGNS",NA,NA,"No abnormalities","No abnormalities",NA,NA,NA,NA,NA,NA,NA,NA,14,"2010-12-24T07:59:18",14,NA,NA,NA,NA,NA
"PDS2014","CL","PDS2014-0005",NA,313,NA,NA,NA,"CS","Clinical Sign","CLINICAL SIGNS",NA,NA,"No abnormalities","No abnormalities",NA,NA,NA,NA,NA,NA,NA,NA,25,"2011-01-04T08:22:03",25,NA,NA,NA,NA,NA
"PDS2014","CL","PDS2014-0005",NA,314,NA,NA,NA,"CS","Clinical Sign","CLINICAL SIGNS",NA,NA,"No abnormalities","No abnormalities",NA,NA,NA,NA,NA,NA,NA,NA,8,"2010-12-18T08:03:57",8,NA,NA,NA,NA,NA
"PDS2014","CL","PDS2014-0005",NA,315,NA,NA,NA,"CS","Clinical Sign","CLINICAL SIGNS",NA,NA,"No abnormalities","No abnormalities",NA,NA,NA,NA,NA,NA,NA,NA,1,"2010-12-11T13:13:25",1,NA,NA,NA,NA,NA
"PDS2014","CL","PDS2014-0005",NA,316,NA,NA,NA,"CS","Clinical Sign","CLINICAL SIGNS",NA,NA,"No abnormalities","No abnormalities",NA,NA,NA,NA,NA,NA,NA,NA,8,"2010-12-18T09:53:45",8,NA,NA,NA,NA,NA
"PDS2014","CL","PDS2014-0005",NA,317,NA,NA,NA,"CS","Clinical Sign","CLINICAL SIGNS",NA,NA,"No abnormalities","No abnormalities",NA,NA,NA,NA,NA,NA,NA,NA,28,"2011-01-07T07:27:06",28,NA,NA,NA,NA,NA
"PDS2014","CL","PDS2014-0005",NA,318,NA,NA,NA,"CS","Clinical Sign","CLINICAL SIGNS",NA,NA,"No abnormalities","No abnormalities",NA,NA,NA,NA,NA,NA,NA,NA,26,"2011-01-05T10:05:01",26,NA,NA,NA,NA,NA
"PDS2014","CL","PDS2014-0005",NA,319,NA,NA,NA,"CS","Clinical Sign","CLINICAL SIGNS",NA,NA,"No abnormalities","No abnormalities",NA,NA,NA,NA,NA,NA,NA,NA,18,"2010-12-28T07:57:27",18,NA,NA,NA,NA,NA
"PDS2014","CL","PDS2014-0005",NA,320,NA,NA,NA,"CS","Clinical Sign","CLINICAL SIGNS",NA,NA,"No abnormalities","No abnormalities",NA,NA,NA,NA,NA,NA,NA,NA,9,"2010-12-19T11:43:59",9,NA,NA,NA,NA,NA
"PDS2014","CL","PDS2014-0005",NA,321,NA,NA,NA,"CS","Clinical Sign","CLINICAL SIGNS",NA,NA,"No abnormalities","No abnormalities",NA,NA,NA,NA,NA,NA,NA,NA,8,"2010-12-18T09:05:50",8,NA,NA,NA,NA,NA
"PDS2014","CL","PDS2014-0005",NA,322,NA,NA,NA,"CS","Clinical Sign","CLINICAL SIGNS",NA,NA,"No abnormalities","No abnormalities",NA,NA,NA,NA,NA,NA,NA,NA,25,"2011-01-04T08:10:54",25,NA,NA,NA,NA,NA
"PDS2014","CL","PDS2014-0005",NA,323,NA,NA,NA,"CS","Clinical Sign","CLINICAL SIGNS",NA,NA,"No abnormalities","No abnormalities",NA,NA,NA,NA,NA,NA,NA,NA,1,"2010-12-11T13:09:50",1,NA,NA,NA,NA,NA
"PDS2014","CL","PDS2014-0005",NA,324,NA,NA,NA,"CS","Clinical Sign","CLINICAL SIGNS",NA,NA,"No abnormalities","No abnormalities",NA,NA,NA,NA,NA,NA,NA,NA,30,"2011-01-09T07:45:54",30,NA,NA,NA,NA,NA
"PDS2014","CL","PDS2014-0005",NA,325,NA,NA,NA,"CS","Clinical Sign","CLINICAL SIGNS",NA,NA,"No abnormalities","No abnormalities",NA,NA,NA,NA,NA,NA,NA,NA,24,"2011-01-03T08:36:36",24,NA,NA,NA,NA,NA
"PDS2014","CL","PDS2014-0005",NA,326,NA,NA,NA,"CS","Clinical Sign","CLINICAL SIGNS",NA,NA,"No abnormalities","No abnormalities",NA,NA,NA,NA,NA,NA,NA,NA,17,"2010-12-27T09:59:01",17,NA,NA,NA,NA,NA
"PDS2014","CL","PDS2014-0005",NA,327,NA,NA,NA,"CS","Clinical Sign","CLINICAL SIGNS",NA,NA,"No abnormalities","No abnormalities",NA,NA,NA,NA,NA,NA,NA,NA,15,"2010-12-25T08:24:08",15,NA,NA,NA,NA,NA
"PDS2014","CL","PDS2014-0005",NA,328,NA,NA,NA,"CS","Clinical Sign","CLINICAL SIGNS",NA,NA,"No abnormalities","No abnormalities",NA,NA,NA,NA,NA,NA,NA,NA,1,"2010-12-11T09:29:07",1,NA,NA,NA,NA,NA
"PDS2014","CL","PDS2014-0005",NA,329,NA,NA,NA,"CS","Clinical Sign","CLINICAL SIGNS",NA,NA,"No abnormalities","No abnormalities",NA,NA,NA,NA,NA,NA,NA,NA,4,"2010-12-14T09:56:20",4,NA,NA,NA,NA,NA
"PDS2014","CL","PDS2014-0005",NA,330,NA,NA,NA,"CS","Clinical Sign","CLINICAL SIGNS",NA,NA,"No abnormalities","No abnormalities",NA,NA,NA,NA,NA,NA,NA,NA,16,"2010-12-26T07:06:07",16,NA,NA,NA,NA,NA
"PDS2014","CL","PDS2014-0005",NA,331,NA,NA,NA,"CS","Clinical Sign","CLINICAL SIGNS",NA,NA,"No abnormalities","No abnormalities",NA,NA,NA,NA,NA,NA,NA,NA,26,"2011-01-05T08:08:11",26,NA,NA,NA,NA,NA
"PDS2014","CL","PDS2014-0005",NA,332,NA,NA,NA,"CS","Clinical Sign","OPHTHALMOLOGY",NA,NA,"No abnormalities","No abnormalities",NA,NA,NA,NA,NA,NA,NA,NA,28,"2011-01-07T10:40:16",28,NA,NA,NA,NA,NA
"PDS2014","CL","PDS2014-0005",NA,333,NA,NA,NA,"CS","Clinical Sign","CLINICAL SIGNS",NA,NA,"No abnormalities","No abnormalities",NA,NA,NA,NA,NA,NA,NA,NA,8,"2010-12-18T07:52:06",8,NA,NA,NA,NA,NA
"PDS2014","CL","PDS2014-0005",NA,334,NA,NA,NA,"CS","Clinical Sign","CLINICAL SIGNS",NA,NA,"No abnormalities","No abnormalities",NA,NA,NA,NA,NA,NA,NA,NA,1,"2010-12-11T10:14:27",1,NA,NA,NA,NA,NA
"PDS2014","CL","PDS2014-0005",NA,335,NA,NA,NA,"CS","Clinical Sign","CLINICAL SIGNS",NA,NA,"No abnormalities","No abnormalities",NA,NA,NA,NA,NA,NA,NA,NA,22,"2011-01-01T11:37:26",22,NA,NA,NA,NA,NA
"PDS2014","CL","PDS2014-0005",NA,336,NA,NA,NA,"CS","Clinical Sign","OPHTHALMOLOGY",NA,NA,"No abnormalities","No abnormalities",NA,NA,NA,NA,NA,NA,NA,NA,-1,"2010-12-10T10:42:48",-1,NA,NA,NA,NA,NA
"PDS2014","CL","PDS2014-0005",NA,337,NA,NA,NA,"CS","Clinical Sign","CLINICAL SIGNS",NA,NA,"No abnormalities","No abnormalities",NA,NA,NA,NA,NA,NA,NA,NA,8,"2010-12-18T15:08:57",8,NA,NA,NA,NA,NA
"PDS2014","CL","PDS2014-0005",NA,338,NA,NA,NA,"CS","Clinical Sign","CLINICAL SIGNS",NA,NA,"No abnormalities","No abnormalities",NA,NA,NA,NA,NA,NA,NA,NA,27,"2011-01-06T08:56:42",27,NA,NA,NA,NA,NA
"PDS2014","CL","PDS2014-0006",NA,339,NA,NA,NA,"CS","Clinical Sign","CLINICAL SIGNS",NA,NA,"No abnormalities","No abnormalities",NA,NA,NA,NA,NA,NA,NA,NA,1,"2010-12-11T09:17:21",1,NA,NA,NA,NA,NA
"PDS2014","CL","PDS2014-0006",NA,340,NA,NA,NA,"CS","Clinical Sign","CLINICAL SIGNS",NA,NA,"No abnormalities","No abnormalities",NA,NA,NA,NA,NA,NA,NA,NA,15,"2010-12-25T11:16:05",15,NA,NA,NA,NA,NA
"PDS2014","CL","PDS2014-0006",NA,341,NA,NA,NA,"CS","Clinical Sign","CLINICAL SIGNS",NA,NA,"No abnormalities","No abnormalities",NA,NA,NA,NA,NA,NA,NA,NA,25,"2011-01-04T09:53:12",25,NA,NA,NA,NA,NA
"PDS2014","CL","PDS2014-0006",NA,342,NA,NA,NA,"CS","Clinical Sign","CLINICAL SIGNS",NA,NA,"No abnormalities","No abnormalities",NA,NA,NA,NA,NA,NA,NA,NA,22,"2011-01-01T08:25:39",22,NA,NA,NA,NA,NA
"PDS2014","CL","PDS2014-0006",NA,343,NA,NA,NA,"CS","Clinical Sign","CLINICAL SIGNS",NA,NA,"No abnormalities","No abnormalities",NA,NA,NA,NA,NA,NA,NA,NA,22,"2011-01-01T10:04:22",22,NA,NA,NA,NA,NA
"PDS2014","CL","PDS2014-0006",NA,344,NA,NA,NA,"CS","Clinical Sign","CLINICAL SIGNS",NA,NA,"No abnormalities","No abnormalities",NA,NA,NA,NA,NA,NA,NA,NA,1,"2010-12-11T15:11:14",1,NA,NA,NA,NA,NA
"PDS2014","CL","PDS2014-0006",NA,345,NA,NA,NA,"CS","Clinical Sign","CLINICAL SIGNS",NA,NA,"No abnormalities","No abnormalities",NA,NA,NA,NA,NA,NA,NA,NA,25,"2011-01-04T11:33:45",25,NA,NA,NA,NA,NA
"PDS2014","CL","PDS2014-0006",NA,346,NA,NA,NA,"CS","Clinical Sign","CLINICAL SIGNS",NA,NA,"No abnormalities","No abnormalities",NA,NA,NA,NA,NA,NA,NA,NA,23,"2011-01-02T08:17:56",23,NA,NA,NA,NA,NA
"PDS2014","CL","PDS2014-0006",NA,347,NA,NA,NA,"CS","Clinical Sign","CLINICAL SIGNS",NA,NA,"No abnormalities","No abnormalities",NA,NA,NA,NA,NA,NA,NA,NA,25,"2011-01-04T09:54:00",25,NA,NA,NA,NA,NA
"PDS2014","CL","PDS2014-0006",NA,348,NA,NA,NA,"CS","Clinical Sign","CLINICAL SIGNS",NA,NA,"No abnormalities","No abnormalities",NA,NA,NA,NA,NA,NA,NA,NA,31,"2011-01-10T08:10:53",31,NA,NA,NA,NA,NA
"PDS2014","CL","PDS2014-0006",NA,349,NA,NA,NA,"CS","Clinical Sign","CLINICAL SIGNS",NA,NA,"No abnormalities","No abnormalities",NA,NA,NA,NA,NA,NA,NA,NA,8,"2010-12-18T11:44:47",8,NA,NA,NA,NA,NA
"PDS2014","CL","PDS2014-0006",NA,350,NA,NA,NA,"CS","Clinical Sign","CLINICAL SIGNS",NA,NA,"No abnormalities","No abnormalities",NA,NA,NA,NA,NA,NA,NA,NA,15,"2010-12-25T07:29:30",15,NA,NA,NA,NA,NA
"PDS2014","CL","PDS2014-0006",NA,351,NA,NA,NA,"CS","Clinical Sign","CLINICAL SIGNS",NA,NA,"No abnormalities","No abnormalities",NA,NA,NA,NA,NA,NA,NA,NA,25,"2011-01-04T15:26:10",25,NA,NA,NA,NA,NA
"PDS2014","CL","PDS2014-0006",NA,352,NA,NA,NA,"CS","Clinical Sign","CLINICAL SIGNS",NA,NA,"Skin abnormal","Skin abnormal",NA,NA,NA,"Location: eye, Side: right, Coordinate: C6",NA,NA,NA,NA,10,"2010-12-20T10:57:02",10,NA,NA,NA,NA,NA
"PDS2014","CL","PDS2014-0006",NA,353,NA,NA,NA,"CS","Clinical Sign","CLINICAL SIGNS",NA,NA,"No abnormalities","No abnormalities",NA,NA,NA,NA,NA,NA,NA,NA,22,"2011-01-01T07:56:48",22,NA,NA,NA,NA,NA
"PDS2014","CL","PDS2014-0006",NA,354,NA,NA,NA,"CS","Clinical Sign","CLINICAL SIGNS",NA,NA,"No abnormalities","No abnormalities",NA,NA,NA,NA,NA,NA,NA,NA,25,"2011-01-04T08:38:48",25,NA,NA,NA,NA,NA
"PDS2014","CL","PDS2014-0006",NA,355,NA,NA,NA,"CS","Clinical Sign","CLINICAL SIGNS",NA,NA,"No abnormalities","No abnormalities",NA,NA,NA,NA,NA,NA,NA,NA,20,"2010-12-30T08:08:39",20,NA,NA,NA,NA,NA
"PDS2014","CL","PDS2014-0006",NA,356,NA,NA,NA,"CS","Clinical Sign","CLINICAL SIGNS",NA,NA,"Skin abnormal","Skin abnormal",NA,NA,NA,"Location: eye, Side: right, Coordinate: C6",NA,NA,NA,NA,6,"2010-12-16T08:53:34",6,NA,NA,NA,NA,NA
"PDS2014","CL","PDS2014-0006",NA,357,NA,NA,NA,"CS","Clinical Sign","CLINICAL SIGNS",NA,NA,"No abnormalities","No abnormalities",NA,NA,NA,NA,NA,NA,NA,NA,15,"2010-12-25T12:59:20",15,NA,NA,NA,NA,NA
"PDS2014","CL","PDS2014-0006",NA,358,NA,NA,NA,"CS","Clinical Sign","CLINICAL SIGNS",NA,NA,"No abnormalities","No abnormalities",NA,NA,NA,NA,NA,NA,NA,NA,23,"2011-01-02T06:29:04",23,NA,NA,NA,NA,NA
"PDS2014","CL","PDS2014-0006",NA,359,NA,NA,NA,"CS","Clinical Sign","CLINICAL SIGNS",NA,NA,"No abnormalities","No abnormalities",NA,NA,NA,NA,NA,NA,NA,NA,21,"2010-12-31T08:53:05",21,NA,NA,NA,NA,NA
"PDS2014","CL","PDS2014-0006",NA,360,NA,NA,NA,"CS","Clinical Sign","CLINICAL SIGNS",NA,NA,"No abnormalities","No abnormalities",NA,NA,NA,NA,NA,NA,NA,NA,2,"2010-12-12T09:12:57",2,NA,NA,NA,NA,NA
"PDS2014","CL","PDS2014-0006",NA,361,NA,NA,NA,"CS","Clinical Sign","CLINICAL SIGNS",NA,NA,"Skin abnormal","Skin abnormal",NA,NA,NA,"Location: eye, Side: right, Coordinate: C6",NA,NA,NA,NA,3,"2010-12-13T11:05:09",3,NA,NA,NA,NA,NA
"PDS2014","CL","PDS2014-0006",NA,362,NA,NA,NA,"CS","Clinical Sign","CLINICAL SIGNS",NA,NA,"Skin abnormal","Skin abnormal",NA,NA,NA,"Location: eye, Side: right, Coordinate: C6",NA,NA,NA,NA,8,"2010-12-18T13:04:09",8,NA,NA,NA,NA,NA
"PDS2014","CL","PDS2014-0006",NA,363,NA,NA,NA,"CS","Clinical Sign","CLINICAL SIGNS",NA,NA,"Skin abnormal","Skin abnormal",NA,NA,NA,"Location: eye, Side: right, Coordinate: C6",NA,NA,NA,NA,11,"2010-12-21T07:25:03",11,NA,NA,NA,NA,NA
"PDS2014","CL","PDS2014-0006",NA,364,NA,NA,NA,"CS","Clinical Sign","CLINICAL SIGNS",NA,NA,"No abnormalities","No abnormalities",NA,NA,NA,NA,NA,NA,NA,NA,9,"2010-12-19T08:07:39",9,NA,NA,NA,NA,NA
"PDS2014","CL","PDS2014-0006",NA,365,NA,NA,NA,"CS","Clinical Sign","CLINICAL SIGNS",NA,NA,"No abnormalities","No abnormalities",NA,NA,NA,NA,NA,NA,NA,NA,16,"2010-12-26T06:59:23",16,NA,NA,NA,NA,NA
"PDS2014","CL","PDS2014-0006",NA,366,NA,NA,NA,"CS","Clinical Sign","CLINICAL SIGNS",NA,NA,"No abnormalities","No abnormalities",NA,NA,NA,NA,NA,NA,NA,NA,15,"2010-12-25T07:18:27",15,NA,NA,NA,NA,NA
"PDS2014","CL","PDS2014-0006",NA,367,NA,NA,NA,"CS","Clinical Sign","CLINICAL SIGNS",NA,NA,"No abnormalities","No abnormalities",NA,NA,NA,NA,NA,NA,NA,NA,30,"2011-01-09T10:53:22",30,NA,NA,NA,NA,NA
"PDS2014","CL","PDS2014-0006",NA,368,NA,NA,NA,"CS","Clinical Sign","CLINICAL SIGNS",NA,NA,"No abnormalities","No abnormalities",NA,NA,NA,NA,NA,NA,NA,NA,19,"2010-12-29T09:34:46",19,NA,NA,NA,NA,NA
"PDS2014","CL","PDS2014-0006",NA,369,NA,NA,NA,"CS","Clinical Sign","CLINICAL SIGNS",NA,NA,"Skin abnormal","Skin abnormal",NA,NA,NA,"Location: eye, Side: right, Coordinate: C6",NA,NA,NA,NA,5,"2010-12-15T08:32:38",5,NA,NA,NA,NA,NA
"PDS2014","CL","PDS2014-0006",NA,370,NA,NA,NA,"CS","Clinical Sign","CLINICAL SIGNS",NA,NA,"Skin abnormal","Skin abnormal",NA,NA,NA,"Location: eye, Side: right, Coordinate: C6",NA,NA,NA,NA,1,"2010-12-11T13:03:16",1,NA,NA,NA,NA,NA
"PDS2014","CL","PDS2014-0006",NA,371,NA,NA,NA,"CS","Clinical Sign","CLINICAL SIGNS",NA,NA,"No abnormalities","No abnormalities",NA,NA,NA,NA,NA,NA,NA,NA,22,"2011-01-01T07:25:58",22,NA,NA,NA,NA,NA
"PDS2014","CL","PDS2014-0006",NA,372,NA,NA,NA,"CS","Clinical Sign","CLINICAL SIGNS",NA,NA,"No abnormalities","No abnormalities",NA,NA,NA,NA,NA,NA,NA,NA,22,"2011-01-01T06:32:11",22,NA,NA,NA,NA,NA
"PDS2014","CL","PDS2014-0006",NA,373,NA,NA,NA,"CS","Clinical Sign","OPHTHALMOLOGY",NA,NA,"Preretinal bleeding","Preretinal bleeding",NA,NA,NA,"Location: unilateral, Location: right",NA,NA,NA,NA,28,"2011-01-07T10:51:19",28,NA,NA,NA,NA,NA
"PDS2014","CL","PDS2014-0006",NA,374,NA,NA,NA,"CS","Clinical Sign","CLINICAL SIGNS",NA,NA,"No abnormalities","No abnormalities",NA,NA,NA,NA,NA,NA,NA,NA,8,"2010-12-18T07:57:45",8,NA,NA,NA,NA,NA
"PDS2014","CL","PDS2014-0006",NA,375,NA,NA,NA,"CS","Clinical Sign","CLINICAL SIGNS",NA,NA,"No abnormalities","No abnormalities",NA,NA,NA,NA,NA,NA,NA,NA,25,"2011-01-04T08:24:01",25,NA,NA,NA,NA,NA
"PDS2014","CL","PDS2014-0006",NA,376,NA,NA,NA,"CS","Clinical Sign","CLINICAL SIGNS",NA,NA,"Skin abnormal","Skin abnormal",NA,NA,NA,"Location: eye, Side: right, Coordinate: C6",NA,NA,NA,NA,4,"2010-12-14T09:48:42",4,NA,NA,NA,NA,NA
"PDS2014","CL","PDS2014-0006",NA,377,NA,NA,NA,"CS","Clinical Sign","CLINICAL SIGNS",NA,NA,"No abnormalities","No abnormalities",NA,NA,NA,NA,NA,NA,NA,NA,26,"2011-01-05T10:05:01",26,NA,NA,NA,NA,NA
"PDS2014","CL","PDS2014-0006",NA,378,NA,NA,NA,"CS","Clinical Sign","CLINICAL SIGNS",NA,NA,"Skin abnormal","Skin abnormal",NA,NA,NA,"Location: eye, Side: right, Coordinate: C6",NA,NA,NA,NA,7,"2010-12-17T08:01:09",7,NA,NA,NA,NA,NA
"PDS2014","CL","PDS2014-0006",NA,379,NA,NA,NA,"CS","Clinical Sign","CLINICAL SIGNS",NA,NA,"Skin abnormal","Skin abnormal",NA,NA,NA,"Location: eye, Side: right, Coordinate: C6",NA,NA,NA,NA,12,"2010-12-22T08:06:16",12,NA,NA,NA,NA,NA
"PDS2014","CL","PDS2014-0006",NA,380,NA,NA,NA,"CS","Clinical Sign","CLINICAL SIGNS",NA,NA,"No abnormalities","No abnormalities",NA,NA,NA,NA,NA,NA,NA,NA,15,"2010-12-25T08:24:08",15,NA,NA,NA,NA,NA
"PDS2014","CL","PDS2014-0006",NA,381,NA,NA,NA,"CS","Clinical Sign","CLINICAL SIGNS",NA,NA,"No abnormalities","No abnormalities",NA,NA,NA,NA,NA,NA,NA,NA,16,"2010-12-26T07:09:11",16,NA,NA,NA,NA,NA
"PDS2014","CL","PDS2014-0006",NA,382,NA,NA,NA,"CS","Clinical Sign","CLINICAL SIGNS",NA,NA,"Skin abnormal","Skin abnormal",NA,NA,NA,"Location: eye, Side: right, Coordinate: C6",NA,NA,NA,NA,13,"2010-12-23T07:26:09",13,NA,NA,NA,NA,NA
"PDS2014","CL","PDS2014-0006",NA,383,NA,NA,NA,"CS","Clinical Sign","CLINICAL SIGNS",NA,NA,"No abnormalities","No abnormalities",NA,NA,NA,NA,NA,NA,NA,NA,8,"2010-12-18T08:06:05",8,NA,NA,NA,NA,NA
"PDS2014","CL","PDS2014-0006",NA,384,NA,NA,NA,"CS","Clinical Sign","CLINICAL SIGNS",NA,NA,"No abnormalities","No abnormalities",NA,NA,NA,NA,NA,NA,NA,NA,18,"2010-12-28T07:57:27",18,NA,NA,NA,NA,NA
"PDS2014","CL","PDS2014-0006",NA,385,NA,NA,NA,"CS","Clinical Sign","CLINICAL SIGNS",NA,NA,"No abnormalities","No abnormalities",NA,NA,NA,NA,NA,NA,NA,NA,28,"2011-01-07T07:27:06",28,NA,NA,NA,NA,NA
"PDS2014","CL","PDS2014-0006",NA,386,NA,NA,NA,"CS","Clinical Sign","CLINICAL SIGNS",NA,NA,"No abnormalities","No abnormalities",NA,NA,NA,NA,NA,NA,NA,NA,8,"2010-12-18T09:53:45",8,NA,NA,NA,NA,NA
"PDS2014","CL","PDS2014-0006",NA,387,NA,NA,NA,"CS","Clinical Sign","CLINICAL SIGNS",NA,NA,"No abnormalities","No abnormalities",NA,NA,NA,NA,NA,NA,NA,NA,9,"2010-12-19T11:43:59",9,NA,NA,NA,NA,NA
"PDS2014","CL","PDS2014-0006",NA,388,NA,NA,NA,"CS","Clinical Sign","CLINICAL SIGNS",NA,NA,"No abnormalities","No abnormalities",NA,NA,NA,NA,NA,NA,NA,NA,1,"2010-12-11T13:13:25",1,NA,NA,NA,NA,NA
"PDS2014","CL","PDS2014-0006",NA,389,NA,NA,NA,"CS","Clinical Sign","CLINICAL SIGNS",NA,NA,"No abnormalities","No abnormalities",NA,NA,NA,NA,NA,NA,NA,NA,26,"2011-01-05T08:08:11",26,NA,NA,NA,NA,NA
"PDS2014","CL","PDS2014-0006",NA,390,NA,NA,NA,"CS","Clinical Sign","CLINICAL SIGNS",NA,NA,"No abnormalities","No abnormalities",NA,NA,NA,NA,NA,NA,NA,NA,8,"2010-12-18T09:05:50",8,NA,NA,NA,NA,NA
"PDS2014","CL","PDS2014-0006",NA,391,NA,NA,NA,"CS","Clinical Sign","CLINICAL SIGNS",NA,NA,"No abnormalities","No abnormalities",NA,NA,NA,NA,NA,NA,NA,NA,24,"2011-01-03T08:36:36",24,NA,NA,NA,NA,NA
"PDS2014","CL","PDS2014-0006",NA,392,NA,NA,NA,"CS","Clinical Sign","CLINICAL SIGNS",NA,NA,"No abnormalities","No abnormalities",NA,NA,NA,NA,NA,NA,NA,NA,17,"2010-12-27T09:59:01",17,NA,NA,NA,NA,NA
"PDS2014","CL","PDS2014-0006",NA,393,NA,NA,NA,"CS","Clinical Sign","OPHTHALMOLOGY",NA,NA,"Ocular discharge","Ocular discharge",NA,NA,NA,"Location: unilateral, Location: right",NA,NA,NA,NA,-1,"2010-12-10T10:48:52",-1,NA,NA,NA,NA,NA
"PDS2014","CL","PDS2014-0006",NA,394,NA,NA,NA,"CS","Clinical Sign","CLINICAL SIGNS",NA,NA,"No abnormalities","No abnormalities",NA,NA,NA,NA,NA,NA,NA,NA,1,"2010-12-11T10:14:27",1,NA,NA,NA,NA,NA
"PDS2014","CL","PDS2014-0006",NA,395,NA,NA,NA,"CS","Clinical Sign","CLINICAL SIGNS",NA,NA,"No abnormalities","No abnormalities",NA,NA,NA,NA,NA,NA,NA,NA,29,"2011-01-08T07:14:16",29,NA,NA,NA,NA,NA
"PDS2014","CL","PDS2014-0006",NA,396,NA,NA,NA,"CS","Clinical Sign","CLINICAL SIGNS",NA,NA,"No abnormalities","No abnormalities",NA,NA,NA,NA,NA,NA,NA,NA,25,"2011-01-04T08:10:54",25,NA,NA,NA,NA,NA
"PDS2014","CL","PDS2014-0006",NA,397,NA,NA,NA,"CS","Clinical Sign","CLINICAL SIGNS",NA,NA,"No abnormalities","No abnormalities",NA,NA,NA,NA,NA,NA,NA,NA,14,"2010-12-24T07:56:11",14,NA,NA,NA,NA,NA
"PDS2014","CL","PDS2014-0006",NA,398,NA,NA,NA,"CS","Clinical Sign","CLINICAL SIGNS",NA,NA,"No abnormalities","No abnormalities",NA,NA,NA,NA,NA,NA,NA,NA,1,"2010-12-11T09:33:07",1,NA,NA,NA,NA,NA
"PDS2014","CL","PDS2014-0006",NA,399,NA,NA,NA,"CS","Clinical Sign","CLINICAL SIGNS",NA,NA,"No abnormalities","No abnormalities",NA,NA,NA,NA,NA,NA,NA,NA,22,"2011-01-01T06:39:37",22,NA,NA,NA,NA,NA
"PDS2014","CL","PDS2014-0006",NA,400,NA,NA,NA,"CS","Clinical Sign","CLINICAL SIGNS",NA,NA,"No abnormalities","No abnormalities",NA,NA,NA,NA,NA,NA,NA,NA,15,"2010-12-25T10:38:59",15,NA,NA,NA,NA,NA
"PDS2014","CL","PDS2014-0006",NA,401,NA,NA,NA,"CS","Clinical Sign","CLINICAL SIGNS",NA,NA,"No abnormalities","No abnormalities",NA,NA,NA,NA,NA,NA,NA,NA,8,"2010-12-18T15:08:57",8,NA,NA,NA,NA,NA
"PDS2014","CL","PDS2014-0006",NA,402,NA,NA,NA,"CS","Clinical Sign","CLINICAL SIGNS",NA,NA,"No abnormalities","No abnormalities",NA,NA,NA,NA,NA,NA,NA,NA,1,"2010-12-11T11:18:24",1,NA,NA,NA,NA,NA
"PDS2014","CL","PDS2014-0006",NA,403,NA,NA,NA,"CS","Clinical Sign","CLINICAL SIGNS",NA,NA,"Skin abnormal","Skin abnormal",NA,NA,NA,"Location: eye, Side: right, Coordinate: C6",NA,NA,NA,NA,2,"2010-12-12T10:32:52",2,NA,NA,NA,NA,NA
"PDS2014","CL","PDS2014-0006",NA,404,NA,NA,NA,"CS","Clinical Sign","CLINICAL SIGNS",NA,NA,"No abnormalities","No abnormalities",NA,NA,NA,NA,NA,NA,NA,NA,22,"2011-01-01T11:37:26",22,NA,NA,NA,NA,NA
"PDS2014","CL","PDS2014-0006",NA,405,NA,NA,NA,"CS","Clinical Sign","CLINICAL SIGNS",NA,NA,"No abnormalities","No abnormalities",NA,NA,NA,NA,NA,NA,NA,NA,15,"2010-12-25T09:02:25",15,NA,NA,NA,NA,NA
"PDS2014","CL","PDS2014-0006",NA,406,NA,NA,NA,"CS","Clinical Sign","CLINICAL SIGNS",NA,NA,"No abnormalities","No abnormalities",NA,NA,NA,NA,NA,NA,NA,NA,27,"2011-01-06T08:56:42",27,NA,NA,NA,NA,NA
"PDS2014","CL","PDS2014-0007",NA,407,NA,NA,NA,"CS","Clinical Sign","CLINICAL SIGNS",NA,NA,"No abnormalities","No abnormalities",NA,NA,NA,NA,NA,NA,NA,NA,1,"2010-12-11T09:51:56",1,NA,NA,NA,NA,NA
"PDS2014","CL","PDS2014-0007",NA,408,NA,NA,NA,"CS","Clinical Sign","CLINICAL SIGNS",NA,NA,"Haircoat abnormal","Haircoat abnormal",NA,NA,NA,NA,NA,NA,NA,NA,31,"2011-01-10T08:11:51",31,NA,NA,NA,NA,NA
"PDS2014","CL","PDS2014-0007",NA,409,NA,NA,NA,"CS","Clinical Sign","CLINICAL SIGNS",NA,NA,"No abnormalities","No abnormalities",NA,NA,NA,NA,NA,NA,NA,NA,23,"2011-01-02T08:17:56",23,NA,NA,NA,NA,NA
"PDS2014","CL","PDS2014-0007",NA,410,NA,NA,NA,"CS","Clinical Sign","CLINICAL SIGNS",NA,NA,"No abnormalities","No abnormalities",NA,NA,NA,NA,NA,NA,NA,NA,15,"2010-12-25T07:18:27",15,NA,NA,NA,NA,NA
"PDS2014","CL","PDS2014-0007",NA,411,NA,NA,NA,"CS","Clinical Sign","CLINICAL SIGNS",NA,NA,"Haircoat abnormal","Haircoat abnormal",NA,NA,NA,NA,NA,NA,NA,NA,28,"2011-01-07T07:22:47",28,NA,NA,NA,NA,NA
"PDS2014","CL","PDS2014-0007",NA,412,NA,NA,NA,"CS","Clinical Sign","CLINICAL SIGNS",NA,NA,"No abnormalities","No abnormalities",NA,NA,NA,NA,NA,NA,NA,NA,22,"2011-01-01T11:37:26",22,NA,NA,NA,NA,NA
"PDS2014","CL","PDS2014-0007",NA,413,NA,NA,NA,"CS","Clinical Sign","CLINICAL SIGNS",NA,NA,"Haircoat abnormal","Haircoat abnormal",NA,NA,NA,NA,NA,NA,NA,NA,29,"2011-01-08T07:16:17",29,NA,NA,NA,NA,NA
"PDS2014","CL","PDS2014-0007",NA,414,NA,NA,NA,"CS","Clinical Sign","CLINICAL SIGNS",NA,NA,"No abnormalities","No abnormalities",NA,NA,NA,NA,NA,NA,NA,NA,2,"2010-12-12T09:12:57",2,NA,NA,NA,NA,NA
"PDS2014","CL","PDS2014-0007",NA,415,NA,NA,NA,"CS","Clinical Sign","CLINICAL SIGNS",NA,NA,"No abnormalities","No abnormalities",NA,NA,NA,NA,NA,NA,NA,NA,25,"2011-01-04T09:53:12",25,NA,NA,NA,NA,NA
"PDS2014","CL","PDS2014-0007",NA,416,NA,NA,NA,"CS","Clinical Sign","CLINICAL SIGNS",NA,NA,"No abnormalities","No abnormalities",NA,NA,NA,NA,NA,NA,NA,NA,25,"2011-01-04T08:38:48",25,NA,NA,NA,NA,NA
"PDS2014","CL","PDS2014-0007",NA,417,NA,NA,NA,"CS","Clinical Sign","CLINICAL SIGNS",NA,NA,"No abnormalities","No abnormalities",NA,NA,NA,NA,NA,NA,NA,NA,25,"2011-01-04T11:33:45",25,NA,NA,NA,NA,NA
"PDS2014","CL","PDS2014-0007",NA,418,NA,NA,NA,"CS","Clinical Sign","CLINICAL SIGNS",NA,NA,"No abnormalities","No abnormalities",NA,NA,NA,NA,NA,NA,NA,NA,22,"2011-01-01T08:25:39",22,NA,NA,NA,NA,NA
"PDS2014","CL","PDS2014-0007",NA,419,NA,NA,NA,"CS","Clinical Sign","CLINICAL SIGNS",NA,NA,"No abnormalities","No abnormalities",NA,NA,NA,NA,NA,NA,NA,NA,10,"2010-12-20T11:00:10",10,NA,NA,NA,NA,NA
"PDS2014","CL","PDS2014-0007",NA,420,NA,NA,NA,"CS","Clinical Sign","CLINICAL SIGNS",NA,NA,"No abnormalities","No abnormalities",NA,NA,NA,NA,NA,NA,NA,NA,22,"2011-01-01T10:04:22",22,NA,NA,NA,NA,NA
"PDS2014","CL","PDS2014-0007",NA,421,NA,NA,NA,"CS","Clinical Sign","CLINICAL SIGNS",NA,NA,"No abnormalities","No abnormalities",NA,NA,NA,NA,NA,NA,NA,NA,8,"2010-12-18T09:05:50",8,NA,NA,NA,NA,NA
"PDS2014","CL","PDS2014-0007",NA,422,NA,NA,NA,"CS","Clinical Sign","CLINICAL SIGNS",NA,NA,"No abnormalities","No abnormalities",NA,NA,NA,NA,NA,NA,NA,NA,15,"2010-12-25T07:28:46",15,NA,NA,NA,NA,NA
"PDS2014","CL","PDS2014-0007",NA,423,NA,NA,NA,"CS","Clinical Sign","CLINICAL SIGNS",NA,NA,"No abnormalities","No abnormalities",NA,NA,NA,NA,NA,NA,NA,NA,1,"2010-12-11T09:17:21",1,NA,NA,NA,NA,NA
"PDS2014","CL","PDS2014-0007",NA,424,NA,NA,NA,"CS","Clinical Sign","CLINICAL SIGNS",NA,NA,"Skin abnormal","Skin abnormal",NA,NA,NA,"Location: eye, Side: left, Coordinate: C9",NA,NA,NA,NA,6,"2010-12-16T08:55:09",6,NA,NA,NA,NA,NA
"PDS2014","CL","PDS2014-0007",NA,425,NA,NA,NA,"CS","Clinical Sign","CLINICAL SIGNS",NA,NA,"No abnormalities","No abnormalities",NA,NA,NA,NA,NA,NA,NA,NA,20,"2010-12-30T08:08:39",20,NA,NA,NA,NA,NA
"PDS2014","CL","PDS2014-0007",NA,426,NA,NA,NA,"CS","Clinical Sign","CLINICAL SIGNS",NA,NA,"Skin abnormal","Skin abnormal",NA,NA,NA,"Location: eye, Side: left, Coordinate: C9",NA,NA,NA,NA,3,"2010-12-13T11:05:57",3,NA,NA,NA,NA,NA
"PDS2014","CL","PDS2014-0007",NA,427,NA,NA,NA,"CS","Clinical Sign","CLINICAL SIGNS",NA,NA,"No abnormalities","No abnormalities",NA,NA,NA,NA,NA,NA,NA,NA,9,"2010-12-19T08:07:39",9,NA,NA,NA,NA,NA
"PDS2014","CL","PDS2014-0007",NA,428,NA,NA,NA,"CS","Clinical Sign","CLINICAL SIGNS",NA,NA,"No abnormalities","No abnormalities",NA,NA,NA,NA,NA,NA,NA,NA,21,"2010-12-31T08:53:05",21,NA,NA,NA,NA,NA
"PDS2014","CL","PDS2014-0007",NA,429,NA,NA,NA,"CS","Clinical Sign","CLINICAL SIGNS",NA,NA,"No abnormalities","No abnormalities",NA,NA,NA,NA,NA,NA,NA,NA,15,"2010-12-25T11:16:05",15,NA,NA,NA,NA,NA
"PDS2014","CL","PDS2014-0007",NA,430,NA,NA,NA,"CS","Clinical Sign","CLINICAL SIGNS",NA,NA,"No abnormalities","No abnormalities",NA,NA,NA,NA,NA,NA,NA,NA,8,"2010-12-18T12:57:55",8,NA,NA,NA,NA,NA
"PDS2014","CL","PDS2014-0007",NA,431,NA,NA,NA,"CS","Clinical Sign","CLINICAL SIGNS",NA,NA,"No abnormalities","No abnormalities",NA,NA,NA,NA,NA,NA,NA,NA,8,"2010-12-18T13:06:00",8,NA,NA,NA,NA,NA
"PDS2014","CL","PDS2014-0007",NA,432,NA,NA,NA,"CS","Clinical Sign","CLINICAL SIGNS",NA,NA,"No abnormalities","No abnormalities",NA,NA,NA,NA,NA,NA,NA,NA,11,"2010-12-21T07:29:59",11,NA,NA,NA,NA,NA
"PDS2014","CL","PDS2014-0007",NA,433,NA,NA,NA,"CS","Clinical Sign","CLINICAL SIGNS",NA,NA,"Haircoat abnormal","Haircoat abnormal",NA,NA,NA,NA,NA,NA,NA,NA,30,"2011-01-09T10:52:27",30,NA,NA,NA,NA,NA
"PDS2014","CL","PDS2014-0007",NA,434,NA,NA,NA,"CS","Clinical Sign","CLINICAL SIGNS",NA,NA,"No abnormalities","No abnormalities",NA,NA,NA,NA,NA,NA,NA,NA,19,"2010-12-29T09:34:46",19,NA,NA,NA,NA,NA
"PDS2014","CL","PDS2014-0007",NA,435,NA,NA,NA,"CS","Clinical Sign","CLINICAL SIGNS",NA,NA,"No abnormalities","No abnormalities",NA,NA,NA,NA,NA,NA,NA,NA,26,"2011-01-05T10:05:01",26,NA,NA,NA,NA,NA
"PDS2014","CL","PDS2014-0007",NA,436,NA,NA,NA,"CS","Clinical Sign","OPHTHALMOLOGY",NA,NA,"Preretinal bleeding","Preretinal bleeding",NA,NA,NA,"Location: unilateral, Location: right",NA,NA,NA,NA,28,"2011-01-07T10:48:11",28,NA,NA,NA,NA,NA
"PDS2014","CL","PDS2014-0007",NA,437,NA,NA,NA,"CS","Clinical Sign","OPHTHALMOLOGY",NA,NA,"Persistent hyaloid artery","Persistent hyaloid artery",NA,NA,NA,"Location: unilateral, Location: right",NA,NA,NA,NA,28,"2011-01-07T10:48:20",28,NA,NA,NA,NA,NA
"PDS2014","CL","PDS2014-0007",NA,438,NA,NA,NA,"CS","Clinical Sign","CLINICAL SIGNS",NA,NA,"Skin abnormal","Skin abnormal",NA,NA,NA,"Location: eye, Side: left, Coordinate: C9",NA,NA,NA,NA,5,"2010-12-15T08:33:31",5,NA,NA,NA,NA,NA
"PDS2014","CL","PDS2014-0007",NA,439,NA,NA,NA,"CS","Clinical Sign","CLINICAL SIGNS",NA,NA,"No abnormalities","No abnormalities",NA,NA,NA,NA,NA,NA,NA,NA,25,"2011-01-04T08:26:20",25,NA,NA,NA,NA,NA
"PDS2014","CL","PDS2014-0007",NA,440,NA,NA,NA,"CS","Clinical Sign","CLINICAL SIGNS",NA,NA,"No abnormalities","No abnormalities",NA,NA,NA,NA,NA,NA,NA,NA,16,"2010-12-26T07:10:20",16,NA,NA,NA,NA,NA
"PDS2014","CL","PDS2014-0007",NA,441,NA,NA,NA,"CS","Clinical Sign","CLINICAL SIGNS",NA,NA,"No abnormalities","No abnormalities",NA,NA,NA,NA,NA,NA,NA,NA,23,"2011-01-02T06:29:04",23,NA,NA,NA,NA,NA
"PDS2014","CL","PDS2014-0007",NA,442,NA,NA,NA,"CS","Clinical Sign","CLINICAL SIGNS",NA,NA,"No abnormalities","No abnormalities",NA,NA,NA,NA,NA,NA,NA,NA,12,"2010-12-22T08:09:19",12,NA,NA,NA,NA,NA
"PDS2014","CL","PDS2014-0007",NA,443,NA,NA,NA,"CS","Clinical Sign","CLINICAL SIGNS",NA,NA,"No abnormalities","No abnormalities",NA,NA,NA,NA,NA,NA,NA,NA,16,"2010-12-26T06:59:23",16,NA,NA,NA,NA,NA
"PDS2014","CL","PDS2014-0007",NA,444,NA,NA,NA,"CS","Clinical Sign","CLINICAL SIGNS",NA,NA,"No abnormalities","No abnormalities",NA,NA,NA,NA,NA,NA,NA,NA,14,"2010-12-24T07:59:18",14,NA,NA,NA,NA,NA
"PDS2014","CL","PDS2014-0007",NA,445,NA,NA,NA,"CS","Clinical Sign","CLINICAL SIGNS",NA,NA,"No abnormalities","No abnormalities",NA,NA,NA,NA,NA,NA,NA,NA,1,"2010-12-11T13:13:25",1,NA,NA,NA,NA,NA
"PDS2014","CL","PDS2014-0007",NA,446,NA,NA,NA,"CS","Clinical Sign","CLINICAL SIGNS",NA,NA,"No abnormalities","No abnormalities",NA,NA,NA,NA,NA,NA,NA,NA,8,"2010-12-18T07:57:45",8,NA,NA,NA,NA,NA
"PDS2014","CL","PDS2014-0007",NA,447,NA,NA,NA,"CS","Clinical Sign","CLINICAL SIGNS",NA,NA,"No abnormalities","No abnormalities",NA,NA,NA,NA,NA,NA,NA,NA,15,"2010-12-25T08:24:08",15,NA,NA,NA,NA,NA
"PDS2014","CL","PDS2014-0007",NA,448,NA,NA,NA,"CS","Clinical Sign","CLINICAL SIGNS",NA,NA,"Skin abnormal","Skin abnormal",NA,NA,NA,"Location: eye, Side: left, Coordinate: C9",NA,NA,NA,NA,7,"2010-12-17T08:00:07",7,NA,NA,NA,NA,NA
"PDS2014","CL","PDS2014-0007",NA,449,NA,NA,NA,"CS","Clinical Sign","CLINICAL SIGNS",NA,NA,"No abnormalities","No abnormalities",NA,NA,NA,NA,NA,NA,NA,NA,22,"2011-01-01T06:32:11",22,NA,NA,NA,NA,NA
"PDS2014","CL","PDS2014-0007",NA,450,NA,NA,NA,"CS","Clinical Sign","CLINICAL SIGNS",NA,NA,"No abnormalities","No abnormalities",NA,NA,NA,NA,NA,NA,NA,NA,8,"2010-12-18T08:06:37",8,NA,NA,NA,NA,NA
"PDS2014","CL","PDS2014-0007",NA,451,NA,NA,NA,"CS","Clinical Sign","CLINICAL SIGNS",NA,NA,"No abnormalities","No abnormalities",NA,NA,NA,NA,NA,NA,NA,NA,13,"2010-12-23T07:24:45",13,NA,NA,NA,NA,NA
"PDS2014","CL","PDS2014-0007",NA,452,NA,NA,NA,"CS","Clinical Sign","CLINICAL SIGNS",NA,NA,"No abnormalities","No abnormalities",NA,NA,NA,NA,NA,NA,NA,NA,15,"2010-12-25T12:59:20",15,NA,NA,NA,NA,NA
"PDS2014","CL","PDS2014-0007",NA,453,NA,NA,NA,"CS","Clinical Sign","CLINICAL SIGNS",NA,NA,"No abnormalities","No abnormalities",NA,NA,NA,NA,NA,NA,NA,NA,9,"2010-12-19T11:43:59",9,NA,NA,NA,NA,NA
"PDS2014","CL","PDS2014-0007",NA,454,NA,NA,NA,"CS","Clinical Sign","CLINICAL SIGNS",NA,NA,"Skin abnormal","Skin abnormal",NA,NA,NA,"Location: eye, Side: left, Coordinate: C9",NA,NA,NA,NA,4,"2010-12-14T09:49:20",4,NA,NA,NA,NA,NA
"PDS2014","CL","PDS2014-0007",NA,455,NA,NA,NA,"CS","Clinical Sign","CLINICAL SIGNS",NA,NA,"No abnormalities","No abnormalities",NA,NA,NA,NA,NA,NA,NA,NA,8,"2010-12-18T09:53:45",8,NA,NA,NA,NA,NA
"PDS2014","CL","PDS2014-0007",NA,456,NA,NA,NA,"CS","Clinical Sign","CLINICAL SIGNS",NA,NA,"No abnormalities","No abnormalities",NA,NA,NA,NA,NA,NA,NA,NA,15,"2010-12-25T10:38:59",15,NA,NA,NA,NA,NA
"PDS2014","CL","PDS2014-0007",NA,457,NA,NA,NA,"CS","Clinical Sign","OPHTHALMOLOGY",NA,NA,"Preretinal bleeding","Preretinal bleeding",NA,NA,NA,"Location: unilateral, Location: right",NA,NA,NA,NA,-1,"2010-12-10T10:50:37",-1,NA,NA,NA,NA,NA
"PDS2014","CL","PDS2014-0007",NA,458,NA,NA,NA,"CS","Clinical Sign","CLINICAL SIGNS",NA,NA,"No abnormalities","No abnormalities",NA,NA,NA,NA,NA,NA,NA,NA,24,"2011-01-03T08:36:36",24,NA,NA,NA,NA,NA
"PDS2014","CL","PDS2014-0007",NA,459,NA,NA,NA,"CS","Clinical Sign","CLINICAL SIGNS",NA,NA,"No abnormalities","No abnormalities",NA,NA,NA,NA,NA,NA,NA,NA,17,"2010-12-27T09:59:01",17,NA,NA,NA,NA,NA
"PDS2014","CL","PDS2014-0007",NA,460,NA,NA,NA,"CS","Clinical Sign","OPHTHALMOLOGY",NA,NA,"Persistent hyaloid artery","Persistent hyaloid artery",NA,NA,NA,"Location: unilateral, Location: right",NA,NA,NA,NA,-1,"2010-12-10T10:50:13",-1,NA,NA,NA,NA,NA
"PDS2014","CL","PDS2014-0007",NA,461,NA,NA,NA,"CS","Clinical Sign","CLINICAL SIGNS",NA,NA,"No abnormalities","No abnormalities",NA,NA,NA,NA,NA,NA,NA,NA,22,"2011-01-01T07:56:48",22,NA,NA,NA,NA,NA
"PDS2014","CL","PDS2014-0007",NA,462,NA,NA,NA,"CS","Clinical Sign","CLINICAL SIGNS",NA,NA,"No abnormalities","No abnormalities",NA,NA,NA,NA,NA,NA,NA,NA,18,"2010-12-28T07:51:47",18,NA,NA,NA,NA,NA
"PDS2014","CL","PDS2014-0007",NA,463,NA,NA,NA,"CS","Clinical Sign","CLINICAL SIGNS",NA,NA,"No abnormalities","No abnormalities",NA,NA,NA,NA,NA,NA,NA,NA,22,"2011-01-01T07:25:58",22,NA,NA,NA,NA,NA
"PDS2014","CL","PDS2014-0007",NA,464,NA,NA,NA,"CS","Clinical Sign","CLINICAL SIGNS",NA,NA,"No abnormalities","No abnormalities",NA,NA,NA,NA,NA,NA,NA,NA,8,"2010-12-18T11:44:47",8,NA,NA,NA,NA,NA
"PDS2014","CL","PDS2014-0007",NA,465,NA,NA,NA,"CS","Clinical Sign","CLINICAL SIGNS",NA,NA,"Skin abnormal","Skin abnormal",NA,NA,NA,"Location: eye, Side: left, Coordinate: C9",NA,NA,NA,NA,2,"2010-12-12T10:31:52",2,NA,NA,NA,NA,NA
"PDS2014","CL","PDS2014-0007",NA,466,NA,NA,NA,"CS","Clinical Sign","CLINICAL SIGNS",NA,NA,"No abnormalities","No abnormalities",NA,NA,NA,NA,NA,NA,NA,NA,1,"2010-12-11T15:11:14",1,NA,NA,NA,NA,NA
"PDS2014","CL","PDS2014-0007",NA,467,NA,NA,NA,"CS","Clinical Sign","CLINICAL SIGNS",NA,NA,"No abnormalities","No abnormalities",NA,NA,NA,NA,NA,NA,NA,NA,1,"2010-12-11T11:18:24",1,NA,NA,NA,NA,NA
"PDS2014","CL","PDS2014-0007",NA,468,NA,NA,NA,"CS","Clinical Sign","CLINICAL SIGNS",NA,NA,"No abnormalities","No abnormalities",NA,NA,NA,NA,NA,NA,NA,NA,25,"2011-01-04T08:29:35",25,NA,NA,NA,NA,NA
"PDS2014","CL","PDS2014-0007",NA,469,NA,NA,NA,"CS","Clinical Sign","CLINICAL SIGNS",NA,NA,"No abnormalities","No abnormalities",NA,NA,NA,NA,NA,NA,NA,NA,22,"2011-01-01T06:41:33",22,NA,NA,NA,NA,NA
"PDS2014","CL","PDS2014-0007",NA,470,NA,NA,NA,"CS","Clinical Sign","CLINICAL SIGNS",NA,NA,"No abnormalities","No abnormalities",NA,NA,NA,NA,NA,NA,NA,NA,15,"2010-12-25T09:02:25",15,NA,NA,NA,NA,NA
"PDS2014","CL","PDS2014-0007",NA,471,NA,NA,NA,"CS","Clinical Sign","CLINICAL SIGNS",NA,NA,"No abnormalities","No abnormalities",NA,NA,NA,NA,NA,NA,NA,NA,25,"2011-01-04T08:10:54",25,NA,NA,NA,NA,NA
"PDS2014","CL","PDS2014-0007",NA,472,NA,NA,NA,"CS","Clinical Sign","CLINICAL SIGNS",NA,NA,"No abnormalities","No abnormalities",NA,NA,NA,NA,NA,NA,NA,NA,25,"2011-01-04T15:26:10",25,NA,NA,NA,NA,NA
"PDS2014","CL","PDS2014-0007",NA,473,NA,NA,NA,"CS","Clinical Sign","CLINICAL SIGNS",NA,NA,"Skin abnormal","Skin abnormal",NA,NA,NA,"Location: eye, Side: left, Coordinate: C9",NA,NA,NA,NA,1,"2010-12-11T13:04:41",1,NA,NA,NA,NA,NA
"PDS2014","CL","PDS2014-0007",NA,474,NA,NA,NA,"CS","Clinical Sign","CLINICAL SIGNS",NA,NA,"No abnormalities","No abnormalities",NA,NA,NA,NA,NA,NA,NA,NA,26,"2011-01-05T08:08:11",26,NA,NA,NA,NA,NA
"PDS2014","CL","PDS2014-0007",NA,475,NA,NA,NA,"CS","Clinical Sign","CLINICAL SIGNS",NA,NA,"No abnormalities","No abnormalities",NA,NA,NA,NA,NA,NA,NA,NA,1,"2010-12-11T10:14:27",1,NA,NA,NA,NA,NA
"PDS2014","CL","PDS2014-0007",NA,476,NA,NA,NA,"CS","Clinical Sign","CLINICAL SIGNS",NA,NA,"Haircoat abnormal","Haircoat abnormal",NA,NA,NA,NA,NA,NA,NA,NA,27,"2011-01-06T08:52:33",27,NA,NA,NA,NA,NA
"PDS2014","CL","PDS2014-0008",NA,477,NA,NA,NA,"CS","Clinical Sign","CLINICAL SIGNS",NA,NA,"No abnormalities","No abnormalities",NA,NA,NA,NA,NA,NA,NA,NA,22,"2011-01-01T08:25:39",22,NA,NA,NA,NA,NA
"PDS2014","CL","PDS2014-0008",NA,478,NA,NA,NA,"CS","Clinical Sign","CLINICAL SIGNS",NA,NA,"No abnormalities","No abnormalities",NA,NA,NA,NA,NA,NA,NA,NA,22,"2011-01-01T10:04:22",22,NA,NA,NA,NA,NA
"PDS2014","CL","PDS2014-0008",NA,479,NA,NA,NA,"CS","Clinical Sign","CLINICAL SIGNS",NA,NA,"No abnormalities","No abnormalities",NA,NA,NA,NA,NA,NA,NA,NA,25,"2011-01-04T15:26:10",25,NA,NA,NA,NA,NA
"PDS2014","CL","PDS2014-0008",NA,480,NA,NA,NA,"CS","Clinical Sign","CLINICAL SIGNS",NA,NA,"No abnormalities","No abnormalities",NA,NA,NA,NA,NA,NA,NA,NA,31,"2011-01-10T08:12:55",31,NA,NA,NA,NA,NA
"PDS2014","CL","PDS2014-0008",NA,481,NA,NA,NA,"CS","Clinical Sign","CLINICAL SIGNS",NA,NA,"No abnormalities","No abnormalities",NA,NA,NA,NA,NA,NA,NA,NA,1,"2010-12-11T09:17:21",1,NA,NA,NA,NA,NA
"PDS2014","CL","PDS2014-0008",NA,482,NA,NA,NA,"CS","Clinical Sign","CLINICAL SIGNS",NA,NA,"No abnormalities","No abnormalities",NA,NA,NA,NA,NA,NA,NA,NA,23,"2011-01-02T08:17:56",23,NA,NA,NA,NA,NA
"PDS2014","CL","PDS2014-0008",NA,483,NA,NA,NA,"CS","Clinical Sign","CLINICAL SIGNS",NA,NA,"No abnormalities","No abnormalities",NA,NA,NA,NA,NA,NA,NA,NA,29,"2011-01-08T07:20:13",29,NA,NA,NA,NA,NA
"PDS2014","CL","PDS2014-0008",NA,484,NA,NA,NA,"CS","Clinical Sign","CLINICAL SIGNS",NA,NA,"No abnormalities","No abnormalities",NA,NA,NA,NA,NA,NA,NA,NA,15,"2010-12-25T07:31:02",15,NA,NA,NA,NA,NA
"PDS2014","CL","PDS2014-0008",NA,485,NA,NA,NA,"CS","Clinical Sign","CLINICAL SIGNS",NA,NA,"No abnormalities","No abnormalities",NA,NA,NA,NA,NA,NA,NA,NA,1,"2010-12-11T15:11:14",1,NA,NA,NA,NA,NA
"PDS2014","CL","PDS2014-0008",NA,486,NA,NA,NA,"CS","Clinical Sign","CLINICAL SIGNS",NA,NA,"No abnormalities","No abnormalities",NA,NA,NA,NA,NA,NA,NA,NA,8,"2010-12-18T11:44:47",8,NA,NA,NA,NA,NA
"PDS2014","CL","PDS2014-0008",NA,487,NA,NA,NA,"CS","Clinical Sign","CLINICAL SIGNS",NA,NA,"Skin abnormal","Skin abnormal",NA,NA,NA,"Location: nose, Coordinate: A7",NA,NA,NA,NA,21,"2010-12-31T08:50:02",21,NA,NA,NA,NA,NA
"PDS2014","CL","PDS2014-0008",NA,488,NA,NA,NA,"CS","Clinical Sign","CLINICAL SIGNS",NA,NA,"No abnormalities","No abnormalities",NA,NA,NA,NA,NA,NA,NA,NA,2,"2010-12-12T09:12:57",2,NA,NA,NA,NA,NA
"PDS2014","CL","PDS2014-0008",NA,489,NA,NA,NA,"CS","Clinical Sign","CLINICAL SIGNS",NA,NA,"No abnormalities","No abnormalities",NA,NA,NA,NA,NA,NA,NA,NA,25,"2011-01-04T11:33:45",25,NA,NA,NA,NA,NA
"PDS2014","CL","PDS2014-0008",NA,490,NA,NA,NA,"CS","Clinical Sign","CLINICAL SIGNS",NA,NA,"No abnormalities","No abnormalities",NA,NA,NA,NA,NA,NA,NA,NA,25,"2011-01-04T08:38:48",25,NA,NA,NA,NA,NA
"PDS2014","CL","PDS2014-0008",NA,491,NA,NA,NA,"CS","Clinical Sign","CLINICAL SIGNS",NA,NA,"No abnormalities","No abnormalities",NA,NA,NA,NA,NA,NA,NA,NA,25,"2011-01-04T09:53:12",25,NA,NA,NA,NA,NA
"PDS2014","CL","PDS2014-0008",NA,492,NA,NA,NA,"CS","Clinical Sign","CLINICAL SIGNS",NA,NA,"Skin abnormal","Skin abnormal",NA,NA,NA,"Location: nose, Coordinate: A7",NA,NA,NA,NA,10,"2010-12-20T10:55:25",10,NA,NA,NA,NA,NA
"PDS2014","CL","PDS2014-0008",NA,493,NA,NA,NA,"CS","Clinical Sign","CLINICAL SIGNS",NA,NA,"No abnormalities","No abnormalities",NA,NA,NA,NA,NA,NA,NA,NA,23,"2011-01-02T06:29:04",23,NA,NA,NA,NA,NA
"PDS2014","CL","PDS2014-0008",NA,494,NA,NA,NA,"CS","Clinical Sign","CLINICAL SIGNS",NA,NA,"No abnormalities","No abnormalities",NA,NA,NA,NA,NA,NA,NA,NA,9,"2010-12-19T08:07:39",9,NA,NA,NA,NA,NA
"PDS2014","CL","PDS2014-0008",NA,495,NA,NA,NA,"CS","Clinical Sign","CLINICAL SIGNS",NA,NA,"Skin abnormal","Skin abnormal",NA,NA,NA,"Location: nose, Coordinate: A7",NA,NA,NA,NA,20,"2010-12-30T08:03:37",20,NA,NA,NA,NA,NA
"PDS2014","CL","PDS2014-0008",NA,496,NA,NA,NA,"CS","Clinical Sign","CLINICAL SIGNS",NA,NA,"No abnormalities","No abnormalities",NA,NA,NA,NA,NA,NA,NA,NA,15,"2010-12-25T12:59:20",15,NA,NA,NA,NA,NA
"PDS2014","CL","PDS2014-0008",NA,497,NA,NA,NA,"CS","Clinical Sign","CLINICAL SIGNS",NA,NA,"Skin abnormal","Skin abnormal",NA,NA,NA,"Location: nose, Coordinate: A7",NA,NA,NA,NA,6,"2010-12-16T08:54:01",6,NA,NA,NA,NA,NA
"PDS2014","CL","PDS2014-0008",NA,498,NA,NA,NA,"CS","Clinical Sign","CLINICAL SIGNS",NA,NA,"Skin abnormal","Skin abnormal",NA,NA,NA,"Location: nose, Coordinate: A7",NA,NA,NA,NA,7,"2010-12-17T08:02:08",7,NA,NA,NA,NA,NA
"PDS2014","CL","PDS2014-0008",NA,499,NA,NA,NA,"CS","Clinical Sign","CLINICAL SIGNS",NA,NA,"Skin abnormal","Skin abnormal",NA,NA,NA,"Location: nose, Coordinate: A7",NA,NA,NA,NA,19,"2010-12-29T09:30:28",19,NA,NA,NA,NA,NA
"PDS2014","CL","PDS2014-0008",NA,500,NA,NA,NA,"CS","Clinical Sign","CLINICAL SIGNS",NA,NA,"Skin abnormal","Skin abnormal",NA,NA,NA,"Location: nose, Coordinate: A7",NA,NA,NA,NA,9,"2010-12-19T11:40:41",9,NA,NA,NA,NA,NA
"PDS2014","CL","PDS2014-0008",NA,501,NA,NA,NA,"CS","Clinical Sign","CLINICAL SIGNS",NA,NA,"Skin abnormal","Skin abnormal",NA,NA,NA,"Location: nose, Coordinate: A7",NA,NA,NA,NA,11,"2010-12-21T07:23:39",11,NA,NA,NA,NA,NA
"PDS2014","CL","PDS2014-0008",NA,502,NA,NA,NA,"CS","Clinical Sign","CLINICAL SIGNS",NA,NA,"Skin abnormal","Skin abnormal",NA,NA,NA,"Location: nose, Coordinate: A7",NA,NA,NA,NA,12,"2010-12-22T08:05:36",12,NA,NA,NA,NA,NA
"PDS2014","CL","PDS2014-0008",NA,503,NA,NA,NA,"CS","Clinical Sign","CLINICAL SIGNS",NA,NA,"Skin abnormal","Skin abnormal",NA,NA,NA,"Location: nose, Coordinate: A7",NA,NA,NA,NA,3,"2010-12-13T11:09:26",3,NA,NA,NA,NA,NA
"PDS2014","CL","PDS2014-0008",NA,504,NA,NA,NA,"CS","Clinical Sign","CLINICAL SIGNS",NA,NA,"No abnormalities","No abnormalities",NA,NA,NA,NA,NA,NA,NA,NA,15,"2010-12-25T07:18:27",15,NA,NA,NA,NA,NA
"PDS2014","CL","PDS2014-0008",NA,505,NA,NA,NA,"CS","Clinical Sign","CLINICAL SIGNS",NA,NA,"Skin abnormal","Skin abnormal",NA,NA,NA,"Location: nose, Coordinate: A7",NA,NA,NA,NA,8,"2010-12-18T13:04:41",8,NA,NA,NA,NA,NA
"PDS2014","CL","PDS2014-0008",NA,506,NA,NA,NA,"CS","Clinical Sign","CLINICAL SIGNS",NA,NA,"Skin abnormal","Skin abnormal",NA,NA,NA,"Location: nose, Coordinate: A7",NA,NA,NA,NA,15,"2010-12-25T11:10:02",15,NA,NA,NA,NA,NA
"PDS2014","CL","PDS2014-0008",NA,507,NA,NA,NA,"CS","Clinical Sign","CLINICAL SIGNS",NA,NA,"Skin abnormal","Skin abnormal",NA,NA,NA,"Location: nose, Coordinate: A7",NA,NA,NA,NA,5,"2010-12-15T08:31:37",5,NA,NA,NA,NA,NA
"PDS2014","CL","PDS2014-0008",NA,508,NA,NA,NA,"CS","Clinical Sign","CLINICAL SIGNS",NA,NA,"Skin abnormal","Skin abnormal",NA,NA,NA,"Location: nose, Coordinate: A7",NA,NA,NA,NA,22,"2011-01-01T07:58:50",22,NA,NA,NA,NA,NA
"PDS2014","CL","PDS2014-0008",NA,509,NA,NA,NA,"CS","Clinical Sign","CLINICAL SIGNS",NA,NA,"No abnormalities","No abnormalities",NA,NA,NA,NA,NA,NA,NA,NA,16,"2010-12-26T06:59:23",16,NA,NA,NA,NA,NA
"PDS2014","CL","PDS2014-0008",NA,510,NA,NA,NA,"CS","Clinical Sign","CLINICAL SIGNS",NA,NA,"No abnormalities","No abnormalities",NA,NA,NA,NA,NA,NA,NA,NA,30,"2011-01-09T10:48:26",30,NA,NA,NA,NA,NA
"PDS2014","CL","PDS2014-0008",NA,511,NA,NA,NA,"CS","Clinical Sign","CLINICAL SIGNS",NA,NA,"No abnormalities","No abnormalities",NA,NA,NA,NA,NA,NA,NA,NA,26,"2011-01-05T10:05:01",26,NA,NA,NA,NA,NA
"PDS2014","CL","PDS2014-0008",NA,512,NA,NA,NA,"CS","Clinical Sign","CLINICAL SIGNS",NA,NA,"No abnormalities","No abnormalities",NA,NA,NA,NA,NA,NA,NA,NA,22,"2011-01-01T06:32:11",22,NA,NA,NA,NA,NA
"PDS2014","CL","PDS2014-0008",NA,513,NA,NA,NA,"CS","Clinical Sign","CLINICAL SIGNS",NA,NA,"Skin abnormal","Skin abnormal",NA,NA,NA,"Location: nose, Coordinate: A7",NA,NA,NA,NA,18,"2010-12-28T07:53:03",18,NA,NA,NA,NA,NA
"PDS2014","CL","PDS2014-0008",NA,514,NA,NA,NA,"CS","Clinical Sign","CLINICAL SIGNS",NA,NA,"No abnormalities","No abnormalities",NA,NA,NA,NA,NA,NA,NA,NA,1,"2010-12-11T13:13:25",1,NA,NA,NA,NA,NA
"PDS2014","CL","PDS2014-0008",NA,515,NA,NA,NA,"CS","Clinical Sign","CLINICAL SIGNS",NA,NA,"No abnormalities","No abnormalities",NA,NA,NA,NA,NA,NA,NA,NA,15,"2010-12-25T08:24:08",15,NA,NA,NA,NA,NA
"PDS2014","CL","PDS2014-0008",NA,516,NA,NA,NA,"CS","Clinical Sign","OPHTHALMOLOGY",NA,NA,"No abnormalities","No abnormalities",NA,NA,NA,NA,NA,NA,NA,NA,28,"2011-01-07T10:44:32",28,NA,NA,NA,NA,NA
"PDS2014","CL","PDS2014-0008",NA,517,NA,NA,NA,"CS","Clinical Sign","CLINICAL SIGNS",NA,NA,"Skin abnormal","Skin abnormal",NA,NA,NA,"Location: nose, Coordinate: A7",NA,NA,NA,NA,13,"2010-12-23T07:23:54",13,NA,NA,NA,NA,NA
"PDS2014","CL","PDS2014-0008",NA,518,NA,NA,NA,"CS","Clinical Sign","CLINICAL SIGNS",NA,NA,"Skin abnormal","Skin abnormal",NA,NA,NA,"Location: nose, Coordinate: A7",NA,NA,NA,NA,4,"2010-12-14T09:50:02",4,NA,NA,NA,NA,NA
"PDS2014","CL","PDS2014-0008",NA,519,NA,NA,NA,"CS","Clinical Sign","CLINICAL SIGNS",NA,NA,"Skin abnormal","Skin abnormal",NA,NA,NA,"Location: nose, Coordinate: A7",NA,NA,NA,NA,16,"2010-12-26T07:08:16",16,NA,NA,NA,NA,NA
"PDS2014","CL","PDS2014-0008",NA,520,NA,NA,NA,"CS","Clinical Sign","CLINICAL SIGNS",NA,NA,"No abnormalities","No abnormalities",NA,NA,NA,NA,NA,NA,NA,NA,8,"2010-12-18T08:08:20",8,NA,NA,NA,NA,NA
"PDS2014","CL","PDS2014-0008",NA,521,NA,NA,NA,"CS","Clinical Sign","CLINICAL SIGNS",NA,NA,"No abnormalities","No abnormalities",NA,NA,NA,NA,NA,NA,NA,NA,28,"2011-01-07T07:27:06",28,NA,NA,NA,NA,NA
"PDS2014","CL","PDS2014-0008",NA,522,NA,NA,NA,"CS","Clinical Sign","CLINICAL SIGNS",NA,NA,"No abnormalities","No abnormalities",NA,NA,NA,NA,NA,NA,NA,NA,8,"2010-12-18T09:53:45",8,NA,NA,NA,NA,NA
"PDS2014","CL","PDS2014-0008",NA,523,NA,NA,NA,"CS","Clinical Sign","CLINICAL SIGNS",NA,NA,"No abnormalities","No abnormalities",NA,NA,NA,NA,NA,NA,NA,NA,25,"2011-01-04T08:25:29",25,NA,NA,NA,NA,NA
"PDS2014","CL","PDS2014-0008",NA,524,NA,NA,NA,"CS","Clinical Sign","OPHTHALMOLOGY",NA,NA,"No abnormalities","No abnormalities",NA,NA,NA,NA,NA,NA,NA,NA,-1,"2010-12-10T10:47:24",-1,NA,NA,NA,NA,NA
"PDS2014","CL","PDS2014-0008",NA,525,NA,NA,NA,"CS","Clinical Sign","CLINICAL SIGNS",NA,NA,"No abnormalities","No abnormalities",NA,NA,NA,NA,NA,NA,NA,NA,24,"2011-01-03T08:36:36",24,NA,NA,NA,NA,NA
"PDS2014","CL","PDS2014-0008",NA,526,NA,NA,NA,"CS","Clinical Sign","CLINICAL SIGNS",NA,NA,"No abnormalities","No abnormalities",NA,NA,NA,NA,NA,NA,NA,NA,26,"2011-01-05T08:08:11",26,NA,NA,NA,NA,NA
"PDS2014","CL","PDS2014-0008",NA,527,NA,NA,NA,"CS","Clinical Sign","CLINICAL SIGNS",NA,NA,"No abnormalities","No abnormalities",NA,NA,NA,NA,NA,NA,NA,NA,8,"2010-12-18T09:05:50",8,NA,NA,NA,NA,NA
"PDS2014","CL","PDS2014-0008",NA,528,NA,NA,NA,"CS","Clinical Sign","CLINICAL SIGNS",NA,NA,"Skin abnormal","Skin abnormal",NA,NA,NA,"Location: nose, Coordinate: A7",NA,NA,NA,NA,14,"2010-12-24T07:55:22",14,NA,NA,NA,NA,NA
"PDS2014","CL","PDS2014-0008",NA,529,NA,NA,NA,"CS","Clinical Sign","CLINICAL SIGNS",NA,NA,"No abnormalities","No abnormalities",NA,NA,NA,NA,NA,NA,NA,NA,1,"2010-12-11T09:31:52",1,NA,NA,NA,NA,NA
"PDS2014","CL","PDS2014-0008",NA,530,NA,NA,NA,"CS","Clinical Sign","CLINICAL SIGNS",NA,NA,"No abnormalities","No abnormalities",NA,NA,NA,NA,NA,NA,NA,NA,8,"2010-12-18T15:08:57",8,NA,NA,NA,NA,NA
"PDS2014","CL","PDS2014-0008",NA,531,NA,NA,NA,"CS","Clinical Sign","CLINICAL SIGNS",NA,NA,"No abnormalities","No abnormalities",NA,NA,NA,NA,NA,NA,NA,NA,1,"2010-12-11T10:14:27",1,NA,NA,NA,NA,NA
"PDS2014","CL","PDS2014-0008",NA,532,NA,NA,NA,"CS","Clinical Sign","CLINICAL SIGNS",NA,NA,"No abnormalities","No abnormalities",NA,NA,NA,NA,NA,NA,NA,NA,25,"2011-01-04T08:10:54",25,NA,NA,NA,NA,NA
"PDS2014","CL","PDS2014-0008",NA,533,NA,NA,NA,"CS","Clinical Sign","CLINICAL SIGNS",NA,NA,"No abnormalities","No abnormalities",NA,NA,NA,NA,NA,NA,NA,NA,22,"2011-01-01T07:25:58",22,NA,NA,NA,NA,NA
"PDS2014","CL","PDS2014-0008",NA,534,NA,NA,NA,"CS","Clinical Sign","CLINICAL SIGNS",NA,NA,"No abnormalities","No abnormalities",NA,NA,NA,NA,NA,NA,NA,NA,15,"2010-12-25T10:38:59",15,NA,NA,NA,NA,NA
"PDS2014","CL","PDS2014-0008",NA,535,NA,NA,NA,"CS","Clinical Sign","CLINICAL SIGNS",NA,NA,"No abnormalities","No abnormalities",NA,NA,NA,NA,NA,NA,NA,NA,25,"2011-01-04T08:29:35",25,NA,NA,NA,NA,NA
"PDS2014","CL","PDS2014-0008",NA,536,NA,NA,NA,"CS","Clinical Sign","CLINICAL SIGNS",NA,NA,"Skin abnormal","Skin abnormal",NA,NA,NA,"Location: nose, Coordinate: A7",NA,NA,NA,NA,2,"2010-12-12T10:31:02",2,NA,NA,NA,NA,NA
"PDS2014","CL","PDS2014-0008",NA,537,NA,NA,NA,"CS","Clinical Sign","CLINICAL SIGNS",NA,NA,"No abnormalities","No abnormalities",NA,NA,NA,NA,NA,NA,NA,NA,27,"2011-01-06T08:56:42",27,NA,NA,NA,NA,NA
"PDS2014","CL","PDS2014-0008",NA,538,NA,NA,NA,"CS","Clinical Sign","CLINICAL SIGNS",NA,NA,"No abnormalities","No abnormalities",NA,NA,NA,NA,NA,NA,NA,NA,8,"2010-12-18T07:52:06",8,NA,NA,NA,NA,NA
"PDS2014","CL","PDS2014-0008",NA,539,NA,NA,NA,"CS","Clinical Sign","CLINICAL SIGNS",NA,NA,"No abnormalities","No abnormalities",NA,NA,NA,NA,NA,NA,NA,NA,1,"2010-12-11T11:18:24",1,NA,NA,NA,NA,NA
"PDS2014","CL","PDS2014-0008",NA,540,NA,NA,NA,"CS","Clinical Sign","CLINICAL SIGNS",NA,NA,"No abnormalities","No abnormalities",NA,NA,NA,NA,NA,NA,NA,NA,22,"2011-01-01T06:42:04",22,NA,NA,NA,NA,NA
"PDS2014","CL","PDS2014-0008",NA,541,NA,NA,NA,"CS","Clinical Sign","CLINICAL SIGNS",NA,NA,"No abnormalities","No abnormalities",NA,NA,NA,NA,NA,NA,NA,NA,15,"2010-12-25T09:02:25",15,NA,NA,NA,NA,NA
"PDS2014","CL","PDS2014-0008",NA,542,NA,NA,NA,"CS","Clinical Sign","CLINICAL SIGNS",NA,NA,"Skin abnormal","Skin abnormal",NA,NA,NA,"Location: nose, Coordinate: A7",NA,NA,NA,NA,17,"2010-12-27T09:56:01",17,NA,NA,NA,NA,NA
"PDS2014","CL","PDS2014-0008",NA,543,NA,NA,NA,"CS","Clinical Sign","CLINICAL SIGNS",NA,NA,"No abnormalities","No abnormalities",NA,NA,NA,NA,NA,NA,NA,NA,22,"2011-01-01T11:37:26",22,NA,NA,NA,NA,NA
"PDS2014","CL","PDS2014-0008",NA,544,NA,NA,NA,"CS","Clinical Sign","CLINICAL SIGNS",NA,NA,"Skin abnormal","Skin abnormal",NA,NA,NA,"Location: nose, Coordinate: A7",NA,NA,NA,NA,1,"2010-12-11T13:07:25",1,NA,NA,NA,NA,NA
"PDS2014","CL","PDS2014-0009",NA,545,NA,NA,NA,"CS","Clinical Sign","CLINICAL SIGNS",NA,NA,"No abnormalities","No abnormalities",NA,NA,NA,NA,NA,NA,NA,NA,1,"2010-12-11T09:52:56",1,NA,NA,NA,NA,NA
"PDS2014","CL","PDS2014-0009",NA,546,NA,NA,NA,"CS","Clinical Sign","CLINICAL SIGNS",NA,NA,"No abnormalities","No abnormalities",NA,NA,NA,NA,NA,NA,NA,NA,31,"2011-01-10T08:13:41",31,NA,NA,NA,NA,NA
"PDS2014","CL","PDS2014-0009",NA,547,NA,NA,NA,"CS","Clinical Sign","CLINICAL SIGNS",NA,NA,"Skin abnormal","Skin abnormal",NA,NA,NA,"Location: mouth, Coordinate: A21",NA,NA,NA,NA,19,"2010-12-29T09:27:35",19,NA,NA,NA,NA,NA
"PDS2014","CL","PDS2014-0009",NA,548,NA,NA,NA,"CS","Clinical Sign","CLINICAL SIGNS",NA,NA,"No abnormalities","No abnormalities",NA,NA,NA,NA,NA,NA,NA,NA,15,"2010-12-25T09:02:25",15,NA,NA,NA,NA,NA
"PDS2014","CL","PDS2014-0009",NA,549,NA,NA,NA,"CS","Clinical Sign","CLINICAL SIGNS",NA,NA,"No abnormalities","No abnormalities",NA,NA,NA,NA,NA,NA,NA,NA,23,"2011-01-02T08:17:56",23,NA,NA,NA,NA,NA
"PDS2014","CL","PDS2014-0009",NA,550,NA,NA,NA,"CS","Clinical Sign","CLINICAL SIGNS",NA,NA,"No abnormalities","No abnormalities",NA,NA,NA,NA,NA,NA,NA,NA,15,"2010-12-25T07:31:49",15,NA,NA,NA,NA,NA
"PDS2014","CL","PDS2014-0009",NA,551,NA,NA,NA,"CS","Clinical Sign","CLINICAL SIGNS",NA,NA,"No abnormalities","No abnormalities",NA,NA,NA,NA,NA,NA,NA,NA,9,"2010-12-19T08:07:39",9,NA,NA,NA,NA,NA
"PDS2014","CL","PDS2014-0009",NA,552,NA,NA,NA,"CS","Clinical Sign","CLINICAL SIGNS",NA,NA,"No abnormalities","No abnormalities",NA,NA,NA,NA,NA,NA,NA,NA,25,"2011-01-04T09:53:12",25,NA,NA,NA,NA,NA
"PDS2014","CL","PDS2014-0009",NA,553,NA,NA,NA,"CS","Clinical Sign","CLINICAL SIGNS",NA,NA,"No abnormalities","No abnormalities",NA,NA,NA,NA,NA,NA,NA,NA,22,"2011-01-01T08:25:39",22,NA,NA,NA,NA,NA
"PDS2014","CL","PDS2014-0009",NA,554,NA,NA,NA,"CS","Clinical Sign","CLINICAL SIGNS",NA,NA,"No abnormalities","No abnormalities",NA,NA,NA,NA,NA,NA,NA,NA,1,"2010-12-11T15:11:14",1,NA,NA,NA,NA,NA
"PDS2014","CL","PDS2014-0009",NA,555,NA,NA,NA,"CS","Clinical Sign","CLINICAL SIGNS",NA,NA,"No abnormalities","No abnormalities",NA,NA,NA,NA,NA,NA,NA,NA,25,"2011-01-04T08:10:54",25,NA,NA,NA,NA,NA
"PDS2014","CL","PDS2014-0009",NA,556,NA,NA,NA,"CS","Clinical Sign","CLINICAL SIGNS",NA,NA,"Skin abnormal","Skin abnormal",NA,NA,NA,"Location: mouth, Coordinate: A21",NA,NA,NA,NA,21,"2010-12-31T08:48:55",21,NA,NA,NA,NA,NA
"PDS2014","CL","PDS2014-0009",NA,557,NA,NA,NA,"CS","Clinical Sign","CLINICAL SIGNS",NA,NA,"No abnormalities","No abnormalities",NA,NA,NA,NA,NA,NA,NA,NA,8,"2010-12-18T07:52:06",8,NA,NA,NA,NA,NA
"PDS2014","CL","PDS2014-0009",NA,558,NA,NA,NA,"CS","Clinical Sign","CLINICAL SIGNS",NA,NA,"No abnormalities","No abnormalities",NA,NA,NA,NA,NA,NA,NA,NA,25,"2011-01-04T08:38:48",25,NA,NA,NA,NA,NA
"PDS2014","CL","PDS2014-0009",NA,559,NA,NA,NA,"CS","Clinical Sign","CLINICAL SIGNS",NA,NA,"No abnormalities","No abnormalities",NA,NA,NA,NA,NA,NA,NA,NA,8,"2010-12-18T11:44:47",8,NA,NA,NA,NA,NA
"PDS2014","CL","PDS2014-0009",NA,560,NA,NA,NA,"CS","Clinical Sign","CLINICAL SIGNS",NA,NA,"No abnormalities","No abnormalities",NA,NA,NA,NA,NA,NA,NA,NA,15,"2010-12-25T11:16:05",15,NA,NA,NA,NA,NA
"PDS2014","CL","PDS2014-0009",NA,561,NA,NA,NA,"CS","Clinical Sign","CLINICAL SIGNS",NA,NA,"No abnormalities","No abnormalities",NA,NA,NA,NA,NA,NA,NA,NA,1,"2010-12-11T13:09:50",1,NA,NA,NA,NA,NA
"PDS2014","CL","PDS2014-0009",NA,562,NA,NA,NA,"CS","Clinical Sign","CLINICAL SIGNS",NA,NA,"Skin abnormal","Skin abnormal",NA,NA,NA,"Location: mouth, Coordinate: A21",NA,NA,NA,NA,10,"2010-12-20T10:56:21",10,NA,NA,NA,NA,NA
"PDS2014","CL","PDS2014-0009",NA,563,NA,NA,NA,"CS","Clinical Sign","CLINICAL SIGNS",NA,NA,"No abnormalities","No abnormalities",NA,NA,NA,NA,NA,NA,NA,NA,25,"2011-01-04T15:26:10",25,NA,NA,NA,NA,NA
"PDS2014","CL","PDS2014-0009",NA,564,NA,NA,NA,"CS","Clinical Sign","CLINICAL SIGNS",NA,NA,"Skin abnormal","Skin abnormal",NA,NA,NA,"Location: mouth, Coordinate: A21",NA,NA,NA,NA,6,"2010-12-16T08:54:31",6,NA,NA,NA,NA,NA
"PDS2014","CL","PDS2014-0009",NA,565,NA,NA,NA,"CS","Clinical Sign","CLINICAL SIGNS",NA,NA,"No abnormalities","No abnormalities",NA,NA,NA,NA,NA,NA,NA,NA,15,"2010-12-25T07:18:27",15,NA,NA,NA,NA,NA
"PDS2014","CL","PDS2014-0009",NA,566,NA,NA,NA,"CS","Clinical Sign","CLINICAL SIGNS",NA,NA,"No abnormalities","No abnormalities",NA,NA,NA,NA,NA,NA,NA,NA,26,"2011-01-05T10:05:01",26,NA,NA,NA,NA,NA
"PDS2014","CL","PDS2014-0009",NA,567,NA,NA,NA,"CS","Clinical Sign","CLINICAL SIGNS",NA,NA,"Skin abnormal","Skin abnormal",NA,NA,NA,"Location: mouth, Coordinate: A21",NA,NA,NA,NA,20,"2010-12-30T08:04:10",20,NA,NA,NA,NA,NA
"PDS2014","CL","PDS2014-0009",NA,568,NA,NA,NA,"CS","Clinical Sign","CLINICAL SIGNS",NA,NA,"No abnormalities","No abnormalities",NA,NA,NA,NA,NA,NA,NA,NA,2,"2010-12-12T09:12:57",2,NA,NA,NA,NA,NA
"PDS2014","CL","PDS2014-0009",NA,569,NA,NA,NA,"CS","Clinical Sign","CLINICAL SIGNS",NA,NA,"Skin abnormal","Skin abnormal",NA,NA,NA,"Location: mouth, Coordinate: A21",NA,NA,NA,NA,9,"2010-12-19T11:39:54",9,NA,NA,NA,NA,NA
"PDS2014","CL","PDS2014-0009",NA,570,NA,NA,NA,"CS","Clinical Sign","CLINICAL SIGNS",NA,NA,"No abnormalities","No abnormalities",NA,NA,NA,NA,NA,NA,NA,NA,30,"2011-01-09T10:54:51",30,NA,NA,NA,NA,NA
"PDS2014","CL","PDS2014-0009",NA,571,NA,NA,NA,"CS","Clinical Sign","CLINICAL SIGNS",NA,NA,"Skin abnormal","Skin abnormal",NA,NA,NA,"Location: mouth, Coordinate: A21",NA,NA,NA,NA,8,"2010-12-18T12:58:44",8,NA,NA,NA,NA,NA
"PDS2014","CL","PDS2014-0009",NA,572,NA,NA,NA,"CS","Clinical Sign","CLINICAL SIGNS",NA,NA,"No abnormalities","No abnormalities",NA,NA,NA,NA,NA,NA,NA,NA,1,"2010-12-11T09:17:21",1,NA,NA,NA,NA,NA
"PDS2014","CL","PDS2014-0009",NA,573,NA,NA,NA,"CS","Clinical Sign","CLINICAL SIGNS",NA,NA,"No abnormalities","No abnormalities",NA,NA,NA,NA,NA,NA,NA,NA,25,"2011-01-04T11:33:45",25,NA,NA,NA,NA,NA
"PDS2014","CL","PDS2014-0009",NA,574,NA,NA,NA,"CS","Clinical Sign","CLINICAL SIGNS",NA,NA,"Skin abnormal","Skin abnormal",NA,NA,NA,"Location: mouth, Coordinate: A21",NA,NA,NA,NA,12,"2010-12-22T08:04:20",12,NA,NA,NA,NA,NA
"PDS2014","CL","PDS2014-0009",NA,575,NA,NA,NA,"CS","Clinical Sign","CLINICAL SIGNS",NA,NA,"No abnormalities","No abnormalities",NA,NA,NA,NA,NA,NA,NA,NA,16,"2010-12-26T06:59:23",16,NA,NA,NA,NA,NA
"PDS2014","CL","PDS2014-0009",NA,576,NA,NA,NA,"CS","Clinical Sign","CLINICAL SIGNS",NA,NA,"No abnormalities","No abnormalities",NA,NA,NA,NA,NA,NA,NA,NA,23,"2011-01-02T06:29:04",23,NA,NA,NA,NA,NA
"PDS2014","CL","PDS2014-0009",NA,577,NA,NA,NA,"CS","Clinical Sign","CLINICAL SIGNS",NA,NA,"Skin abnormal","Skin abnormal",NA,NA,NA,"Location: mouth, Coordinate: A21",NA,NA,NA,NA,11,"2010-12-21T07:25:32",11,NA,NA,NA,NA,NA
"PDS2014","CL","PDS2014-0009",NA,578,NA,NA,NA,"CS","Clinical Sign","CLINICAL SIGNS",NA,NA,"No abnormalities","No abnormalities",NA,NA,NA,NA,NA,NA,NA,NA,15,"2010-12-25T12:59:20",15,NA,NA,NA,NA,NA
"PDS2014","CL","PDS2014-0009",NA,579,NA,NA,NA,"CS","Clinical Sign","CLINICAL SIGNS",NA,NA,"No abnormalities","No abnormalities",NA,NA,NA,NA,NA,NA,NA,NA,22,"2011-01-01T07:25:58",22,NA,NA,NA,NA,NA
"PDS2014","CL","PDS2014-0009",NA,580,NA,NA,NA,"CS","Clinical Sign","CLINICAL SIGNS",NA,NA,"No abnormalities","No abnormalities",NA,NA,NA,NA,NA,NA,NA,NA,8,"2010-12-18T15:08:57",8,NA,NA,NA,NA,NA
"PDS2014","CL","PDS2014-0009",NA,581,NA,NA,NA,"CS","Clinical Sign","CLINICAL SIGNS",NA,NA,"Skin abnormal","Skin abnormal",NA,NA,NA,"Location: mouth, Coordinate: A21",NA,NA,NA,NA,5,"2010-12-15T08:33:06",5,NA,NA,NA,NA,NA
"PDS2014","CL","PDS2014-0009",NA,582,NA,NA,NA,"CS","Clinical Sign","CLINICAL SIGNS",NA,NA,"No abnormalities","No abnormalities",NA,NA,NA,NA,NA,NA,NA,NA,13,"2010-12-23T07:23:15",13,NA,NA,NA,NA,NA
"PDS2014","CL","PDS2014-0009",NA,583,NA,NA,NA,"CS","Clinical Sign","CLINICAL SIGNS",NA,NA,"No abnormalities","No abnormalities",NA,NA,NA,NA,NA,NA,NA,NA,22,"2011-01-01T06:32:11",22,NA,NA,NA,NA,NA
"PDS2014","CL","PDS2014-0009",NA,584,NA,NA,NA,"CS","Clinical Sign","CLINICAL SIGNS",NA,NA,"Skin abnormal","Skin abnormal",NA,NA,NA,"Location: mouth, Coordinate: A21",NA,NA,NA,NA,22,"2011-01-01T07:58:27",22,NA,NA,NA,NA,NA
"PDS2014","CL","PDS2014-0009",NA,585,NA,NA,NA,"CS","Clinical Sign","CLINICAL SIGNS",NA,NA,"No abnormalities","No abnormalities",NA,NA,NA,NA,NA,NA,NA,NA,15,"2010-12-25T10:38:59",15,NA,NA,NA,NA,NA
"PDS2014","CL","PDS2014-0009",NA,586,NA,NA,NA,"CS","Clinical Sign","CLINICAL SIGNS",NA,NA,"No abnormalities","No abnormalities",NA,NA,NA,NA,NA,NA,NA,NA,2,"2010-12-12T10:37:40",2,NA,NA,NA,NA,NA
"PDS2014","CL","PDS2014-0009",NA,587,NA,NA,NA,"CS","Clinical Sign","CLINICAL SIGNS",NA,NA,"No abnormalities","No abnormalities",NA,NA,NA,NA,NA,NA,NA,NA,1,"2010-12-11T11:18:24",1,NA,NA,NA,NA,NA
"PDS2014","CL","PDS2014-0009",NA,588,NA,NA,NA,"CS","Clinical Sign","CLINICAL SIGNS",NA,NA,"No abnormalities","No abnormalities",NA,NA,NA,NA,NA,NA,NA,NA,26,"2011-01-05T08:08:11",26,NA,NA,NA,NA,NA
"PDS2014","CL","PDS2014-0009",NA,589,NA,NA,NA,"CS","Clinical Sign","CLINICAL SIGNS",NA,NA,"No abnormalities","No abnormalities",NA,NA,NA,NA,NA,NA,NA,NA,14,"2010-12-24T07:59:18",14,NA,NA,NA,NA,NA
"PDS2014","CL","PDS2014-0009",NA,590,NA,NA,NA,"CS","Clinical Sign","CLINICAL SIGNS",NA,NA,"Skin abnormal","Skin abnormal",NA,NA,NA,"Location: mouth, Coordinate: A21",NA,NA,NA,NA,7,"2010-12-17T07:59:17",7,NA,NA,NA,NA,NA
"PDS2014","CL","PDS2014-0009",NA,591,NA,NA,NA,"CS","Clinical Sign","CLINICAL SIGNS",NA,NA,"No abnormalities","No abnormalities",NA,NA,NA,NA,NA,NA,NA,NA,8,"2010-12-18T09:53:45",8,NA,NA,NA,NA,NA
"PDS2014","CL","PDS2014-0009",NA,592,NA,NA,NA,"CS","Clinical Sign","CLINICAL SIGNS",NA,NA,"No abnormalities","No abnormalities",NA,NA,NA,NA,NA,NA,NA,NA,1,"2010-12-11T13:13:25",1,NA,NA,NA,NA,NA
"PDS2014","CL","PDS2014-0009",NA,593,NA,NA,NA,"CS","Clinical Sign","OPHTHALMOLOGY",NA,NA,"Corneal opacification","Corneal opacification",NA,NA,NA,"Location: bilateral, Locus: band-shaped",NA,NA,NA,NA,28,"2011-01-07T10:46:52",28,NA,NA,NA,NA,NA
"PDS2014","CL","PDS2014-0009",NA,594,NA,NA,NA,"CS","Clinical Sign","CLINICAL SIGNS",NA,NA,"Skin abnormal","Skin abnormal",NA,NA,NA,"Location: mouth, Coordinate: A21",NA,NA,NA,NA,3,"2010-12-13T11:04:02",3,NA,NA,NA,NA,NA
"PDS2014","CL","PDS2014-0009",NA,595,NA,NA,NA,"CS","Clinical Sign","CLINICAL SIGNS",NA,NA,"No abnormalities","No abnormalities",NA,NA,NA,NA,NA,NA,NA,NA,28,"2011-01-07T07:27:06",28,NA,NA,NA,NA,NA
"PDS2014","CL","PDS2014-0009",NA,596,NA,NA,NA,"CS","Clinical Sign","CLINICAL SIGNS",NA,NA,"No abnormalities","No abnormalities",NA,NA,NA,NA,NA,NA,NA,NA,16,"2010-12-26T07:08:41",16,NA,NA,NA,NA,NA
"PDS2014","CL","PDS2014-0009",NA,597,NA,NA,NA,"CS","Clinical Sign","CLINICAL SIGNS",NA,NA,"No abnormalities","No abnormalities",NA,NA,NA,NA,NA,NA,NA,NA,25,"2011-01-04T08:25:04",25,NA,NA,NA,NA,NA
"PDS2014","CL","PDS2014-0009",NA,598,NA,NA,NA,"CS","Clinical Sign","CLINICAL SIGNS",NA,NA,"No abnormalities","No abnormalities",NA,NA,NA,NA,NA,NA,NA,NA,8,"2010-12-18T08:09:33",8,NA,NA,NA,NA,NA
"PDS2014","CL","PDS2014-0009",NA,599,NA,NA,NA,"CS","Clinical Sign","CLINICAL SIGNS",NA,NA,"No abnormalities","No abnormalities",NA,NA,NA,NA,NA,NA,NA,NA,1,"2010-12-11T10:14:27",1,NA,NA,NA,NA,NA
"PDS2014","CL","PDS2014-0009",NA,600,NA,NA,NA,"CS","Clinical Sign","CLINICAL SIGNS",NA,NA,"No abnormalities","No abnormalities",NA,NA,NA,NA,NA,NA,NA,NA,24,"2011-01-03T08:36:36",24,NA,NA,NA,NA,NA
"PDS2014","CL","PDS2014-0009",NA,601,NA,NA,NA,"CS","Clinical Sign","OPHTHALMOLOGY",NA,NA,"Corneal opacification","Corneal opacification",NA,NA,NA,"Location: bilateral, Locus: band-shaped",NA,NA,NA,NA,-1,"2010-12-10T10:51:30",-1,NA,NA,NA,NA,NA
"PDS2014","CL","PDS2014-0009",NA,602,NA,NA,NA,"CS","Clinical Sign","CLINICAL SIGNS",NA,NA,"No abnormalities","No abnormalities",NA,NA,NA,NA,NA,NA,NA,NA,17,"2010-12-27T09:59:01",17,NA,NA,NA,NA,NA
"PDS2014","CL","PDS2014-0009",NA,603,NA,NA,NA,"CS","Clinical Sign","CLINICAL SIGNS",NA,NA,"No abnormalities","No abnormalities",NA,NA,NA,NA,NA,NA,NA,NA,29,"2011-01-08T07:15:04",29,NA,NA,NA,NA,NA
"PDS2014","CL","PDS2014-0009",NA,604,NA,NA,NA,"CS","Clinical Sign","CLINICAL SIGNS",NA,NA,"No abnormalities","No abnormalities",NA,NA,NA,NA,NA,NA,NA,NA,22,"2011-01-01T11:37:26",22,NA,NA,NA,NA,NA
"PDS2014","CL","PDS2014-0009",NA,605,NA,NA,NA,"CS","Clinical Sign","CLINICAL SIGNS",NA,NA,"No abnormalities","No abnormalities",NA,NA,NA,NA,NA,NA,NA,NA,15,"2010-12-25T08:24:08",15,NA,NA,NA,NA,NA
"PDS2014","CL","PDS2014-0009",NA,606,NA,NA,NA,"CS","Clinical Sign","CLINICAL SIGNS",NA,NA,"No abnormalities","No abnormalities",NA,NA,NA,NA,NA,NA,NA,NA,8,"2010-12-18T09:05:50",8,NA,NA,NA,NA,NA
"PDS2014","CL","PDS2014-0009",NA,607,NA,NA,NA,"CS","Clinical Sign","CLINICAL SIGNS",NA,NA,"Skin abnormal","Skin abnormal",NA,NA,NA,"Location: mouth, Coordinate: A21",NA,NA,NA,NA,18,"2010-12-28T07:51:21",18,NA,NA,NA,NA,NA
"PDS2014","CL","PDS2014-0009",NA,608,NA,NA,NA,"CS","Clinical Sign","CLINICAL SIGNS",NA,NA,"No abnormalities","No abnormalities",NA,NA,NA,NA,NA,NA,NA,NA,27,"2011-01-06T08:56:42",27,NA,NA,NA,NA,NA
"PDS2014","CL","PDS2014-0009",NA,609,NA,NA,NA,"CS","Clinical Sign","CLINICAL SIGNS",NA,NA,"No abnormalities","No abnormalities",NA,NA,NA,NA,NA,NA,NA,NA,22,"2011-01-01T10:04:22",22,NA,NA,NA,NA,NA
"PDS2014","CL","PDS2014-0009",NA,610,NA,NA,NA,"CS","Clinical Sign","CLINICAL SIGNS",NA,NA,"No abnormalities","No abnormalities",NA,NA,NA,NA,NA,NA,NA,NA,22,"2011-01-01T06:41:06",22,NA,NA,NA,NA,NA
"PDS2014","CL","PDS2014-0009",NA,611,NA,NA,NA,"CS","Clinical Sign","CLINICAL SIGNS",NA,NA,"Skin abnormal","Skin abnormal",NA,NA,NA,"Location: mouth, Coordinate: A21",NA,NA,NA,NA,4,"2010-12-14T09:51:58",4,NA,NA,NA,NA,NA
"PDS2014","CL","PDS2014-0009",NA,612,NA,NA,NA,"CS","Clinical Sign","CLINICAL SIGNS",NA,NA,"No abnormalities","No abnormalities",NA,NA,NA,NA,NA,NA,NA,NA,25,"2011-01-04T08:29:35",25,NA,NA,NA,NA,NA
"PDS2014","CL","PDS2014-0010",NA,613,NA,NA,NA,"CS","Clinical Sign","CLINICAL SIGNS",NA,NA,"Skin abnormal","Skin abnormal",NA,NA,NA,"Location: head, Region: dorsal, Subregion: caudal, Coordinate: C8",NA,NA,NA,NA,28,"2011-01-07T07:20:46",28,NA,NA,NA,NA,NA
"PDS2014","CL","PDS2014-0010",NA,614,NA,NA,NA,"CS","Clinical Sign","CLINICAL SIGNS",NA,NA,"No abnormalities","No abnormalities",NA,NA,NA,NA,NA,NA,NA,NA,8,"2010-12-18T11:44:47",8,NA,NA,NA,NA,NA
"PDS2014","CL","PDS2014-0010",NA,615,NA,NA,NA,"CS","Clinical Sign","CLINICAL SIGNS",NA,NA,"No abnormalities","No abnormalities",NA,NA,NA,NA,NA,NA,NA,NA,3,"2010-12-13T11:14:24",3,NA,NA,NA,NA,NA
"PDS2014","CL","PDS2014-0010",NA,616,NA,NA,NA,"CS","Clinical Sign","CLINICAL SIGNS",NA,NA,"No abnormalities","No abnormalities",NA,NA,NA,NA,NA,NA,NA,NA,15,"2010-12-25T09:02:25",15,NA,NA,NA,NA,NA
"PDS2014","CL","PDS2014-0010",NA,617,NA,NA,NA,"CS","Clinical Sign","CLINICAL SIGNS",NA,NA,"No abnormalities","No abnormalities",NA,NA,NA,NA,NA,NA,NA,NA,25,"2011-01-04T11:33:45",25,NA,NA,NA,NA,NA
"PDS2014","CL","PDS2014-0010",NA,618,NA,NA,NA,"CS","Clinical Sign","CLINICAL SIGNS",NA,NA,"No abnormalities","No abnormalities",NA,NA,NA,NA,NA,NA,NA,NA,23,"2011-01-02T08:17:56",23,NA,NA,NA,NA,NA
"PDS2014","CL","PDS2014-0010",NA,619,NA,NA,NA,"CS","Clinical Sign","CLINICAL SIGNS",NA,NA,"No abnormalities","No abnormalities",NA,NA,NA,NA,NA,NA,NA,NA,9,"2010-12-19T08:07:39",9,NA,NA,NA,NA,NA
"PDS2014","CL","PDS2014-0010",NA,620,NA,NA,NA,"CS","Clinical Sign","CLINICAL SIGNS",NA,NA,"No abnormalities","No abnormalities",NA,NA,NA,NA,NA,NA,NA,NA,15,"2010-12-25T07:30:04",15,NA,NA,NA,NA,NA
"PDS2014","CL","PDS2014-0010",NA,621,NA,NA,NA,"CS","Clinical Sign","CLINICAL SIGNS",NA,NA,"No abnormalities","No abnormalities",NA,NA,NA,NA,NA,NA,NA,NA,22,"2011-01-01T08:25:39",22,NA,NA,NA,NA,NA
"PDS2014","CL","PDS2014-0010",NA,622,NA,NA,NA,"CS","Clinical Sign","CLINICAL SIGNS",NA,NA,"No abnormalities","No abnormalities",NA,NA,NA,NA,NA,NA,NA,NA,25,"2011-01-04T09:53:12",25,NA,NA,NA,NA,NA
"PDS2014","CL","PDS2014-0010",NA,623,NA,NA,NA,"CS","Clinical Sign","CLINICAL SIGNS",NA,NA,"Skin abnormal","Skin abnormal",NA,NA,NA,"Location: head, Region: dorsal, Subregion: caudal, Coordinate: C8",NA,NA,NA,NA,31,"2011-01-10T08:14:40",31,NA,NA,NA,NA,NA
"PDS2014","CL","PDS2014-0010",NA,624,NA,NA,NA,"CS","Clinical Sign","CLINICAL SIGNS",NA,NA,"Skin abnormal","Skin abnormal",NA,NA,NA,"Location: head, Region: dorsal, Subregion: caudal, Coordinate: C8",NA,NA,NA,NA,29,"2011-01-08T07:15:40",29,NA,NA,NA,NA,NA
"PDS2014","CL","PDS2014-0010",NA,625,NA,NA,NA,"CS","Clinical Sign","CLINICAL SIGNS",NA,NA,"No abnormalities","No abnormalities",NA,NA,NA,NA,NA,NA,NA,NA,25,"2011-01-04T15:26:10",25,NA,NA,NA,NA,NA
"PDS2014","CL","PDS2014-0010",NA,626,NA,NA,NA,"CS","Clinical Sign","CLINICAL SIGNS",NA,NA,"No abnormalities","No abnormalities",NA,NA,NA,NA,NA,NA,NA,NA,25,"2011-01-04T08:10:54",25,NA,NA,NA,NA,NA
"PDS2014","CL","PDS2014-0010",NA,627,NA,NA,NA,"CS","Clinical Sign","CLINICAL SIGNS",NA,NA,"No abnormalities","No abnormalities",NA,NA,NA,NA,NA,NA,NA,NA,1,"2010-12-11T15:11:14",1,NA,NA,NA,NA,NA
"PDS2014","CL","PDS2014-0010",NA,628,NA,NA,NA,"CS","Clinical Sign","CLINICAL SIGNS",NA,NA,"Skin abnormal","Skin abnormal",NA,NA,NA,"Location: head, Region: dorsal, Subregion: caudal, Coordinate: C8",NA,NA,NA,NA,21,"2010-12-31T08:48:20",21,NA,NA,NA,NA,NA
"PDS2014","CL","PDS2014-0010",NA,629,NA,NA,NA,"CS","Clinical Sign","CLINICAL SIGNS",NA,NA,"No abnormalities","No abnormalities",NA,NA,NA,NA,NA,NA,NA,NA,25,"2011-01-04T08:38:48",25,NA,NA,NA,NA,NA
"PDS2014","CL","PDS2014-0010",NA,630,NA,NA,NA,"CS","Clinical Sign","CLINICAL SIGNS",NA,NA,"No abnormalities","No abnormalities",NA,NA,NA,NA,NA,NA,NA,NA,1,"2010-12-11T13:09:50",1,NA,NA,NA,NA,NA
"PDS2014","CL","PDS2014-0010",NA,631,NA,NA,NA,"CS","Clinical Sign","CLINICAL SIGNS",NA,NA,"Skin abnormal","Skin abnormal",NA,NA,NA,"Location: head, Region: dorsal, Subregion: caudal, Coordinate: C8",NA,NA,NA,NA,10,"2010-12-20T10:54:52",10,NA,NA,NA,NA,NA
"PDS2014","CL","PDS2014-0010",NA,632,NA,NA,NA,"CS","Clinical Sign","CLINICAL SIGNS",NA,NA,"No abnormalities","No abnormalities",NA,NA,NA,NA,NA,NA,NA,NA,15,"2010-12-25T07:18:27",15,NA,NA,NA,NA,NA
"PDS2014","CL","PDS2014-0010",NA,633,NA,NA,NA,"CS","Clinical Sign","CLINICAL SIGNS",NA,NA,"No abnormalities","No abnormalities",NA,NA,NA,NA,NA,NA,NA,NA,26,"2011-01-05T10:05:01",26,NA,NA,NA,NA,NA
"PDS2014","CL","PDS2014-0010",NA,634,NA,NA,NA,"CS","Clinical Sign","CLINICAL SIGNS",NA,NA,"No abnormalities","No abnormalities",NA,NA,NA,NA,NA,NA,NA,NA,7,"2010-12-17T08:06:21",7,NA,NA,NA,NA,NA
"PDS2014","CL","PDS2014-0010",NA,635,NA,NA,NA,"CS","Clinical Sign","CLINICAL SIGNS",NA,NA,"Skin abnormal","Skin abnormal",NA,NA,NA,"Location: head, Region: dorsal, Subregion: caudal, Coordinate: C8",NA,NA,NA,NA,9,"2010-12-19T11:38:47",9,NA,NA,NA,NA,NA
"PDS2014","CL","PDS2014-0010",NA,636,NA,NA,NA,"CS","Clinical Sign","CLINICAL SIGNS",NA,NA,"No abnormalities","No abnormalities",NA,NA,NA,NA,NA,NA,NA,NA,2,"2010-12-12T09:12:57",2,NA,NA,NA,NA,NA
"PDS2014","CL","PDS2014-0010",NA,637,NA,NA,NA,"CS","Clinical Sign","CLINICAL SIGNS",NA,NA,"Skin abnormal","Skin abnormal",NA,NA,NA,"Location: head, Region: dorsal, Subregion: caudal, Coordinate: C8",NA,NA,NA,NA,19,"2010-12-29T09:28:45",19,NA,NA,NA,NA,NA
"PDS2014","CL","PDS2014-0010",NA,638,NA,NA,NA,"CS","Clinical Sign","CLINICAL SIGNS",NA,NA,"No abnormalities","No abnormalities",NA,NA,NA,NA,NA,NA,NA,NA,6,"2010-12-16T08:57:44",6,NA,NA,NA,NA,NA
"PDS2014","CL","PDS2014-0010",NA,639,NA,NA,NA,"CS","Clinical Sign","CLINICAL SIGNS",NA,NA,"Skin abnormal","Skin abnormal",NA,NA,NA,"Location: head, Region: dorsal, Subregion: caudal, Coordinate: C8",NA,NA,NA,NA,11,"2010-12-21T07:24:14",11,NA,NA,NA,NA,NA
"PDS2014","CL","PDS2014-0010",NA,640,NA,NA,NA,"CS","Clinical Sign","CLINICAL SIGNS",NA,NA,"Skin abnormal","Skin abnormal",NA,NA,NA,"Location: head, Region: dorsal, Subregion: caudal, Coordinate: C8",NA,NA,NA,NA,8,"2010-12-18T13:03:34",8,NA,NA,NA,NA,NA
"PDS2014","CL","PDS2014-0010",NA,641,NA,NA,NA,"CS","Clinical Sign","CLINICAL SIGNS",NA,NA,"Skin abnormal","Skin abnormal",NA,NA,NA,"Location: head, Region: dorsal, Subregion: caudal, Coordinate: C8",NA,NA,NA,NA,12,"2010-12-22T08:03:26",12,NA,NA,NA,NA,NA
"PDS2014","CL","PDS2014-0010",NA,642,NA,NA,NA,"CS","Clinical Sign","CLINICAL SIGNS",NA,NA,"No abnormalities","No abnormalities",NA,NA,NA,NA,NA,NA,NA,NA,16,"2010-12-26T06:59:23",16,NA,NA,NA,NA,NA
"PDS2014","CL","PDS2014-0010",NA,643,NA,NA,NA,"CS","Clinical Sign","CLINICAL SIGNS",NA,NA,"No abnormalities","No abnormalities",NA,NA,NA,NA,NA,NA,NA,NA,23,"2011-01-02T06:29:04",23,NA,NA,NA,NA,NA
"PDS2014","CL","PDS2014-0010",NA,644,NA,NA,NA,"CS","Clinical Sign","CLINICAL SIGNS",NA,NA,"No abnormalities","No abnormalities",NA,NA,NA,NA,NA,NA,NA,NA,1,"2010-12-11T09:17:21",1,NA,NA,NA,NA,NA
"PDS2014","CL","PDS2014-0010",NA,645,NA,NA,NA,"CS","Clinical Sign","CLINICAL SIGNS",NA,NA,"No abnormalities","No abnormalities",NA,NA,NA,NA,NA,NA,NA,NA,15,"2010-12-25T12:59:20",15,NA,NA,NA,NA,NA
"PDS2014","CL","PDS2014-0010",NA,646,NA,NA,NA,"CS","Clinical Sign","CLINICAL SIGNS",NA,NA,"Skin abnormal","Skin abnormal",NA,NA,NA,"Location: head, Region: dorsal, Subregion: caudal, Coordinate: C8",NA,NA,NA,NA,15,"2010-12-25T11:09:39",15,NA,NA,NA,NA,NA
"PDS2014","CL","PDS2014-0010",NA,647,NA,NA,NA,"CS","Clinical Sign","CLINICAL SIGNS",NA,NA,"Skin abnormal","Skin abnormal",NA,NA,NA,"Location: head, Region: dorsal, Subregion: caudal, Coordinate: C8",NA,NA,NA,NA,20,"2010-12-30T08:02:45",20,NA,NA,NA,NA,NA
"PDS2014","CL","PDS2014-0010",NA,648,NA,NA,NA,"CS","Clinical Sign","CLINICAL SIGNS",NA,NA,"No abnormalities","No abnormalities",NA,NA,NA,NA,NA,NA,NA,NA,22,"2011-01-01T06:32:11",22,NA,NA,NA,NA,NA
"PDS2014","CL","PDS2014-0010",NA,649,NA,NA,NA,"CS","Clinical Sign","CLINICAL SIGNS",NA,NA,"Skin abnormal","Skin abnormal",NA,NA,NA,"Location: head, Region: dorsal, Subregion: caudal, Coordinate: C8",NA,NA,NA,NA,22,"2011-01-01T07:58:07",22,NA,NA,NA,NA,NA
"PDS2014","CL","PDS2014-0010",NA,650,NA,NA,NA,"CS","Clinical Sign","CLINICAL SIGNS",NA,NA,"No abnormalities","No abnormalities",NA,NA,NA,NA,NA,NA,NA,NA,2,"2010-12-12T10:37:40",2,NA,NA,NA,NA,NA
"PDS2014","CL","PDS2014-0010",NA,651,NA,NA,NA,"CS","Clinical Sign","CLINICAL SIGNS",NA,NA,"No abnormalities","No abnormalities",NA,NA,NA,NA,NA,NA,NA,NA,5,"2010-12-15T08:37:15",5,NA,NA,NA,NA,NA
"PDS2014","CL","PDS2014-0010",NA,652,NA,NA,NA,"CS","Clinical Sign","CLINICAL SIGNS",NA,NA,"No abnormalities","No abnormalities",NA,NA,NA,NA,NA,NA,NA,NA,15,"2010-12-25T10:38:59",15,NA,NA,NA,NA,NA
"PDS2014","CL","PDS2014-0010",NA,653,NA,NA,NA,"CS","Clinical Sign","CLINICAL SIGNS",NA,NA,"Skin abnormal","Skin abnormal",NA,NA,NA,"Location: head, Region: dorsal, Subregion: caudal, Coordinate: C8",NA,NA,NA,NA,30,"2011-01-09T10:43:35",30,NA,NA,NA,NA,NA
"PDS2014","CL","PDS2014-0010",NA,654,NA,NA,NA,"CS","Clinical Sign","CLINICAL SIGNS",NA,NA,"No abnormalities","No abnormalities",NA,NA,NA,NA,NA,NA,NA,NA,1,"2010-12-11T11:18:24",1,NA,NA,NA,NA,NA
"PDS2014","CL","PDS2014-0010",NA,655,NA,NA,NA,"CS","Clinical Sign","CLINICAL SIGNS",NA,NA,"No abnormalities","No abnormalities",NA,NA,NA,NA,NA,NA,NA,NA,22,"2011-01-01T07:25:58",22,NA,NA,NA,NA,NA
"PDS2014","CL","PDS2014-0010",NA,656,NA,NA,NA,"CS","Clinical Sign","CLINICAL SIGNS",NA,NA,"Skin abnormal","Skin abnormal",NA,NA,NA,"Location: head, Region: dorsal, Subregion: caudal, Coordinate: C8",NA,NA,NA,NA,16,"2010-12-26T07:06:52",16,NA,NA,NA,NA,NA
"PDS2014","CL","PDS2014-0010",NA,657,NA,NA,NA,"CS","Clinical Sign","CLINICAL SIGNS",NA,NA,"Skin abnormal","Skin abnormal",NA,NA,NA,"Location: head, Region: dorsal, Subregion: caudal, Coordinate: C8",NA,NA,NA,NA,18,"2010-12-28T07:52:26",18,NA,NA,NA,NA,NA
"PDS2014","CL","PDS2014-0010",NA,658,NA,NA,NA,"CS","Clinical Sign","CLINICAL SIGNS",NA,NA,"Skin abnormal","Skin abnormal",NA,NA,NA,"Location: head, Region: dorsal, Subregion: caudal, Coordinate: C8",NA,NA,NA,NA,14,"2010-12-24T07:53:44",14,NA,NA,NA,NA,NA
"PDS2014","CL","PDS2014-0010",NA,659,NA,NA,NA,"CS","Clinical Sign","CLINICAL SIGNS",NA,NA,"No abnormalities","No abnormalities",NA,NA,NA,NA,NA,NA,NA,NA,26,"2011-01-05T08:08:11",26,NA,NA,NA,NA,NA
"PDS2014","CL","PDS2014-0010",NA,660,NA,NA,NA,"CS","Clinical Sign","CLINICAL SIGNS",NA,NA,"No abnormalities","No abnormalities",NA,NA,NA,NA,NA,NA,NA,NA,8,"2010-12-18T08:05:00",8,NA,NA,NA,NA,NA
"PDS2014","CL","PDS2014-0010",NA,661,NA,NA,NA,"CS","Clinical Sign","CLINICAL SIGNS",NA,NA,"Skin abnormal","Skin abnormal",NA,NA,NA,"Location: head, Region: dorsal, Subregion: caudal, Coordinate: C8",NA,NA,NA,NA,13,"2010-12-23T07:25:30",13,NA,NA,NA,NA,NA
"PDS2014","CL","PDS2014-0010",NA,662,NA,NA,NA,"CS","Clinical Sign","CLINICAL SIGNS",NA,NA,"No abnormalities","No abnormalities",NA,NA,NA,NA,NA,NA,NA,NA,8,"2010-12-18T09:53:45",8,NA,NA,NA,NA,NA
"PDS2014","CL","PDS2014-0010",NA,663,NA,NA,NA,"CS","Clinical Sign","CLINICAL SIGNS",NA,NA,"No abnormalities","No abnormalities",NA,NA,NA,NA,NA,NA,NA,NA,1,"2010-12-11T13:13:25",1,NA,NA,NA,NA,NA
"PDS2014","CL","PDS2014-0010",NA,664,NA,NA,NA,"CS","Clinical Sign","CLINICAL SIGNS",NA,NA,"No abnormalities","No abnormalities",NA,NA,NA,NA,NA,NA,NA,NA,25,"2011-01-04T08:25:53",25,NA,NA,NA,NA,NA
"PDS2014","CL","PDS2014-0010",NA,665,NA,NA,NA,"CS","Clinical Sign","OPHTHALMOLOGY",NA,NA,"No abnormalities","No abnormalities",NA,NA,NA,NA,NA,NA,NA,NA,28,"2011-01-07T10:45:50",28,NA,NA,NA,NA,NA
"PDS2014","CL","PDS2014-0010",NA,666,NA,NA,NA,"CS","Clinical Sign","CLINICAL SIGNS",NA,NA,"No abnormalities","No abnormalities",NA,NA,NA,NA,NA,NA,NA,NA,8,"2010-12-18T09:05:50",8,NA,NA,NA,NA,NA
"PDS2014","CL","PDS2014-0010",NA,667,NA,NA,NA,"CS","Clinical Sign","CLINICAL SIGNS",NA,NA,"No abnormalities","No abnormalities",NA,NA,NA,NA,NA,NA,NA,NA,24,"2011-01-03T08:36:36",24,NA,NA,NA,NA,NA
"PDS2014","CL","PDS2014-0010",NA,668,NA,NA,NA,"CS","Clinical Sign","OPHTHALMOLOGY",NA,NA,"No abnormalities","No abnormalities",NA,NA,NA,NA,NA,NA,NA,NA,-1,"2010-12-10T10:46:43",-1,NA,NA,NA,NA,NA
"PDS2014","CL","PDS2014-0010",NA,669,NA,NA,NA,"CS","Clinical Sign","CLINICAL SIGNS",NA,NA,"No abnormalities","No abnormalities",NA,NA,NA,NA,NA,NA,NA,NA,1,"2010-12-11T10:14:27",1,NA,NA,NA,NA,NA
"PDS2014","CL","PDS2014-0010",NA,670,NA,NA,NA,"CS","Clinical Sign","CLINICAL SIGNS",NA,NA,"No abnormalities","No abnormalities",NA,NA,NA,NA,NA,NA,NA,NA,8,"2010-12-18T07:52:06",8,NA,NA,NA,NA,NA
"PDS2014","CL","PDS2014-0010",NA,671,NA,NA,NA,"CS","Clinical Sign","CLINICAL SIGNS",NA,NA,"No abnormalities","No abnormalities",NA,NA,NA,NA,NA,NA,NA,NA,22,"2011-01-01T11:37:26",22,NA,NA,NA,NA,NA
"PDS2014","CL","PDS2014-0010",NA,672,NA,NA,NA,"CS","Clinical Sign","CLINICAL SIGNS",NA,NA,"No abnormalities","No abnormalities",NA,NA,NA,NA,NA,NA,NA,NA,15,"2010-12-25T08:24:08",15,NA,NA,NA,NA,NA
"PDS2014","CL","PDS2014-0010",NA,673,NA,NA,NA,"CS","Clinical Sign","CLINICAL SIGNS",NA,NA,"No abnormalities","No abnormalities",NA,NA,NA,NA,NA,NA,NA,NA,4,"2010-12-14T09:56:20",4,NA,NA,NA,NA,NA
"PDS2014","CL","PDS2014-0010",NA,674,NA,NA,NA,"CS","Clinical Sign","CLINICAL SIGNS",NA,NA,"No abnormalities","No abnormalities",NA,NA,NA,NA,NA,NA,NA,NA,1,"2010-12-11T09:31:25",1,NA,NA,NA,NA,NA
"PDS2014","CL","PDS2014-0010",NA,675,NA,NA,NA,"CS","Clinical Sign","CLINICAL SIGNS",NA,NA,"No abnormalities","No abnormalities",NA,NA,NA,NA,NA,NA,NA,NA,22,"2011-01-01T06:39:00",22,NA,NA,NA,NA,NA
"PDS2014","CL","PDS2014-0010",NA,676,NA,NA,NA,"CS","Clinical Sign","CLINICAL SIGNS",NA,NA,"No abnormalities","No abnormalities",NA,NA,NA,NA,NA,NA,NA,NA,27,"2011-01-06T08:56:42",27,NA,NA,NA,NA,NA
"PDS2014","CL","PDS2014-0010",NA,677,NA,NA,NA,"CS","Clinical Sign","CLINICAL SIGNS",NA,NA,"No abnormalities","No abnormalities",NA,NA,NA,NA,NA,NA,NA,NA,22,"2011-01-01T10:04:22",22,NA,NA,NA,NA,NA
"PDS2014","CL","PDS2014-0010",NA,678,NA,NA,NA,"CS","Clinical Sign","CLINICAL SIGNS",NA,NA,"No abnormalities","No abnormalities",NA,NA,NA,NA,NA,NA,NA,NA,25,"2011-01-04T08:29:35",25,NA,NA,NA,NA,NA
"PDS2014","CL","PDS2014-0010",NA,679,NA,NA,NA,"CS","Clinical Sign","CLINICAL SIGNS",NA,NA,"Skin abnormal","Skin abnormal",NA,NA,NA,"Location: head, Region: dorsal, Subregion: caudal, Coordinate: C8",NA,NA,NA,NA,17,"2010-12-27T09:54:36",17,NA,NA,NA,NA,NA
"PDS2014","CL","PDS2014-0010",NA,680,NA,NA,NA,"CS","Clinical Sign","CLINICAL SIGNS",NA,NA,"No abnormalities","No abnormalities",NA,NA,NA,NA,NA,NA,NA,NA,8,"2010-12-18T15:08:57",8,NA,NA,NA,NA,NA
"PDS2014","CL","PDS2014-0011",NA,681,NA,NA,NA,"CS","Clinical Sign","CLINICAL SIGNS",NA,NA,"No abnormalities","No abnormalities",NA,NA,NA,NA,NA,NA,NA,NA,25,"2011-01-04T11:33:45",25,NA,NA,NA,NA,NA
"PDS2014","CL","PDS2014-0011",NA,682,NA,NA,NA,"CS","Clinical Sign","CLINICAL SIGNS",NA,NA,"No abnormalities","No abnormalities",NA,NA,NA,NA,NA,NA,NA,NA,22,"2011-01-01T10:04:22",22,NA,NA,NA,NA,NA
"PDS2014","CL","PDS2014-0011",NA,683,NA,NA,NA,"CS","Clinical Sign","CLINICAL SIGNS",NA,NA,"No abnormalities","No abnormalities",NA,NA,NA,NA,NA,NA,NA,NA,25,"2011-01-04T15:26:10",25,NA,NA,NA,NA,NA
"PDS2014","CL","PDS2014-0011",NA,684,NA,NA,NA,"CS","Clinical Sign","CLINICAL SIGNS",NA,NA,"No abnormalities","No abnormalities",NA,NA,NA,NA,NA,NA,NA,NA,1,"2010-12-11T09:17:21",1,NA,NA,NA,NA,NA
"PDS2014","CL","PDS2014-0011",NA,685,NA,NA,NA,"CS","Clinical Sign","CLINICAL SIGNS",NA,NA,"No abnormalities","No abnormalities",NA,NA,NA,NA,NA,NA,NA,NA,25,"2011-01-04T08:38:48",25,NA,NA,NA,NA,NA
"PDS2014","CL","PDS2014-0011",NA,686,NA,NA,NA,"CS","Clinical Sign","CLINICAL SIGNS",NA,NA,"No abnormalities","No abnormalities",NA,NA,NA,NA,NA,NA,NA,NA,22,"2011-01-01T07:56:48",22,NA,NA,NA,NA,NA
"PDS2014","CL","PDS2014-0011",NA,687,NA,NA,NA,"CS","Clinical Sign","CLINICAL SIGNS",NA,NA,"No abnormalities","No abnormalities",NA,NA,NA,NA,NA,NA,NA,NA,42,"2011-01-21T08:42:05",42,NA,NA,NA,NA,NA
"PDS2014","CL","PDS2014-0011",NA,688,NA,NA,NA,"CS","Clinical Sign","CLINICAL SIGNS",NA,NA,"No abnormalities","No abnormalities",NA,NA,NA,NA,NA,NA,NA,NA,10,"2010-12-20T11:00:10",10,NA,NA,NA,NA,NA
"PDS2014","CL","PDS2014-0011",NA,689,NA,NA,NA,"CS","Clinical Sign","CLINICAL SIGNS",NA,NA,"No abnormalities","No abnormalities",NA,NA,NA,NA,NA,NA,NA,NA,33,"2011-01-12T09:57:39",33,NA,NA,NA,NA,NA
"PDS2014","CL","PDS2014-0011",NA,690,NA,NA,NA,"CS","Clinical Sign","CLINICAL SIGNS",NA,NA,"No abnormalities","No abnormalities",NA,NA,NA,NA,NA,NA,NA,NA,7,"2010-12-17T08:06:21",7,NA,NA,NA,NA,NA
"PDS2014","CL","PDS2014-0011",NA,691,NA,NA,NA,"CS","Clinical Sign","CLINICAL SIGNS",NA,NA,"No abnormalities","No abnormalities",NA,NA,NA,NA,NA,NA,NA,NA,51,"2011-01-30T10:59:02",51,NA,NA,NA,NA,NA
"PDS2014","CL","PDS2014-0011",NA,692,NA,NA,NA,"CS","Clinical Sign","CLINICAL SIGNS",NA,NA,"No abnormalities","No abnormalities",NA,NA,NA,NA,NA,NA,NA,NA,6,"2010-12-16T08:57:44",6,NA,NA,NA,NA,NA
"PDS2014","CL","PDS2014-0011",NA,693,NA,NA,NA,"CS","Clinical Sign","CLINICAL SIGNS",NA,NA,"No abnormalities","No abnormalities",NA,NA,NA,NA,NA,NA,NA,NA,23,"2011-01-02T06:29:04",23,NA,NA,NA,NA,NA
"PDS2014","CL","PDS2014-0011",NA,694,NA,NA,NA,"CS","Clinical Sign","CLINICAL SIGNS",NA,NA,"No abnormalities","No abnormalities",NA,NA,NA,NA,NA,NA,NA,NA,2,"2010-12-12T09:12:57",2,NA,NA,NA,NA,NA
"PDS2014","CL","PDS2014-0011",NA,695,NA,NA,NA,"CS","Clinical Sign","CLINICAL SIGNS",NA,NA,"No abnormalities","No abnormalities",NA,NA,NA,NA,NA,NA,NA,NA,34,"2011-01-13T09:28:31",34,NA,NA,NA,NA,NA
"PDS2014","CL","PDS2014-0011",NA,696,NA,NA,NA,"CS","Clinical Sign","CLINICAL SIGNS",NA,NA,"No abnormalities","No abnormalities",NA,NA,NA,NA,NA,NA,NA,NA,21,"2010-12-31T08:53:05",21,NA,NA,NA,NA,NA
"PDS2014","CL","PDS2014-0011",NA,697,NA,NA,NA,"CS","Clinical Sign","CLINICAL SIGNS",NA,NA,"No abnormalities","No abnormalities",NA,NA,NA,NA,NA,NA,NA,NA,13,"2010-12-23T07:29:02",13,NA,NA,NA,NA,NA
"PDS2014","CL","PDS2014-0011",NA,698,NA,NA,NA,"CS","Clinical Sign","CLINICAL SIGNS",NA,NA,"No abnormalities","No abnormalities",NA,NA,NA,NA,NA,NA,NA,NA,15,"2010-12-25T12:59:20",15,NA,NA,NA,NA,NA
"PDS2014","CL","PDS2014-0011",NA,699,NA,NA,NA,"CS","Clinical Sign","CLINICAL SIGNS",NA,NA,"No abnormalities","No abnormalities",NA,NA,NA,NA,NA,NA,NA,NA,55,"2011-02-03T11:24:42",55,NA,NA,NA,NA,NA
"PDS2014","CL","PDS2014-0011",NA,700,NA,NA,NA,"CS","Clinical Sign","CLINICAL SIGNS",NA,NA,"No abnormalities","No abnormalities",NA,NA,NA,NA,NA,NA,NA,NA,11,"2010-12-21T07:29:59",11,NA,NA,NA,NA,NA
"PDS2014","CL","PDS2014-0011",NA,701,NA,NA,NA,"CS","Clinical Sign","CLINICAL SIGNS",NA,NA,"No abnormalities","No abnormalities",NA,NA,NA,NA,NA,NA,NA,NA,15,"2010-12-25T07:33:04",15,NA,NA,NA,NA,NA
"PDS2014","CL","PDS2014-0011",NA,702,NA,NA,NA,"CS","Clinical Sign","CLINICAL SIGNS",NA,NA,"No abnormalities","No abnormalities",NA,NA,NA,NA,NA,NA,NA,NA,44,"2011-01-23T10:55:25",44,NA,NA,NA,NA,NA
"PDS2014","CL","PDS2014-0011",NA,703,NA,NA,NA,"CS","Clinical Sign","CLINICAL SIGNS",NA,NA,"No abnormalities","No abnormalities",NA,NA,NA,NA,NA,NA,NA,NA,16,"2010-12-26T07:11:02",16,NA,NA,NA,NA,NA
"PDS2014","CL","PDS2014-0011",NA,704,NA,NA,NA,"CS","Clinical Sign","CLINICAL SIGNS",NA,NA,"No abnormalities","No abnormalities",NA,NA,NA,NA,NA,NA,NA,NA,22,"2011-01-01T06:32:11",22,NA,NA,NA,NA,NA
"PDS2014","CL","PDS2014-0011",NA,705,NA,NA,NA,"CS","Clinical Sign","CLINICAL SIGNS",NA,NA,"No abnormalities","No abnormalities",NA,NA,NA,NA,NA,NA,NA,NA,22,"2011-01-01T07:25:58",22,NA,NA,NA,NA,NA
"PDS2014","CL","PDS2014-0011",NA,706,NA,NA,NA,"CS","Clinical Sign","CLINICAL SIGNS",NA,NA,"No abnormalities","No abnormalities",NA,NA,NA,NA,NA,NA,NA,NA,5,"2010-12-15T08:37:15",5,NA,NA,NA,NA,NA
"PDS2014","CL","PDS2014-0011",NA,707,NA,NA,NA,"CS","Clinical Sign","CLINICAL SIGNS",NA,NA,"No abnormalities","No abnormalities",NA,NA,NA,NA,NA,NA,NA,NA,2,"2010-12-12T10:37:40",2,NA,NA,NA,NA,NA
"PDS2014","CL","PDS2014-0011",NA,708,NA,NA,NA,"CS","Clinical Sign","CLINICAL SIGNS",NA,NA,"No abnormalities","No abnormalities",NA,NA,NA,NA,NA,NA,NA,NA,40,"2011-01-19T10:32:28",40,NA,NA,NA,NA,NA
"PDS2014","CL","PDS2014-0011",NA,709,NA,NA,NA,"CS","Clinical Sign","CLINICAL SIGNS",NA,NA,"No abnormalities","No abnormalities",NA,NA,NA,NA,NA,NA,NA,NA,26,"2011-01-05T10:05:01",26,NA,NA,NA,NA,NA
"PDS2014","CL","PDS2014-0011",NA,710,NA,NA,NA,"CS","Clinical Sign","OPHTHALMOLOGY",NA,NA,"Preretinal bleeding","Preretinal bleeding",NA,NA,NA,"Location: unilateral, Location: left",NA,NA,NA,NA,56,"2011-02-04T10:27:50",56,NA,NA,NA,NA,NA
"PDS2014","CL","PDS2014-0011",NA,711,NA,NA,NA,"CS","Clinical Sign","OPHTHALMOLOGY",NA,NA,"Retinal hyperreflectivity","Retinal hyperreflectivity",NA,NA,NA,"Location: unilateral, Location: left",NA,NA,NA,NA,56,"2011-02-04T10:27:17",56,NA,NA,NA,NA,NA
"PDS2014","CL","PDS2014-0011",NA,712,NA,NA,NA,"CS","Clinical Sign","OPHTHALMOLOGY",NA,NA,"Cataract","Cataract",NA,NA,NA,"Location: unilateral, Location: right, Focal/diffuse: focal, Depth: anterior, Position: 3h",NA,NA,NA,NA,56,"2011-02-04T10:26:35",56,NA,NA,NA,NA,NA
"PDS2014","CL","PDS2014-0011",NA,713,NA,NA,NA,"CS","Clinical Sign","CLINICAL SIGNS",NA,NA,"No abnormalities","No abnormalities",NA,NA,NA,NA,NA,NA,NA,NA,1,"2010-12-11T13:13:25",1,NA,NA,NA,NA,NA
"PDS2014","CL","PDS2014-0011",NA,714,NA,NA,NA,"CS","Clinical Sign","CLINICAL SIGNS",NA,NA,"No abnormalities","No abnormalities",NA,NA,NA,NA,NA,NA,NA,NA,8,"2010-12-18T09:53:45",8,NA,NA,NA,NA,NA
"PDS2014","CL","PDS2014-0011",NA,715,NA,NA,NA,"CS","Clinical Sign","CLINICAL SIGNS",NA,NA,"No abnormalities","No abnormalities",NA,NA,NA,NA,NA,NA,NA,NA,9,"2010-12-19T11:43:59",9,NA,NA,NA,NA,NA
"PDS2014","CL","PDS2014-0011",NA,716,NA,NA,NA,"CS","Clinical Sign","CLINICAL SIGNS",NA,NA,"No abnormalities","No abnormalities",NA,NA,NA,NA,NA,NA,NA,NA,32,"2011-01-11T09:22:21",32,NA,NA,NA,NA,NA
"PDS2014","CL","PDS2014-0011",NA,717,NA,NA,NA,"CS","Clinical Sign","OPHTHALMOLOGY",NA,NA,"Retinal hyperreflectivity","Retinal hyperreflectivity",NA,NA,NA,"Location: unilateral, Location: left",NA,NA,NA,NA,-1,"2010-12-10T10:53:57",-1,NA,NA,NA,NA,NA
"PDS2014","CL","PDS2014-0011",NA,718,NA,NA,NA,"CS","Clinical Sign","CLINICAL SIGNS",NA,NA,"No abnormalities","No abnormalities",NA,NA,NA,NA,NA,NA,NA,NA,18,"2010-12-28T07:57:27",18,NA,NA,NA,NA,NA
"PDS2014","CL","PDS2014-0011",NA,719,NA,NA,NA,"CS","Clinical Sign","CLINICAL SIGNS",NA,NA,"No abnormalities","No abnormalities",NA,NA,NA,NA,NA,NA,NA,NA,28,"2011-01-07T07:27:06",28,NA,NA,NA,NA,NA
"PDS2014","CL","PDS2014-0011",NA,720,NA,NA,NA,"CS","Clinical Sign","CLINICAL SIGNS",NA,NA,"No abnormalities","No abnormalities",NA,NA,NA,NA,NA,NA,NA,NA,17,"2010-12-27T09:59:01",17,NA,NA,NA,NA,NA
"PDS2014","CL","PDS2014-0011",NA,721,NA,NA,NA,"CS","Clinical Sign","CLINICAL SIGNS",NA,NA,"No abnormalities","No abnormalities",NA,NA,NA,NA,NA,NA,NA,NA,41,"2011-01-20T10:31:25",41,NA,NA,NA,NA,NA
"PDS2014","CL","PDS2014-0011",NA,722,NA,NA,NA,"CS","Clinical Sign","CLINICAL SIGNS",NA,NA,"No abnormalities","No abnormalities",NA,NA,NA,NA,NA,NA,NA,NA,49,"2011-01-28T09:13:29",49,NA,NA,NA,NA,NA
"PDS2014","CL","PDS2014-0011",NA,723,NA,NA,NA,"CS","Clinical Sign","CLINICAL SIGNS",NA,NA,"No abnormalities","No abnormalities",NA,NA,NA,NA,NA,NA,NA,NA,25,"2011-01-04T08:10:54",25,NA,NA,NA,NA,NA
"PDS2014","CL","PDS2014-0011",NA,724,NA,NA,NA,"CS","Clinical Sign","CLINICAL SIGNS",NA,NA,"No abnormalities","No abnormalities",NA,NA,NA,NA,NA,NA,NA,NA,15,"2010-12-25T08:24:08",15,NA,NA,NA,NA,NA
"PDS2014","CL","PDS2014-0011",NA,725,NA,NA,NA,"CS","Clinical Sign","CLINICAL SIGNS",NA,NA,"No abnormalities","No abnormalities",NA,NA,NA,NA,NA,NA,NA,NA,4,"2010-12-14T09:56:20",4,NA,NA,NA,NA,NA
"PDS2014","CL","PDS2014-0011",NA,726,NA,NA,NA,"CS","Clinical Sign","CLINICAL SIGNS",NA,NA,"No abnormalities","No abnormalities",NA,NA,NA,NA,NA,NA,NA,NA,26,"2011-01-05T08:08:11",26,NA,NA,NA,NA,NA
"PDS2014","CL","PDS2014-0011",NA,727,NA,NA,NA,"CS","Clinical Sign","CLINICAL SIGNS",NA,NA,"No abnormalities","No abnormalities",NA,NA,NA,NA,NA,NA,NA,NA,38,"2011-01-17T10:32:33",38,NA,NA,NA,NA,NA
"PDS2014","CL","PDS2014-0011",NA,728,NA,NA,NA,"CS","Clinical Sign","CLINICAL SIGNS",NA,NA,"No abnormalities","No abnormalities",NA,NA,NA,NA,NA,NA,NA,NA,8,"2010-12-18T07:52:06",8,NA,NA,NA,NA,NA
"PDS2014","CL","PDS2014-0011",NA,729,NA,NA,NA,"CS","Clinical Sign","CLINICAL SIGNS",NA,NA,"No abnormalities","No abnormalities",NA,NA,NA,NA,NA,NA,NA,NA,46,"2011-01-25T13:04:52",46,NA,NA,NA,NA,NA
"PDS2014","CL","PDS2014-0011",NA,730,NA,NA,NA,"CS","Clinical Sign","CLINICAL SIGNS",NA,NA,"No abnormalities","No abnormalities",NA,NA,NA,NA,NA,NA,NA,NA,8,"2010-12-18T15:08:57",8,NA,NA,NA,NA,NA
"PDS2014","CL","PDS2014-0011",NA,731,NA,NA,NA,"CS","Clinical Sign","CLINICAL SIGNS",NA,NA,"No abnormalities","No abnormalities",NA,NA,NA,NA,NA,NA,NA,NA,39,"2011-01-18T09:25:31",39,NA,NA,NA,NA,NA
"PDS2014","CL","PDS2014-0011",NA,732,NA,NA,NA,"CS","Clinical Sign","CLINICAL SIGNS",NA,NA,"No abnormalities","No abnormalities",NA,NA,NA,NA,NA,NA,NA,NA,15,"2010-12-25T11:16:05",15,NA,NA,NA,NA,NA
"PDS2014","CL","PDS2014-0011",NA,733,NA,NA,NA,"CS","Clinical Sign","CLINICAL SIGNS",NA,NA,"No abnormalities","No abnormalities",NA,NA,NA,NA,NA,NA,NA,NA,8,"2010-12-18T11:44:47",8,NA,NA,NA,NA,NA
"PDS2014","CL","PDS2014-0011",NA,734,NA,NA,NA,"CS","Clinical Sign","CLINICAL SIGNS",NA,NA,"No abnormalities","No abnormalities",NA,NA,NA,NA,NA,NA,NA,NA,3,"2010-12-13T11:14:24",3,NA,NA,NA,NA,NA
"PDS2014","CL","PDS2014-0011",NA,735,NA,NA,NA,"CS","Clinical Sign","CLINICAL SIGNS",NA,NA,"No abnormalities","No abnormalities",NA,NA,NA,NA,NA,NA,NA,NA,1,"2010-12-11T15:11:14",1,NA,NA,NA,NA,NA
"PDS2014","CL","PDS2014-0011",NA,736,NA,NA,NA,"CS","Clinical Sign","CLINICAL SIGNS",NA,NA,"No abnormalities","No abnormalities",NA,NA,NA,NA,NA,NA,NA,NA,22,"2011-01-01T08:25:39",22,NA,NA,NA,NA,NA
"PDS2014","CL","PDS2014-0011",NA,737,NA,NA,NA,"CS","Clinical Sign","CLINICAL SIGNS",NA,NA,"No abnormalities","No abnormalities",NA,NA,NA,NA,NA,NA,NA,NA,25,"2011-01-04T09:53:12",25,NA,NA,NA,NA,NA
"PDS2014","CL","PDS2014-0011",NA,738,NA,NA,NA,"CS","Clinical Sign","CLINICAL SIGNS",NA,NA,"No abnormalities","No abnormalities",NA,NA,NA,NA,NA,NA,NA,NA,58,"2011-02-06T07:44:04",58,NA,NA,NA,NA,NA
"PDS2014","CL","PDS2014-0011",NA,739,NA,NA,NA,"CS","Clinical Sign","CLINICAL SIGNS",NA,NA,"No abnormalities","No abnormalities",NA,NA,NA,NA,NA,NA,NA,NA,52,"2011-01-31T07:40:30",52,NA,NA,NA,NA,NA
"PDS2014","CL","PDS2014-0011",NA,740,NA,NA,NA,"CS","Clinical Sign","CLINICAL SIGNS",NA,NA,"No abnormalities","No abnormalities",NA,NA,NA,NA,NA,NA,NA,NA,23,"2011-01-02T08:17:56",23,NA,NA,NA,NA,NA
"PDS2014","CL","PDS2014-0011",NA,741,NA,NA,NA,"CS","Clinical Sign","CLINICAL SIGNS",NA,NA,"No abnormalities","No abnormalities",NA,NA,NA,NA,NA,NA,NA,NA,35,"2011-01-14T11:25:51",35,NA,NA,NA,NA,NA
"PDS2014","CL","PDS2014-0011",NA,742,NA,NA,NA,"CS","Clinical Sign","CLINICAL SIGNS",NA,NA,"No abnormalities","No abnormalities",NA,NA,NA,NA,NA,NA,NA,NA,1,"2010-12-11T09:35:09",1,NA,NA,NA,NA,NA
"PDS2014","CL","PDS2014-0011",NA,743,NA,NA,NA,"CS","Clinical Sign","CLINICAL SIGNS",NA,NA,"No abnormalities","No abnormalities",NA,NA,NA,NA,NA,NA,NA,NA,29,"2011-01-08T07:18:14",29,NA,NA,NA,NA,NA
"PDS2014","CL","PDS2014-0011",NA,744,NA,NA,NA,"CS","Clinical Sign","CLINICAL SIGNS",NA,NA,"No abnormalities","No abnormalities",NA,NA,NA,NA,NA,NA,NA,NA,20,"2010-12-30T08:08:39",20,NA,NA,NA,NA,NA
"PDS2014","CL","PDS2014-0011",NA,745,NA,NA,NA,"CS","Clinical Sign","CLINICAL SIGNS",NA,NA,"No abnormalities","No abnormalities",NA,NA,NA,NA,NA,NA,NA,NA,48,"2011-01-27T07:54:40",48,NA,NA,NA,NA,NA
"PDS2014","CL","PDS2014-0011",NA,746,NA,NA,NA,"CS","Clinical Sign","CLINICAL SIGNS",NA,NA,"No abnormalities","No abnormalities",NA,NA,NA,NA,NA,NA,NA,NA,47,"2011-01-26T09:10:32",47,NA,NA,NA,NA,NA
"PDS2014","CL","PDS2014-0011",NA,747,NA,NA,NA,"CS","Clinical Sign","CLINICAL SIGNS",NA,NA,"No abnormalities","No abnormalities",NA,NA,NA,NA,NA,NA,NA,NA,57,"2011-02-05T07:43:28",57,NA,NA,NA,NA,NA
"PDS2014","CL","PDS2014-0011",NA,748,NA,NA,NA,"CS","Clinical Sign","CLINICAL SIGNS",NA,NA,"No abnormalities","No abnormalities",NA,NA,NA,NA,NA,NA,NA,NA,45,"2011-01-24T07:44:58",45,NA,NA,NA,NA,NA
"PDS2014","CL","PDS2014-0011",NA,749,NA,NA,NA,"CS","Clinical Sign","CLINICAL SIGNS",NA,NA,"No abnormalities","No abnormalities",NA,NA,NA,NA,NA,NA,NA,NA,30,"2011-01-09T10:54:51",30,NA,NA,NA,NA,NA
"PDS2014","CL","PDS2014-0011",NA,750,NA,NA,NA,"CS","Clinical Sign","CLINICAL SIGNS",NA,NA,"No abnormalities","No abnormalities",NA,NA,NA,NA,NA,NA,NA,NA,37,"2011-01-16T07:36:16",37,NA,NA,NA,NA,NA
"PDS2014","CL","PDS2014-0011",NA,751,NA,NA,NA,"CS","Clinical Sign","OPHTHALMOLOGY",NA,NA,"Cataract","Cataract",NA,NA,NA,"Location: unilateral, Location: right, Focal/diffuse: focal, Depth: anterior, Position: 3h",NA,NA,NA,NA,28,"2011-01-07T10:56:49",28,NA,NA,NA,NA,NA
"PDS2014","CL","PDS2014-0011",NA,752,NA,NA,NA,"CS","Clinical Sign","CLINICAL SIGNS",NA,NA,"No abnormalities","No abnormalities",NA,NA,NA,NA,NA,NA,NA,NA,9,"2010-12-19T08:07:39",9,NA,NA,NA,NA,NA
"PDS2014","CL","PDS2014-0011",NA,753,NA,NA,NA,"CS","Clinical Sign","CLINICAL SIGNS",NA,NA,"No abnormalities","No abnormalities",NA,NA,NA,NA,NA,NA,NA,NA,16,"2010-12-26T06:59:23",16,NA,NA,NA,NA,NA
"PDS2014","CL","PDS2014-0011",NA,754,NA,NA,NA,"CS","Clinical Sign","CLINICAL SIGNS",NA,NA,"No abnormalities","No abnormalities",NA,NA,NA,NA,NA,NA,NA,NA,15,"2010-12-25T07:18:27",15,NA,NA,NA,NA,NA
"PDS2014","CL","PDS2014-0011",NA,755,NA,NA,NA,"CS","Clinical Sign","OPHTHALMOLOGY",NA,NA,"Retinal hyperreflectivity","Retinal hyperreflectivity",NA,NA,NA,"Location: unilateral, Location: left",NA,NA,NA,NA,28,"2011-01-07T10:55:57",28,NA,NA,NA,NA,NA
"PDS2014","CL","PDS2014-0011",NA,756,NA,NA,NA,"CS","Clinical Sign","CLINICAL SIGNS",NA,NA,"No abnormalities","No abnormalities",NA,NA,NA,NA,NA,NA,NA,NA,8,"2010-12-18T08:11:51",8,NA,NA,NA,NA,NA
"PDS2014","CL","PDS2014-0011",NA,757,NA,NA,NA,"CS","Clinical Sign","CLINICAL SIGNS",NA,NA,"No abnormalities","No abnormalities",NA,NA,NA,NA,NA,NA,NA,NA,36,"2011-01-15T10:29:22",36,NA,NA,NA,NA,NA
"PDS2014","CL","PDS2014-0011",NA,758,NA,NA,NA,"CS","Clinical Sign","CLINICAL SIGNS",NA,NA,"No abnormalities","No abnormalities",NA,NA,NA,NA,NA,NA,NA,NA,53,"2011-02-01T09:46:44",53,NA,NA,NA,NA,NA
"PDS2014","CL","PDS2014-0011",NA,759,NA,NA,NA,"CS","Clinical Sign","CLINICAL SIGNS",NA,NA,"No abnormalities","No abnormalities",NA,NA,NA,NA,NA,NA,NA,NA,19,"2010-12-29T09:34:46",19,NA,NA,NA,NA,NA
"PDS2014","CL","PDS2014-0011",NA,760,NA,NA,NA,"CS","Clinical Sign","CLINICAL SIGNS",NA,NA,"No abnormalities","No abnormalities",NA,NA,NA,NA,NA,NA,NA,NA,54,"2011-02-02T10:51:18",54,NA,NA,NA,NA,NA
"PDS2014","CL","PDS2014-0011",NA,761,NA,NA,NA,"CS","Clinical Sign","CLINICAL SIGNS",NA,NA,"No abnormalities","No abnormalities",NA,NA,NA,NA,NA,NA,NA,NA,31,"2011-01-10T09:45:07",31,NA,NA,NA,NA,NA
"PDS2014","CL","PDS2014-0011",NA,762,NA,NA,NA,"CS","Clinical Sign","CLINICAL SIGNS",NA,NA,"No abnormalities","No abnormalities",NA,NA,NA,NA,NA,NA,NA,NA,12,"2010-12-22T08:09:19",12,NA,NA,NA,NA,NA
"PDS2014","CL","PDS2014-0011",NA,763,NA,NA,NA,"CS","Clinical Sign","CLINICAL SIGNS",NA,NA,"No abnormalities","No abnormalities",NA,NA,NA,NA,NA,NA,NA,NA,8,"2010-12-18T08:14:27",8,NA,NA,NA,NA,NA
"PDS2014","CL","PDS2014-0011",NA,764,NA,NA,NA,"CS","Clinical Sign","CLINICAL SIGNS",NA,NA,"No abnormalities","No abnormalities",NA,NA,NA,NA,NA,NA,NA,NA,1,"2010-12-11T11:18:24",1,NA,NA,NA,NA,NA
"PDS2014","CL","PDS2014-0011",NA,765,NA,NA,NA,"CS","Clinical Sign","CLINICAL SIGNS",NA,NA,"No abnormalities","No abnormalities",NA,NA,NA,NA,NA,NA,NA,NA,25,"2011-01-04T08:27:55",25,NA,NA,NA,NA,NA
"PDS2014","CL","PDS2014-0011",NA,766,NA,NA,NA,"CS","Clinical Sign","CLINICAL SIGNS",NA,NA,"No abnormalities","No abnormalities",NA,NA,NA,NA,NA,NA,NA,NA,14,"2010-12-24T07:59:18",14,NA,NA,NA,NA,NA
"PDS2014","CL","PDS2014-0011",NA,767,NA,NA,NA,"CS","Clinical Sign","CLINICAL SIGNS",NA,NA,"No abnormalities","No abnormalities",NA,NA,NA,NA,NA,NA,NA,NA,50,"2011-01-29T07:51:35",50,NA,NA,NA,NA,NA
"PDS2014","CL","PDS2014-0011",NA,768,NA,NA,NA,"CS","Clinical Sign","CLINICAL SIGNS",NA,NA,"No abnormalities","No abnormalities",NA,NA,NA,NA,NA,NA,NA,NA,22,"2011-01-01T06:44:10",22,NA,NA,NA,NA,NA
"PDS2014","CL","PDS2014-0011",NA,769,NA,NA,NA,"CS","Clinical Sign","CLINICAL SIGNS",NA,NA,"No abnormalities","No abnormalities",NA,NA,NA,NA,NA,NA,NA,NA,24,"2011-01-03T08:36:36",24,NA,NA,NA,NA,NA
"PDS2014","CL","PDS2014-0011",NA,770,NA,NA,NA,"CS","Clinical Sign","CLINICAL SIGNS",NA,NA,"No abnormalities","No abnormalities",NA,NA,NA,NA,NA,NA,NA,NA,8,"2010-12-18T09:05:50",8,NA,NA,NA,NA,NA
"PDS2014","CL","PDS2014-0011",NA,771,NA,NA,NA,"CS","Clinical Sign","CLINICAL SIGNS",NA,NA,"No abnormalities","No abnormalities",NA,NA,NA,NA,NA,NA,NA,NA,43,"2011-01-22T07:40:57",43,NA,NA,NA,NA,NA
"PDS2014","CL","PDS2014-0011",NA,772,NA,NA,NA,"CS","Clinical Sign","CLINICAL SIGNS",NA,NA,"No abnormalities","No abnormalities",NA,NA,NA,NA,NA,NA,NA,NA,1,"2010-12-11T13:09:50",1,NA,NA,NA,NA,NA
"PDS2014","CL","PDS2014-0011",NA,773,NA,NA,NA,"CS","Clinical Sign","CLINICAL SIGNS",NA,NA,"No abnormalities","No abnormalities",NA,NA,NA,NA,NA,NA,NA,NA,1,"2010-12-11T10:14:27",1,NA,NA,NA,NA,NA
"PDS2014","CL","PDS2014-0011",NA,774,NA,NA,NA,"CS","Clinical Sign","CLINICAL SIGNS",NA,NA,"No abnormalities","No abnormalities",NA,NA,NA,NA,NA,NA,NA,NA,25,"2011-01-04T08:29:35",25,NA,NA,NA,NA,NA
"PDS2014","CL","PDS2014-0011",NA,775,NA,NA,NA,"CS","Clinical Sign","CLINICAL SIGNS",NA,NA,"No abnormalities","No abnormalities",NA,NA,NA,NA,NA,NA,NA,NA,15,"2010-12-25T10:38:59",15,NA,NA,NA,NA,NA
"PDS2014","CL","PDS2014-0011",NA,776,NA,NA,NA,"CS","Clinical Sign","CLINICAL SIGNS",NA,NA,"No abnormalities","No abnormalities",NA,NA,NA,NA,NA,NA,NA,NA,27,"2011-01-06T08:56:42",27,NA,NA,NA,NA,NA
"PDS2014","CL","PDS2014-0011",NA,777,NA,NA,NA,"CS","Clinical Sign","CLINICAL SIGNS",NA,NA,"No abnormalities","No abnormalities",NA,NA,NA,NA,NA,NA,NA,NA,56,"2011-02-04T07:09:36",56,NA,NA,NA,NA,NA
"PDS2014","CL","PDS2014-0011",NA,778,NA,NA,NA,"CS","Clinical Sign","CLINICAL SIGNS",NA,NA,"No abnormalities","No abnormalities",NA,NA,NA,NA,NA,NA,NA,NA,15,"2010-12-25T09:02:25",15,NA,NA,NA,NA,NA
"PDS2014","CL","PDS2014-0011",NA,779,NA,NA,NA,"CS","Clinical Sign","CLINICAL SIGNS",NA,NA,"No abnormalities","No abnormalities",NA,NA,NA,NA,NA,NA,NA,NA,22,"2011-01-01T11:37:26",22,NA,NA,NA,NA,NA
"PDS2014","CL","PDS2014-0012",NA,780,NA,NA,NA,"CS","Clinical Sign","CLINICAL SIGNS",NA,NA,"No abnormalities","No abnormalities",NA,NA,NA,NA,NA,NA,NA,NA,10,"2010-12-20T11:00:10",10,NA,NA,NA,NA,NA
"PDS2014","CL","PDS2014-0012",NA,781,NA,NA,NA,"CS","Clinical Sign","CLINICAL SIGNS",NA,NA,"No abnormalities","No abnormalities",NA,NA,NA,NA,NA,NA,NA,NA,42,"2011-01-21T08:42:05",42,NA,NA,NA,NA,NA
"PDS2014","CL","PDS2014-0012",NA,782,NA,NA,NA,"CS","Clinical Sign","CLINICAL SIGNS",NA,NA,"No abnormalities","No abnormalities",NA,NA,NA,NA,NA,NA,NA,NA,25,"2011-01-04T08:38:48",25,NA,NA,NA,NA,NA
"PDS2014","CL","PDS2014-0012",NA,783,NA,NA,NA,"CS","Clinical Sign","CLINICAL SIGNS",NA,NA,"No abnormalities","No abnormalities",NA,NA,NA,NA,NA,NA,NA,NA,2,"2010-12-12T09:12:57",2,NA,NA,NA,NA,NA
"PDS2014","CL","PDS2014-0012",NA,784,NA,NA,NA,"CS","Clinical Sign","CLINICAL SIGNS",NA,NA,"No abnormalities","No abnormalities",NA,NA,NA,NA,NA,NA,NA,NA,25,"2011-01-04T11:33:45",25,NA,NA,NA,NA,NA
"PDS2014","CL","PDS2014-0012",NA,785,NA,NA,NA,"CS","Clinical Sign","CLINICAL SIGNS",NA,NA,"No abnormalities","No abnormalities",NA,NA,NA,NA,NA,NA,NA,NA,22,"2011-01-01T10:04:22",22,NA,NA,NA,NA,NA
"PDS2014","CL","PDS2014-0012",NA,786,NA,NA,NA,"CS","Clinical Sign","CLINICAL SIGNS",NA,NA,"No abnormalities","No abnormalities",NA,NA,NA,NA,NA,NA,NA,NA,1,"2010-12-11T09:17:21",1,NA,NA,NA,NA,NA
"PDS2014","CL","PDS2014-0012",NA,787,NA,NA,NA,"CS","Clinical Sign","CLINICAL SIGNS",NA,NA,"No abnormalities","No abnormalities",NA,NA,NA,NA,NA,NA,NA,NA,7,"2010-12-17T08:06:21",7,NA,NA,NA,NA,NA
"PDS2014","CL","PDS2014-0012",NA,788,NA,NA,NA,"CS","Clinical Sign","CLINICAL SIGNS",NA,NA,"No abnormalities","No abnormalities",NA,NA,NA,NA,NA,NA,NA,NA,51,"2011-01-30T10:59:02",51,NA,NA,NA,NA,NA
"PDS2014","CL","PDS2014-0012",NA,789,NA,NA,NA,"CS","Clinical Sign","CLINICAL SIGNS",NA,NA,"No abnormalities","No abnormalities",NA,NA,NA,NA,NA,NA,NA,NA,34,"2011-01-13T09:28:31",34,NA,NA,NA,NA,NA
"PDS2014","CL","PDS2014-0012",NA,790,NA,NA,NA,"CS","Clinical Sign","CLINICAL SIGNS",NA,NA,"No abnormalities","No abnormalities",NA,NA,NA,NA,NA,NA,NA,NA,21,"2010-12-31T08:53:05",21,NA,NA,NA,NA,NA
"PDS2014","CL","PDS2014-0012",NA,791,NA,NA,NA,"CS","Clinical Sign","CLINICAL SIGNS",NA,NA,"No abnormalities","No abnormalities",NA,NA,NA,NA,NA,NA,NA,NA,33,"2011-01-12T09:57:39",33,NA,NA,NA,NA,NA
"PDS2014","CL","PDS2014-0012",NA,792,NA,NA,NA,"CS","Clinical Sign","CLINICAL SIGNS",NA,NA,"No abnormalities","No abnormalities",NA,NA,NA,NA,NA,NA,NA,NA,6,"2010-12-16T08:57:44",6,NA,NA,NA,NA,NA
"PDS2014","CL","PDS2014-0012",NA,793,NA,NA,NA,"CS","Clinical Sign","CLINICAL SIGNS",NA,NA,"No abnormalities","No abnormalities",NA,NA,NA,NA,NA,NA,NA,NA,13,"2010-12-23T07:29:02",13,NA,NA,NA,NA,NA
"PDS2014","CL","PDS2014-0012",NA,794,NA,NA,NA,"CS","Clinical Sign","CLINICAL SIGNS",NA,NA,"No abnormalities","No abnormalities",NA,NA,NA,NA,NA,NA,NA,NA,15,"2010-12-25T07:36:00",15,NA,NA,NA,NA,NA
"PDS2014","CL","PDS2014-0012",NA,795,NA,NA,NA,"CS","Clinical Sign","CLINICAL SIGNS",NA,NA,"No abnormalities","No abnormalities",NA,NA,NA,NA,NA,NA,NA,NA,55,"2011-02-03T11:24:42",55,NA,NA,NA,NA,NA
"PDS2014","CL","PDS2014-0012",NA,796,NA,NA,NA,"CS","Clinical Sign","CLINICAL SIGNS",NA,NA,"No abnormalities","No abnormalities",NA,NA,NA,NA,NA,NA,NA,NA,11,"2010-12-21T07:29:59",11,NA,NA,NA,NA,NA
"PDS2014","CL","PDS2014-0012",NA,797,NA,NA,NA,"CS","Clinical Sign","CLINICAL SIGNS",NA,NA,"No abnormalities","No abnormalities",NA,NA,NA,NA,NA,NA,NA,NA,16,"2010-12-26T07:11:46",16,NA,NA,NA,NA,NA
"PDS2014","CL","PDS2014-0012",NA,798,NA,NA,NA,"CS","Clinical Sign","OPHTHALMOLOGY",NA,NA,"Persistent pupillary membrane","Persistent pupillary membrane",NA,NA,NA,"Location: unilateral, Location: right",NA,NA,NA,NA,56,"2011-02-04T10:24:20",56,NA,NA,NA,NA,NA
"PDS2014","CL","PDS2014-0012",NA,799,NA,NA,NA,"CS","Clinical Sign","CLINICAL SIGNS",NA,NA,"No abnormalities","No abnormalities",NA,NA,NA,NA,NA,NA,NA,NA,28,"2011-01-07T07:27:06",28,NA,NA,NA,NA,NA
"PDS2014","CL","PDS2014-0012",NA,800,NA,NA,NA,"CS","Clinical Sign","CLINICAL SIGNS",NA,NA,"No abnormalities","No abnormalities",NA,NA,NA,NA,NA,NA,NA,NA,18,"2010-12-28T07:57:27",18,NA,NA,NA,NA,NA
"PDS2014","CL","PDS2014-0012",NA,801,NA,NA,NA,"CS","Clinical Sign","CLINICAL SIGNS",NA,NA,"No abnormalities","No abnormalities",NA,NA,NA,NA,NA,NA,NA,NA,26,"2011-01-05T10:05:01",26,NA,NA,NA,NA,NA
"PDS2014","CL","PDS2014-0012",NA,802,NA,NA,NA,"CS","Clinical Sign","CLINICAL SIGNS",NA,NA,"No abnormalities","No abnormalities",NA,NA,NA,NA,NA,NA,NA,NA,44,"2011-01-23T10:55:25",44,NA,NA,NA,NA,NA
"PDS2014","CL","PDS2014-0012",NA,803,NA,NA,NA,"CS","Clinical Sign","CLINICAL SIGNS",NA,NA,"No abnormalities","No abnormalities",NA,NA,NA,NA,NA,NA,NA,NA,46,"2011-01-25T13:04:52",46,NA,NA,NA,NA,NA
"PDS2014","CL","PDS2014-0012",NA,804,NA,NA,NA,"CS","Clinical Sign","CLINICAL SIGNS",NA,NA,"No abnormalities","No abnormalities",NA,NA,NA,NA,NA,NA,NA,NA,40,"2011-01-19T10:32:28",40,NA,NA,NA,NA,NA
"PDS2014","CL","PDS2014-0012",NA,805,NA,NA,NA,"CS","Clinical Sign","CLINICAL SIGNS",NA,NA,"No abnormalities","No abnormalities",NA,NA,NA,NA,NA,NA,NA,NA,2,"2010-12-12T10:37:40",2,NA,NA,NA,NA,NA
"PDS2014","CL","PDS2014-0012",NA,806,NA,NA,NA,"CS","Clinical Sign","CLINICAL SIGNS",NA,NA,"No abnormalities","No abnormalities",NA,NA,NA,NA,NA,NA,NA,NA,5,"2010-12-15T08:37:15",5,NA,NA,NA,NA,NA
"PDS2014","CL","PDS2014-0012",NA,807,NA,NA,NA,"CS","Clinical Sign","CLINICAL SIGNS",NA,NA,"No abnormalities","No abnormalities",NA,NA,NA,NA,NA,NA,NA,NA,1,"2010-12-11T13:13:25",1,NA,NA,NA,NA,NA
"PDS2014","CL","PDS2014-0012",NA,808,NA,NA,NA,"CS","Clinical Sign","CLINICAL SIGNS",NA,NA,"No abnormalities","No abnormalities",NA,NA,NA,NA,NA,NA,NA,NA,32,"2011-01-11T09:22:21",32,NA,NA,NA,NA,NA
"PDS2014","CL","PDS2014-0012",NA,809,NA,NA,NA,"CS","Clinical Sign","OPHTHALMOLOGY",NA,NA,"Persistent pupillary membrane","Persistent pupillary membrane",NA,NA,NA,"Location: unilateral, Location: right",NA,NA,NA,NA,-1,"2010-12-10T10:52:25",-1,NA,NA,NA,NA,NA
"PDS2014","CL","PDS2014-0012",NA,810,NA,NA,NA,"CS","Clinical Sign","CLINICAL SIGNS",NA,NA,"No abnormalities","No abnormalities",NA,NA,NA,NA,NA,NA,NA,NA,22,"2011-01-01T06:32:11",22,NA,NA,NA,NA,NA
"PDS2014","CL","PDS2014-0012",NA,811,NA,NA,NA,"CS","Clinical Sign","CLINICAL SIGNS",NA,NA,"No abnormalities","No abnormalities",NA,NA,NA,NA,NA,NA,NA,NA,15,"2010-12-25T12:59:20",15,NA,NA,NA,NA,NA
"PDS2014","CL","PDS2014-0012",NA,812,NA,NA,NA,"CS","Clinical Sign","CLINICAL SIGNS",NA,NA,"No abnormalities","No abnormalities",NA,NA,NA,NA,NA,NA,NA,NA,9,"2010-12-19T11:43:59",9,NA,NA,NA,NA,NA
"PDS2014","CL","PDS2014-0012",NA,813,NA,NA,NA,"CS","Clinical Sign","CLINICAL SIGNS",NA,NA,"No abnormalities","No abnormalities",NA,NA,NA,NA,NA,NA,NA,NA,15,"2010-12-25T08:24:08",15,NA,NA,NA,NA,NA
"PDS2014","CL","PDS2014-0012",NA,814,NA,NA,NA,"CS","Clinical Sign","CLINICAL SIGNS",NA,NA,"No abnormalities","No abnormalities",NA,NA,NA,NA,NA,NA,NA,NA,17,"2010-12-27T09:59:01",17,NA,NA,NA,NA,NA
"PDS2014","CL","PDS2014-0012",NA,815,NA,NA,NA,"CS","Clinical Sign","CLINICAL SIGNS",NA,NA,"No abnormalities","No abnormalities",NA,NA,NA,NA,NA,NA,NA,NA,41,"2011-01-20T10:31:25",41,NA,NA,NA,NA,NA
"PDS2014","CL","PDS2014-0012",NA,816,NA,NA,NA,"CS","Clinical Sign","CLINICAL SIGNS",NA,NA,"No abnormalities","No abnormalities",NA,NA,NA,NA,NA,NA,NA,NA,8,"2010-12-18T15:08:57",8,NA,NA,NA,NA,NA
"PDS2014","CL","PDS2014-0012",NA,817,NA,NA,NA,"CS","Clinical Sign","CLINICAL SIGNS",NA,NA,"No abnormalities","No abnormalities",NA,NA,NA,NA,NA,NA,NA,NA,8,"2010-12-18T09:53:45",8,NA,NA,NA,NA,NA
"PDS2014","CL","PDS2014-0012",NA,818,NA,NA,NA,"CS","Clinical Sign","CLINICAL SIGNS",NA,NA,"No abnormalities","No abnormalities",NA,NA,NA,NA,NA,NA,NA,NA,22,"2011-01-01T07:56:48",22,NA,NA,NA,NA,NA
"PDS2014","CL","PDS2014-0012",NA,819,NA,NA,NA,"CS","Clinical Sign","CLINICAL SIGNS",NA,NA,"No abnormalities","No abnormalities",NA,NA,NA,NA,NA,NA,NA,NA,38,"2011-01-17T10:32:33",38,NA,NA,NA,NA,NA
"PDS2014","CL","PDS2014-0012",NA,820,NA,NA,NA,"CS","Clinical Sign","CLINICAL SIGNS",NA,NA,"No abnormalities","No abnormalities",NA,NA,NA,NA,NA,NA,NA,NA,49,"2011-01-28T09:13:29",49,NA,NA,NA,NA,NA
"PDS2014","CL","PDS2014-0012",NA,821,NA,NA,NA,"CS","Clinical Sign","CLINICAL SIGNS",NA,NA,"No abnormalities","No abnormalities",NA,NA,NA,NA,NA,NA,NA,NA,25,"2011-01-04T08:10:54",25,NA,NA,NA,NA,NA
"PDS2014","CL","PDS2014-0012",NA,822,NA,NA,NA,"CS","Clinical Sign","CLINICAL SIGNS",NA,NA,"No abnormalities","No abnormalities",NA,NA,NA,NA,NA,NA,NA,NA,8,"2010-12-18T07:52:06",8,NA,NA,NA,NA,NA
"PDS2014","CL","PDS2014-0012",NA,823,NA,NA,NA,"CS","Clinical Sign","CLINICAL SIGNS",NA,NA,"No abnormalities","No abnormalities",NA,NA,NA,NA,NA,NA,NA,NA,39,"2011-01-18T09:25:31",39,NA,NA,NA,NA,NA
"PDS2014","CL","PDS2014-0012",NA,824,NA,NA,NA,"CS","Clinical Sign","CLINICAL SIGNS",NA,NA,"No abnormalities","No abnormalities",NA,NA,NA,NA,NA,NA,NA,NA,22,"2011-01-01T07:25:58",22,NA,NA,NA,NA,NA
"PDS2014","CL","PDS2014-0012",NA,825,NA,NA,NA,"CS","Clinical Sign","CLINICAL SIGNS",NA,NA,"No abnormalities","No abnormalities",NA,NA,NA,NA,NA,NA,NA,NA,26,"2011-01-05T08:08:11",26,NA,NA,NA,NA,NA
"PDS2014","CL","PDS2014-0012",NA,826,NA,NA,NA,"CS","Clinical Sign","CLINICAL SIGNS",NA,NA,"No abnormalities","No abnormalities",NA,NA,NA,NA,NA,NA,NA,NA,25,"2011-01-04T15:26:10",25,NA,NA,NA,NA,NA
"PDS2014","CL","PDS2014-0012",NA,827,NA,NA,NA,"CS","Clinical Sign","CLINICAL SIGNS",NA,NA,"No abnormalities","No abnormalities",NA,NA,NA,NA,NA,NA,NA,NA,29,"2011-01-08T07:19:14",29,NA,NA,NA,NA,NA
"PDS2014","CL","PDS2014-0012",NA,828,NA,NA,NA,"CS","Clinical Sign","CLINICAL SIGNS",NA,NA,"No abnormalities","No abnormalities",NA,NA,NA,NA,NA,NA,NA,NA,1,"2010-12-11T09:53:38",1,NA,NA,NA,NA,NA
"PDS2014","CL","PDS2014-0012",NA,829,NA,NA,NA,"CS","Clinical Sign","CLINICAL SIGNS",NA,NA,"No abnormalities","No abnormalities",NA,NA,NA,NA,NA,NA,NA,NA,1,"2010-12-11T09:53:39",1,NA,NA,NA,NA,NA
"PDS2014","CL","PDS2014-0012",NA,830,NA,NA,NA,"CS","Clinical Sign","CLINICAL SIGNS",NA,NA,"No abnormalities","No abnormalities",NA,NA,NA,NA,NA,NA,NA,NA,3,"2010-12-13T11:14:24",3,NA,NA,NA,NA,NA
"PDS2014","CL","PDS2014-0012",NA,831,NA,NA,NA,"CS","Clinical Sign","CLINICAL SIGNS",NA,NA,"No abnormalities","No abnormalities",NA,NA,NA,NA,NA,NA,NA,NA,52,"2011-01-31T07:40:30",52,NA,NA,NA,NA,NA
"PDS2014","CL","PDS2014-0012",NA,832,NA,NA,NA,"CS","Clinical Sign","CLINICAL SIGNS",NA,NA,"No abnormalities","No abnormalities",NA,NA,NA,NA,NA,NA,NA,NA,58,"2011-02-06T07:45:30",58,NA,NA,NA,NA,NA
"PDS2014","CL","PDS2014-0012",NA,833,NA,NA,NA,"CS","Clinical Sign","CLINICAL SIGNS",NA,NA,"No abnormalities","No abnormalities",NA,NA,NA,NA,NA,NA,NA,NA,23,"2011-01-02T08:17:56",23,NA,NA,NA,NA,NA
"PDS2014","CL","PDS2014-0012",NA,834,NA,NA,NA,"CS","Clinical Sign","CLINICAL SIGNS",NA,NA,"No abnormalities","No abnormalities",NA,NA,NA,NA,NA,NA,NA,NA,15,"2010-12-25T07:18:27",15,NA,NA,NA,NA,NA
"PDS2014","CL","PDS2014-0012",NA,835,NA,NA,NA,"CS","Clinical Sign","CLINICAL SIGNS",NA,NA,"No abnormalities","No abnormalities",NA,NA,NA,NA,NA,NA,NA,NA,22,"2011-01-01T11:37:26",22,NA,NA,NA,NA,NA
"PDS2014","CL","PDS2014-0012",NA,836,NA,NA,NA,"CS","Clinical Sign","CLINICAL SIGNS",NA,NA,"No abnormalities","No abnormalities",NA,NA,NA,NA,NA,NA,NA,NA,25,"2011-01-04T09:53:12",25,NA,NA,NA,NA,NA
"PDS2014","CL","PDS2014-0012",NA,837,NA,NA,NA,"CS","Clinical Sign","CLINICAL SIGNS",NA,NA,"No abnormalities","No abnormalities",NA,NA,NA,NA,NA,NA,NA,NA,22,"2011-01-01T08:25:39",22,NA,NA,NA,NA,NA
"PDS2014","CL","PDS2014-0012",NA,838,NA,NA,NA,"CS","Clinical Sign","CLINICAL SIGNS",NA,NA,"No abnormalities","No abnormalities",NA,NA,NA,NA,NA,NA,NA,NA,35,"2011-01-14T11:25:51",35,NA,NA,NA,NA,NA
"PDS2014","CL","PDS2014-0012",NA,839,NA,NA,NA,"CS","Clinical Sign","CLINICAL SIGNS",NA,NA,"No abnormalities","No abnormalities",NA,NA,NA,NA,NA,NA,NA,NA,4,"2010-12-14T09:56:20",4,NA,NA,NA,NA,NA
"PDS2014","CL","PDS2014-0012",NA,840,NA,NA,NA,"CS","Clinical Sign","CLINICAL SIGNS",NA,NA,"No abnormalities","No abnormalities",NA,NA,NA,NA,NA,NA,NA,NA,8,"2010-12-18T09:05:50",8,NA,NA,NA,NA,NA
"PDS2014","CL","PDS2014-0012",NA,841,NA,NA,NA,"CS","Clinical Sign","CLINICAL SIGNS",NA,NA,"No abnormalities","No abnormalities",NA,NA,NA,NA,NA,NA,NA,NA,47,"2011-01-26T09:10:32",47,NA,NA,NA,NA,NA
"PDS2014","CL","PDS2014-0012",NA,842,NA,NA,NA,"CS","Clinical Sign","CLINICAL SIGNS",NA,NA,"No abnormalities","No abnormalities",NA,NA,NA,NA,NA,NA,NA,NA,20,"2010-12-30T08:08:39",20,NA,NA,NA,NA,NA
"PDS2014","CL","PDS2014-0012",NA,843,NA,NA,NA,"CS","Clinical Sign","CLINICAL SIGNS",NA,NA,"No abnormalities","No abnormalities",NA,NA,NA,NA,NA,NA,NA,NA,48,"2011-01-27T07:54:40",48,NA,NA,NA,NA,NA
"PDS2014","CL","PDS2014-0012",NA,844,NA,NA,NA,"CS","Clinical Sign","CLINICAL SIGNS",NA,NA,"No abnormalities","No abnormalities",NA,NA,NA,NA,NA,NA,NA,NA,9,"2010-12-19T08:07:39",9,NA,NA,NA,NA,NA
"PDS2014","CL","PDS2014-0012",NA,845,NA,NA,NA,"CS","Clinical Sign","CLINICAL SIGNS",NA,NA,"No abnormalities","No abnormalities",NA,NA,NA,NA,NA,NA,NA,NA,45,"2011-01-24T07:44:58",45,NA,NA,NA,NA,NA
"PDS2014","CL","PDS2014-0012",NA,846,NA,NA,NA,"CS","Clinical Sign","CLINICAL SIGNS",NA,NA,"No abnormalities","No abnormalities",NA,NA,NA,NA,NA,NA,NA,NA,30,"2011-01-09T10:54:51",30,NA,NA,NA,NA,NA
"PDS2014","CL","PDS2014-0012",NA,847,NA,NA,NA,"CS","Clinical Sign","CLINICAL SIGNS",NA,NA,"No abnormalities","No abnormalities",NA,NA,NA,NA,NA,NA,NA,NA,15,"2010-12-25T11:16:05",15,NA,NA,NA,NA,NA
"PDS2014","CL","PDS2014-0012",NA,848,NA,NA,NA,"CS","Clinical Sign","OPHTHALMOLOGY",NA,NA,"Persistent pupillary membrane","Persistent pupillary membrane",NA,NA,NA,"Location: unilateral, Location: right",NA,NA,NA,NA,28,"2011-01-07T10:52:17",28,NA,NA,NA,NA,NA
"PDS2014","CL","PDS2014-0012",NA,849,NA,NA,NA,"CS","Clinical Sign","CLINICAL SIGNS",NA,NA,"No abnormalities","No abnormalities",NA,NA,NA,NA,NA,NA,NA,NA,57,"2011-02-05T07:43:14",57,NA,NA,NA,NA,NA
"PDS2014","CL","PDS2014-0012",NA,850,NA,NA,NA,"CS","Clinical Sign","CLINICAL SIGNS",NA,NA,"No abnormalities","No abnormalities",NA,NA,NA,NA,NA,NA,NA,NA,37,"2011-01-16T07:36:16",37,NA,NA,NA,NA,NA
"PDS2014","CL","PDS2014-0012",NA,851,NA,NA,NA,"CS","Clinical Sign","CLINICAL SIGNS",NA,NA,"No abnormalities","No abnormalities",NA,NA,NA,NA,NA,NA,NA,NA,36,"2011-01-15T10:29:22",36,NA,NA,NA,NA,NA
"PDS2014","CL","PDS2014-0012",NA,852,NA,NA,NA,"CS","Clinical Sign","CLINICAL SIGNS",NA,NA,"No abnormalities","No abnormalities",NA,NA,NA,NA,NA,NA,NA,NA,53,"2011-02-01T09:46:44",53,NA,NA,NA,NA,NA
"PDS2014","CL","PDS2014-0012",NA,853,NA,NA,NA,"CS","Clinical Sign","CLINICAL SIGNS",NA,NA,"No abnormalities","No abnormalities",NA,NA,NA,NA,NA,NA,NA,NA,8,"2010-12-18T08:11:23",8,NA,NA,NA,NA,NA
"PDS2014","CL","PDS2014-0012",NA,854,NA,NA,NA,"CS","Clinical Sign","CLINICAL SIGNS",NA,NA,"No abnormalities","No abnormalities",NA,NA,NA,NA,NA,NA,NA,NA,25,"2011-01-04T08:27:13",25,NA,NA,NA,NA,NA
"PDS2014","CL","PDS2014-0012",NA,855,NA,NA,NA,"CS","Clinical Sign","CLINICAL SIGNS",NA,NA,"No abnormalities","No abnormalities",NA,NA,NA,NA,NA,NA,NA,NA,19,"2010-12-29T09:34:46",19,NA,NA,NA,NA,NA
"PDS2014","CL","PDS2014-0012",NA,856,NA,NA,NA,"CS","Clinical Sign","CLINICAL SIGNS",NA,NA,"No abnormalities","No abnormalities",NA,NA,NA,NA,NA,NA,NA,NA,54,"2011-02-02T10:51:18",54,NA,NA,NA,NA,NA
"PDS2014","CL","PDS2014-0012",NA,857,NA,NA,NA,"CS","Clinical Sign","CLINICAL SIGNS",NA,NA,"No abnormalities","No abnormalities",NA,NA,NA,NA,NA,NA,NA,NA,23,"2011-01-02T06:29:04",23,NA,NA,NA,NA,NA
"PDS2014","CL","PDS2014-0012",NA,858,NA,NA,NA,"CS","Clinical Sign","CLINICAL SIGNS",NA,NA,"No abnormalities","No abnormalities",NA,NA,NA,NA,NA,NA,NA,NA,31,"2011-01-10T09:45:07",31,NA,NA,NA,NA,NA
"PDS2014","CL","PDS2014-0012",NA,859,NA,NA,NA,"CS","Clinical Sign","CLINICAL SIGNS",NA,NA,"No abnormalities","No abnormalities",NA,NA,NA,NA,NA,NA,NA,NA,16,"2010-12-26T06:59:23",16,NA,NA,NA,NA,NA
"PDS2014","CL","PDS2014-0012",NA,860,NA,NA,NA,"CS","Clinical Sign","CLINICAL SIGNS",NA,NA,"No abnormalities","No abnormalities",NA,NA,NA,NA,NA,NA,NA,NA,12,"2010-12-22T08:09:19",12,NA,NA,NA,NA,NA
"PDS2014","CL","PDS2014-0012",NA,861,NA,NA,NA,"CS","Clinical Sign","CLINICAL SIGNS",NA,NA,"No abnormalities","No abnormalities",NA,NA,NA,NA,NA,NA,NA,NA,50,"2011-01-29T07:51:35",50,NA,NA,NA,NA,NA
"PDS2014","CL","PDS2014-0012",NA,862,NA,NA,NA,"CS","Clinical Sign","CLINICAL SIGNS",NA,NA,"No abnormalities","No abnormalities",NA,NA,NA,NA,NA,NA,NA,NA,14,"2010-12-24T07:59:18",14,NA,NA,NA,NA,NA
"PDS2014","CL","PDS2014-0012",NA,863,NA,NA,NA,"CS","Clinical Sign","CLINICAL SIGNS",NA,NA,"No abnormalities","No abnormalities",NA,NA,NA,NA,NA,NA,NA,NA,15,"2010-12-25T10:38:59",15,NA,NA,NA,NA,NA
"PDS2014","CL","PDS2014-0012",NA,864,NA,NA,NA,"CS","Clinical Sign","CLINICAL SIGNS",NA,NA,"No abnormalities","No abnormalities",NA,NA,NA,NA,NA,NA,NA,NA,43,"2011-01-22T07:40:57",43,NA,NA,NA,NA,NA
"PDS2014","CL","PDS2014-0012",NA,865,NA,NA,NA,"CS","Clinical Sign","CLINICAL SIGNS",NA,NA,"No abnormalities","No abnormalities",NA,NA,NA,NA,NA,NA,NA,NA,24,"2011-01-03T08:36:36",24,NA,NA,NA,NA,NA
"PDS2014","CL","PDS2014-0012",NA,866,NA,NA,NA,"CS","Clinical Sign","CLINICAL SIGNS",NA,NA,"No abnormalities","No abnormalities",NA,NA,NA,NA,NA,NA,NA,NA,25,"2011-01-04T08:29:35",25,NA,NA,NA,NA,NA
"PDS2014","CL","PDS2014-0012",NA,867,NA,NA,NA,"CS","Clinical Sign","CLINICAL SIGNS",NA,NA,"No abnormalities","No abnormalities",NA,NA,NA,NA,NA,NA,NA,NA,1,"2010-12-11T15:11:14",1,NA,NA,NA,NA,NA
"PDS2014","CL","PDS2014-0012",NA,868,NA,NA,NA,"CS","Clinical Sign","CLINICAL SIGNS",NA,NA,"No abnormalities","No abnormalities",NA,NA,NA,NA,NA,NA,NA,NA,56,"2011-02-04T07:09:36",56,NA,NA,NA,NA,NA
"PDS2014","CL","PDS2014-0012",NA,869,NA,NA,NA,"CS","Clinical Sign","CLINICAL SIGNS",NA,NA,"No abnormalities","No abnormalities",NA,NA,NA,NA,NA,NA,NA,NA,8,"2010-12-18T11:44:47",8,NA,NA,NA,NA,NA
"PDS2014","CL","PDS2014-0012",NA,870,NA,NA,NA,"CS","Clinical Sign","CLINICAL SIGNS",NA,NA,"No abnormalities","No abnormalities",NA,NA,NA,NA,NA,NA,NA,NA,27,"2011-01-06T08:56:42",27,NA,NA,NA,NA,NA
"PDS2014","CL","PDS2014-0012",NA,871,NA,NA,NA,"CS","Clinical Sign","CLINICAL SIGNS",NA,NA,"No abnormalities","No abnormalities",NA,NA,NA,NA,NA,NA,NA,NA,8,"2010-12-18T08:14:27",8,NA,NA,NA,NA,NA
"PDS2014","CL","PDS2014-0012",NA,872,NA,NA,NA,"CS","Clinical Sign","CLINICAL SIGNS",NA,NA,"No abnormalities","No abnormalities",NA,NA,NA,NA,NA,NA,NA,NA,1,"2010-12-11T13:09:50",1,NA,NA,NA,NA,NA
"PDS2014","CL","PDS2014-0012",NA,873,NA,NA,NA,"CS","Clinical Sign","CLINICAL SIGNS",NA,NA,"No abnormalities","No abnormalities",NA,NA,NA,NA,NA,NA,NA,NA,1,"2010-12-11T11:18:24",1,NA,NA,NA,NA,NA
"PDS2014","CL","PDS2014-0012",NA,874,NA,NA,NA,"CS","Clinical Sign","CLINICAL SIGNS",NA,NA,"No abnormalities","No abnormalities",NA,NA,NA,NA,NA,NA,NA,NA,15,"2010-12-25T09:02:25",15,NA,NA,NA,NA,NA
"PDS2014","CL","PDS2014-0012",NA,875,NA,NA,NA,"CS","Clinical Sign","CLINICAL SIGNS",NA,NA,"No abnormalities","No abnormalities",NA,NA,NA,NA,NA,NA,NA,NA,22,"2011-01-01T06:43:47",22,NA,NA,NA,NA,NA
"PDS2014","CL","PDS2014-0013",NA,876,NA,NA,NA,"CS","Clinical Sign","CLINICAL SIGNS",NA,NA,"No abnormalities","No abnormalities",NA,NA,NA,NA,NA,NA,NA,NA,15,"2010-12-25T11:16:05",15,NA,NA,NA,NA,NA
"PDS2014","CL","PDS2014-0013",NA,877,NA,NA,NA,"CS","Clinical Sign","CLINICAL SIGNS",NA,NA,"No abnormalities","No abnormalities",NA,NA,NA,NA,NA,NA,NA,NA,8,"2010-12-18T11:44:47",8,NA,NA,NA,NA,NA
"PDS2014","CL","PDS2014-0013",NA,878,NA,NA,NA,"CS","Clinical Sign","CLINICAL SIGNS",NA,NA,"No abnormalities","No abnormalities",NA,NA,NA,NA,NA,NA,NA,NA,3,"2010-12-13T11:14:24",3,NA,NA,NA,NA,NA
"PDS2014","CL","PDS2014-0013",NA,879,NA,NA,NA,"CS","Clinical Sign","CLINICAL SIGNS",NA,NA,"No abnormalities","No abnormalities",NA,NA,NA,NA,NA,NA,NA,NA,1,"2010-12-11T15:11:14",1,NA,NA,NA,NA,NA
"PDS2014","CL","PDS2014-0013",NA,880,NA,NA,NA,"CS","Clinical Sign","CLINICAL SIGNS",NA,NA,"No abnormalities","No abnormalities",NA,NA,NA,NA,NA,NA,NA,NA,25,"2011-01-04T11:33:45",25,NA,NA,NA,NA,NA
"PDS2014","CL","PDS2014-0013",NA,881,NA,NA,NA,"CS","Clinical Sign","CLINICAL SIGNS",NA,NA,"No abnormalities","No abnormalities",NA,NA,NA,NA,NA,NA,NA,NA,25,"2011-01-04T09:53:12",25,NA,NA,NA,NA,NA
"PDS2014","CL","PDS2014-0013",NA,882,NA,NA,NA,"CS","Clinical Sign","CLINICAL SIGNS",NA,NA,"No abnormalities","No abnormalities",NA,NA,NA,NA,NA,NA,NA,NA,22,"2011-01-01T08:25:39",22,NA,NA,NA,NA,NA
"PDS2014","CL","PDS2014-0013",NA,883,NA,NA,NA,"CS","Clinical Sign","CLINICAL SIGNS",NA,NA,"No abnormalities","No abnormalities",NA,NA,NA,NA,NA,NA,NA,NA,52,"2011-01-31T07:40:30",52,NA,NA,NA,NA,NA
"PDS2014","CL","PDS2014-0013",NA,884,NA,NA,NA,"CS","Clinical Sign","CLINICAL SIGNS",NA,NA,"No abnormalities","No abnormalities",NA,NA,NA,NA,NA,NA,NA,NA,10,"2010-12-20T11:00:10",10,NA,NA,NA,NA,NA
"PDS2014","CL","PDS2014-0013",NA,885,NA,NA,NA,"CS","Clinical Sign","CLINICAL SIGNS",NA,NA,"No abnormalities","No abnormalities",NA,NA,NA,NA,NA,NA,NA,NA,25,"2011-01-04T15:26:10",25,NA,NA,NA,NA,NA
"PDS2014","CL","PDS2014-0013",NA,886,NA,NA,NA,"CS","Clinical Sign","CLINICAL SIGNS",NA,NA,"No abnormalities","No abnormalities",NA,NA,NA,NA,NA,NA,NA,NA,22,"2011-01-01T10:04:22",22,NA,NA,NA,NA,NA
"PDS2014","CL","PDS2014-0013",NA,887,NA,NA,NA,"CS","Clinical Sign","CLINICAL SIGNS",NA,NA,"No abnormalities","No abnormalities",NA,NA,NA,NA,NA,NA,NA,NA,1,"2010-12-11T09:17:21",1,NA,NA,NA,NA,NA
"PDS2014","CL","PDS2014-0013",NA,888,NA,NA,NA,"CS","Clinical Sign","CLINICAL SIGNS",NA,NA,"No abnormalities","No abnormalities",NA,NA,NA,NA,NA,NA,NA,NA,23,"2011-01-02T08:17:56",23,NA,NA,NA,NA,NA
"PDS2014","CL","PDS2014-0013",NA,889,NA,NA,NA,"CS","Clinical Sign","CLINICAL SIGNS",NA,NA,"No abnormalities","No abnormalities",NA,NA,NA,NA,NA,NA,NA,NA,25,"2011-01-04T08:38:48",25,NA,NA,NA,NA,NA
"PDS2014","CL","PDS2014-0013",NA,890,NA,NA,NA,"CS","Clinical Sign","CLINICAL SIGNS",NA,NA,"No abnormalities","No abnormalities",NA,NA,NA,NA,NA,NA,NA,NA,33,"2011-01-12T09:57:39",33,NA,NA,NA,NA,NA
"PDS2014","CL","PDS2014-0013",NA,891,NA,NA,NA,"CS","Clinical Sign","CLINICAL SIGNS",NA,NA,"No abnormalities","No abnormalities",NA,NA,NA,NA,NA,NA,NA,NA,42,"2011-01-21T08:42:05",42,NA,NA,NA,NA,NA
"PDS2014","CL","PDS2014-0013",NA,892,NA,NA,NA,"CS","Clinical Sign","CLINICAL SIGNS",NA,NA,"No abnormalities","No abnormalities",NA,NA,NA,NA,NA,NA,NA,NA,35,"2011-01-14T11:25:51",35,NA,NA,NA,NA,NA
"PDS2014","CL","PDS2014-0013",NA,893,NA,NA,NA,"CS","Clinical Sign","CLINICAL SIGNS",NA,NA,"No abnormalities","No abnormalities",NA,NA,NA,NA,NA,NA,NA,NA,4,"2010-12-14T09:56:20",4,NA,NA,NA,NA,NA
"PDS2014","CL","PDS2014-0013",NA,894,NA,NA,NA,"CS","Clinical Sign","CLINICAL SIGNS",NA,NA,"No abnormalities","No abnormalities",NA,NA,NA,NA,NA,NA,NA,NA,29,"2011-01-08T07:17:44",29,NA,NA,NA,NA,NA
"PDS2014","CL","PDS2014-0013",NA,895,NA,NA,NA,"CS","Clinical Sign","CLINICAL SIGNS",NA,NA,"No abnormalities","No abnormalities",NA,NA,NA,NA,NA,NA,NA,NA,1,"2010-12-11T09:34:38",1,NA,NA,NA,NA,NA
"PDS2014","CL","PDS2014-0013",NA,896,NA,NA,NA,"CS","Clinical Sign","CLINICAL SIGNS",NA,NA,"No abnormalities","No abnormalities",NA,NA,NA,NA,NA,NA,NA,NA,22,"2011-01-01T07:56:48",22,NA,NA,NA,NA,NA
"PDS2014","CL","PDS2014-0013",NA,897,NA,NA,NA,"CS","Clinical Sign","CLINICAL SIGNS",NA,NA,"No abnormalities","No abnormalities",NA,NA,NA,NA,NA,NA,NA,NA,48,"2011-01-27T07:54:40",48,NA,NA,NA,NA,NA
"PDS2014","CL","PDS2014-0013",NA,898,NA,NA,NA,"CS","Clinical Sign","CLINICAL SIGNS",NA,NA,"No abnormalities","No abnormalities",NA,NA,NA,NA,NA,NA,NA,NA,51,"2011-01-30T10:59:02",51,NA,NA,NA,NA,NA
"PDS2014","CL","PDS2014-0013",NA,899,NA,NA,NA,"CS","Clinical Sign","CLINICAL SIGNS",NA,NA,"No abnormalities","No abnormalities",NA,NA,NA,NA,NA,NA,NA,NA,20,"2010-12-30T08:08:39",20,NA,NA,NA,NA,NA
"PDS2014","CL","PDS2014-0013",NA,900,NA,NA,NA,"CS","Clinical Sign","CLINICAL SIGNS",NA,NA,"No abnormalities","No abnormalities",NA,NA,NA,NA,NA,NA,NA,NA,47,"2011-01-26T09:10:32",47,NA,NA,NA,NA,NA
"PDS2014","CL","PDS2014-0013",NA,901,NA,NA,NA,"CS","Clinical Sign","CLINICAL SIGNS",NA,NA,"No abnormalities","No abnormalities",NA,NA,NA,NA,NA,NA,NA,NA,23,"2011-01-02T06:29:04",23,NA,NA,NA,NA,NA
"PDS2014","CL","PDS2014-0013",NA,902,NA,NA,NA,"CS","Clinical Sign","CLINICAL SIGNS",NA,NA,"No abnormalities","No abnormalities",NA,NA,NA,NA,NA,NA,NA,NA,34,"2011-01-13T09:28:31",34,NA,NA,NA,NA,NA
"PDS2014","CL","PDS2014-0013",NA,903,NA,NA,NA,"CS","Clinical Sign","CLINICAL SIGNS",NA,NA,"No abnormalities","No abnormalities",NA,NA,NA,NA,NA,NA,NA,NA,21,"2010-12-31T08:53:05",21,NA,NA,NA,NA,NA
"PDS2014","CL","PDS2014-0013",NA,904,NA,NA,NA,"CS","Clinical Sign","CLINICAL SIGNS",NA,NA,"No abnormalities","No abnormalities",NA,NA,NA,NA,NA,NA,NA,NA,6,"2010-12-16T08:57:44",6,NA,NA,NA,NA,NA
"PDS2014","CL","PDS2014-0013",NA,905,NA,NA,NA,"CS","Clinical Sign","CLINICAL SIGNS",NA,NA,"No abnormalities","No abnormalities",NA,NA,NA,NA,NA,NA,NA,NA,15,"2010-12-25T12:59:20",15,NA,NA,NA,NA,NA
"PDS2014","CL","PDS2014-0013",NA,906,NA,NA,NA,"CS","Clinical Sign","CLINICAL SIGNS",NA,NA,"No abnormalities","No abnormalities",NA,NA,NA,NA,NA,NA,NA,NA,2,"2010-12-12T09:12:57",2,NA,NA,NA,NA,NA
"PDS2014","CL","PDS2014-0013",NA,907,NA,NA,NA,"CS","Clinical Sign","CLINICAL SIGNS",NA,NA,"No abnormalities","No abnormalities",NA,NA,NA,NA,NA,NA,NA,NA,13,"2010-12-23T07:29:02",13,NA,NA,NA,NA,NA
"PDS2014","CL","PDS2014-0013",NA,908,NA,NA,NA,"CS","Clinical Sign","CLINICAL SIGNS",NA,NA,"No abnormalities","No abnormalities",NA,NA,NA,NA,NA,NA,NA,NA,45,"2011-01-24T07:44:58",45,NA,NA,NA,NA,NA
"PDS2014","CL","PDS2014-0013",NA,909,NA,NA,NA,"CS","Clinical Sign","OPHTHALMOLOGY",NA,NA,"Cataract","Cataract",NA,NA,NA,"Location: unilateral, Location: right, Focal/diffuse: focal, Depth: anterior, Position: 12h",NA,NA,NA,NA,28,"2011-01-07T10:54:02",28,NA,NA,NA,NA,NA
"PDS2014","CL","PDS2014-0013",NA,910,NA,NA,NA,"CS","Clinical Sign","CLINICAL SIGNS",NA,NA,"No abnormalities","No abnormalities",NA,NA,NA,NA,NA,NA,NA,NA,37,"2011-01-16T07:36:16",37,NA,NA,NA,NA,NA
"PDS2014","CL","PDS2014-0013",NA,911,NA,NA,NA,"CS","Clinical Sign","CLINICAL SIGNS",NA,NA,"No abnormalities","No abnormalities",NA,NA,NA,NA,NA,NA,NA,NA,30,"2011-01-09T10:54:51",30,NA,NA,NA,NA,NA
"PDS2014","CL","PDS2014-0013",NA,912,NA,NA,NA,"CS","Clinical Sign","CLINICAL SIGNS",NA,NA,"No abnormalities","No abnormalities",NA,NA,NA,NA,NA,NA,NA,NA,55,"2011-02-03T11:24:42",55,NA,NA,NA,NA,NA
"PDS2014","CL","PDS2014-0013",NA,913,NA,NA,NA,"CS","Clinical Sign","CLINICAL SIGNS",NA,NA,"No abnormalities","No abnormalities",NA,NA,NA,NA,NA,NA,NA,NA,57,"2011-02-05T07:42:30",57,NA,NA,NA,NA,NA
"PDS2014","CL","PDS2014-0013",NA,914,NA,NA,NA,"CS","Clinical Sign","CLINICAL SIGNS",NA,NA,"No abnormalities","No abnormalities",NA,NA,NA,NA,NA,NA,NA,NA,15,"2010-12-25T07:37:24",15,NA,NA,NA,NA,NA
"PDS2014","CL","PDS2014-0013",NA,915,NA,NA,NA,"CS","Clinical Sign","CLINICAL SIGNS",NA,NA,"No abnormalities","No abnormalities",NA,NA,NA,NA,NA,NA,NA,NA,58,"2011-02-06T07:46:36",58,NA,NA,NA,NA,NA
"PDS2014","CL","PDS2014-0013",NA,916,NA,NA,NA,"CS","Clinical Sign","CLINICAL SIGNS",NA,NA,"No abnormalities","No abnormalities",NA,NA,NA,NA,NA,NA,NA,NA,16,"2010-12-26T06:59:23",16,NA,NA,NA,NA,NA
"PDS2014","CL","PDS2014-0013",NA,917,NA,NA,NA,"CS","Clinical Sign","CLINICAL SIGNS",NA,NA,"No abnormalities","No abnormalities",NA,NA,NA,NA,NA,NA,NA,NA,9,"2010-12-19T08:07:39",9,NA,NA,NA,NA,NA
"PDS2014","CL","PDS2014-0013",NA,918,NA,NA,NA,"CS","Clinical Sign","CLINICAL SIGNS",NA,NA,"No abnormalities","No abnormalities",NA,NA,NA,NA,NA,NA,NA,NA,15,"2010-12-25T07:18:27",15,NA,NA,NA,NA,NA
"PDS2014","CL","PDS2014-0013",NA,919,NA,NA,NA,"CS","Clinical Sign","CLINICAL SIGNS",NA,NA,"No abnormalities","No abnormalities",NA,NA,NA,NA,NA,NA,NA,NA,11,"2010-12-21T07:29:59",11,NA,NA,NA,NA,NA
"PDS2014","CL","PDS2014-0013",NA,920,NA,NA,NA,"CS","Clinical Sign","CLINICAL SIGNS",NA,NA,"No abnormalities","No abnormalities",NA,NA,NA,NA,NA,NA,NA,NA,7,"2010-12-17T08:06:21",7,NA,NA,NA,NA,NA
"PDS2014","CL","PDS2014-0013",NA,921,NA,NA,NA,"CS","Clinical Sign","CLINICAL SIGNS",NA,NA,"No abnormalities","No abnormalities",NA,NA,NA,NA,NA,NA,NA,NA,28,"2011-01-07T07:27:06",28,NA,NA,NA,NA,NA
"PDS2014","CL","PDS2014-0013",NA,922,NA,NA,NA,"CS","Clinical Sign","CLINICAL SIGNS",NA,NA,"No abnormalities","No abnormalities",NA,NA,NA,NA,NA,NA,NA,NA,18,"2010-12-28T07:57:27",18,NA,NA,NA,NA,NA
"PDS2014","CL","PDS2014-0013",NA,923,NA,NA,NA,"CS","Clinical Sign","CLINICAL SIGNS",NA,NA,"No abnormalities","No abnormalities",NA,NA,NA,NA,NA,NA,NA,NA,8,"2010-12-18T08:12:23",8,NA,NA,NA,NA,NA
"PDS2014","CL","PDS2014-0013",NA,924,NA,NA,NA,"CS","Clinical Sign","CLINICAL SIGNS",NA,NA,"No abnormalities","No abnormalities",NA,NA,NA,NA,NA,NA,NA,NA,53,"2011-02-01T09:46:44",53,NA,NA,NA,NA,NA
"PDS2014","CL","PDS2014-0013",NA,925,NA,NA,NA,"CS","Clinical Sign","CLINICAL SIGNS",NA,NA,"No abnormalities","No abnormalities",NA,NA,NA,NA,NA,NA,NA,NA,16,"2010-12-26T07:12:50",16,NA,NA,NA,NA,NA
"PDS2014","CL","PDS2014-0013",NA,926,NA,NA,NA,"CS","Clinical Sign","OPHTHALMOLOGY",NA,NA,"Cataract","Cataract",NA,NA,NA,"Location: unilateral, Location: right, Focal/diffuse: focal, Depth: anterior, Position: 12h",NA,NA,NA,NA,56,"2011-02-04T10:23:24",56,NA,NA,NA,NA,NA
"PDS2014","CL","PDS2014-0013",NA,927,NA,NA,NA,"CS","Clinical Sign","CLINICAL SIGNS",NA,NA,"No abnormalities","No abnormalities",NA,NA,NA,NA,NA,NA,NA,NA,36,"2011-01-15T10:29:22",36,NA,NA,NA,NA,NA
"PDS2014","CL","PDS2014-0013",NA,928,NA,NA,NA,"CS","Clinical Sign","CLINICAL SIGNS",NA,NA,"No abnormalities","No abnormalities",NA,NA,NA,NA,NA,NA,NA,NA,44,"2011-01-23T10:55:25",44,NA,NA,NA,NA,NA
"PDS2014","CL","PDS2014-0013",NA,929,NA,NA,NA,"CS","Clinical Sign","CLINICAL SIGNS",NA,NA,"No abnormalities","No abnormalities",NA,NA,NA,NA,NA,NA,NA,NA,2,"2010-12-12T10:37:40",2,NA,NA,NA,NA,NA
"PDS2014","CL","PDS2014-0013",NA,930,NA,NA,NA,"CS","Clinical Sign","CLINICAL SIGNS",NA,NA,"No abnormalities","No abnormalities",NA,NA,NA,NA,NA,NA,NA,NA,54,"2011-02-02T10:51:18",54,NA,NA,NA,NA,NA
"PDS2014","CL","PDS2014-0013",NA,931,NA,NA,NA,"CS","Clinical Sign","CLINICAL SIGNS",NA,NA,"No abnormalities","No abnormalities",NA,NA,NA,NA,NA,NA,NA,NA,22,"2011-01-01T06:32:11",22,NA,NA,NA,NA,NA
"PDS2014","CL","PDS2014-0013",NA,932,NA,NA,NA,"CS","Clinical Sign","CLINICAL SIGNS",NA,NA,"No abnormalities","No abnormalities",NA,NA,NA,NA,NA,NA,NA,NA,22,"2011-01-01T07:25:58",22,NA,NA,NA,NA,NA
"PDS2014","CL","PDS2014-0013",NA,933,NA,NA,NA,"CS","Clinical Sign","CLINICAL SIGNS",NA,NA,"No abnormalities","No abnormalities",NA,NA,NA,NA,NA,NA,NA,NA,31,"2011-01-10T09:39:56",31,NA,NA,NA,NA,NA
"PDS2014","CL","PDS2014-0013",NA,934,NA,NA,NA,"CS","Clinical Sign","CLINICAL SIGNS",NA,NA,"No abnormalities","No abnormalities",NA,NA,NA,NA,NA,NA,NA,NA,25,"2011-01-04T08:27:35",25,NA,NA,NA,NA,NA
"PDS2014","CL","PDS2014-0013",NA,935,NA,NA,NA,"CS","Clinical Sign","CLINICAL SIGNS",NA,NA,"No abnormalities","No abnormalities",NA,NA,NA,NA,NA,NA,NA,NA,12,"2010-12-22T08:09:19",12,NA,NA,NA,NA,NA
"PDS2014","CL","PDS2014-0013",NA,936,NA,NA,NA,"CS","Clinical Sign","CLINICAL SIGNS",NA,NA,"No abnormalities","No abnormalities",NA,NA,NA,NA,NA,NA,NA,NA,40,"2011-01-19T10:32:28",40,NA,NA,NA,NA,NA
"PDS2014","CL","PDS2014-0013",NA,937,NA,NA,NA,"CS","Clinical Sign","CLINICAL SIGNS",NA,NA,"No abnormalities","No abnormalities",NA,NA,NA,NA,NA,NA,NA,NA,26,"2011-01-05T10:05:01",26,NA,NA,NA,NA,NA
"PDS2014","CL","PDS2014-0013",NA,938,NA,NA,NA,"CS","Clinical Sign","CLINICAL SIGNS",NA,NA,"No abnormalities","No abnormalities",NA,NA,NA,NA,NA,NA,NA,NA,49,"2011-01-28T09:13:29",49,NA,NA,NA,NA,NA
"PDS2014","CL","PDS2014-0013",NA,939,NA,NA,NA,"CS","Clinical Sign","CLINICAL SIGNS",NA,NA,"No abnormalities","No abnormalities",NA,NA,NA,NA,NA,NA,NA,NA,5,"2010-12-15T08:37:15",5,NA,NA,NA,NA,NA
"PDS2014","CL","PDS2014-0013",NA,940,NA,NA,NA,"CS","Clinical Sign","CLINICAL SIGNS",NA,NA,"No abnormalities","No abnormalities",NA,NA,NA,NA,NA,NA,NA,NA,9,"2010-12-19T11:43:59",9,NA,NA,NA,NA,NA
"PDS2014","CL","PDS2014-0013",NA,941,NA,NA,NA,"CS","Clinical Sign","CLINICAL SIGNS",NA,NA,"No abnormalities","No abnormalities",NA,NA,NA,NA,NA,NA,NA,NA,8,"2010-12-18T09:53:45",8,NA,NA,NA,NA,NA
"PDS2014","CL","PDS2014-0013",NA,942,NA,NA,NA,"CS","Clinical Sign","CLINICAL SIGNS",NA,NA,"No abnormalities","No abnormalities",NA,NA,NA,NA,NA,NA,NA,NA,19,"2010-12-29T09:34:46",19,NA,NA,NA,NA,NA
"PDS2014","CL","PDS2014-0013",NA,943,NA,NA,NA,"CS","Clinical Sign","CLINICAL SIGNS",NA,NA,"No abnormalities","No abnormalities",NA,NA,NA,NA,NA,NA,NA,NA,14,"2010-12-24T07:59:18",14,NA,NA,NA,NA,NA
"PDS2014","CL","PDS2014-0013",NA,944,NA,NA,NA,"CS","Clinical Sign","CLINICAL SIGNS",NA,NA,"No abnormalities","No abnormalities",NA,NA,NA,NA,NA,NA,NA,NA,50,"2011-01-29T07:51:35",50,NA,NA,NA,NA,NA
"PDS2014","CL","PDS2014-0013",NA,945,NA,NA,NA,"CS","Clinical Sign","CLINICAL SIGNS",NA,NA,"No abnormalities","No abnormalities",NA,NA,NA,NA,NA,NA,NA,NA,1,"2010-12-11T13:13:25",1,NA,NA,NA,NA,NA
"PDS2014","CL","PDS2014-0013",NA,946,NA,NA,NA,"CS","Clinical Sign","OPHTHALMOLOGY",NA,NA,"No abnormalities","No abnormalities",NA,NA,NA,NA,NA,NA,NA,NA,-1,"2010-12-10T10:54:35",-1,NA,NA,NA,NA,NA
"PDS2014","CL","PDS2014-0013",NA,947,NA,NA,NA,"CS","Clinical Sign","CLINICAL SIGNS",NA,NA,"No abnormalities","No abnormalities",NA,NA,NA,NA,NA,NA,NA,NA,32,"2011-01-11T09:22:21",32,NA,NA,NA,NA,NA
"PDS2014","CL","PDS2014-0013",NA,948,NA,NA,NA,"CS","Clinical Sign","CLINICAL SIGNS",NA,NA,"No abnormalities","No abnormalities",NA,NA,NA,NA,NA,NA,NA,NA,17,"2010-12-27T09:59:01",17,NA,NA,NA,NA,NA
"PDS2014","CL","PDS2014-0013",NA,949,NA,NA,NA,"CS","Clinical Sign","CLINICAL SIGNS",NA,NA,"No abnormalities","No abnormalities",NA,NA,NA,NA,NA,NA,NA,NA,8,"2010-12-18T09:05:50",8,NA,NA,NA,NA,NA
"PDS2014","CL","PDS2014-0013",NA,950,NA,NA,NA,"CS","Clinical Sign","CLINICAL SIGNS",NA,NA,"No abnormalities","No abnormalities",NA,NA,NA,NA,NA,NA,NA,NA,43,"2011-01-22T07:40:57",43,NA,NA,NA,NA,NA
"PDS2014","CL","PDS2014-0013",NA,951,NA,NA,NA,"CS","Clinical Sign","CLINICAL SIGNS",NA,NA,"No abnormalities","No abnormalities",NA,NA,NA,NA,NA,NA,NA,NA,1,"2010-12-11T13:09:50",1,NA,NA,NA,NA,NA
"PDS2014","CL","PDS2014-0013",NA,952,NA,NA,NA,"CS","Clinical Sign","CLINICAL SIGNS",NA,NA,"No abnormalities","No abnormalities",NA,NA,NA,NA,NA,NA,NA,NA,38,"2011-01-17T10:32:33",38,NA,NA,NA,NA,NA
"PDS2014","CL","PDS2014-0013",NA,953,NA,NA,NA,"CS","Clinical Sign","CLINICAL SIGNS",NA,NA,"No abnormalities","No abnormalities",NA,NA,NA,NA,NA,NA,NA,NA,8,"2010-12-18T07:52:06",8,NA,NA,NA,NA,NA
"PDS2014","CL","PDS2014-0013",NA,954,NA,NA,NA,"CS","Clinical Sign","CLINICAL SIGNS",NA,NA,"No abnormalities","No abnormalities",NA,NA,NA,NA,NA,NA,NA,NA,1,"2010-12-11T10:14:27",1,NA,NA,NA,NA,NA
"PDS2014","CL","PDS2014-0013",NA,955,NA,NA,NA,"CS","Clinical Sign","CLINICAL SIGNS",NA,NA,"No abnormalities","No abnormalities",NA,NA,NA,NA,NA,NA,NA,NA,15,"2010-12-25T08:24:08",15,NA,NA,NA,NA,NA
"PDS2014","CL","PDS2014-0013",NA,956,NA,NA,NA,"CS","Clinical Sign","CLINICAL SIGNS",NA,NA,"No abnormalities","No abnormalities",NA,NA,NA,NA,NA,NA,NA,NA,25,"2011-01-04T08:10:54",25,NA,NA,NA,NA,NA
"PDS2014","CL","PDS2014-0013",NA,957,NA,NA,NA,"CS","Clinical Sign","CLINICAL SIGNS",NA,NA,"No abnormalities","No abnormalities",NA,NA,NA,NA,NA,NA,NA,NA,27,"2011-01-06T08:56:42",27,NA,NA,NA,NA,NA
"PDS2014","CL","PDS2014-0013",NA,958,NA,NA,NA,"CS","Clinical Sign","CLINICAL SIGNS",NA,NA,"No abnormalities","No abnormalities",NA,NA,NA,NA,NA,NA,NA,NA,26,"2011-01-05T08:08:11",26,NA,NA,NA,NA,NA
"PDS2014","CL","PDS2014-0013",NA,959,NA,NA,NA,"CS","Clinical Sign","CLINICAL SIGNS",NA,NA,"No abnormalities","No abnormalities",NA,NA,NA,NA,NA,NA,NA,NA,24,"2011-01-03T08:36:36",24,NA,NA,NA,NA,NA
"PDS2014","CL","PDS2014-0013",NA,960,NA,NA,NA,"CS","Clinical Sign","CLINICAL SIGNS",NA,NA,"No abnormalities","No abnormalities",NA,NA,NA,NA,NA,NA,NA,NA,8,"2010-12-18T08:14:27",8,NA,NA,NA,NA,NA
"PDS2014","CL","PDS2014-0013",NA,961,NA,NA,NA,"CS","Clinical Sign","CLINICAL SIGNS",NA,NA,"No abnormalities","No abnormalities",NA,NA,NA,NA,NA,NA,NA,NA,56,"2011-02-04T07:09:36",56,NA,NA,NA,NA,NA
"PDS2014","CL","PDS2014-0013",NA,962,NA,NA,NA,"CS","Clinical Sign","CLINICAL SIGNS",NA,NA,"No abnormalities","No abnormalities",NA,NA,NA,NA,NA,NA,NA,NA,15,"2010-12-25T10:38:59",15,NA,NA,NA,NA,NA
"PDS2014","CL","PDS2014-0013",NA,963,NA,NA,NA,"CS","Clinical Sign","CLINICAL SIGNS",NA,NA,"No abnormalities","No abnormalities",NA,NA,NA,NA,NA,NA,NA,NA,1,"2010-12-11T11:18:24",1,NA,NA,NA,NA,NA
"PDS2014","CL","PDS2014-0013",NA,964,NA,NA,NA,"CS","Clinical Sign","CLINICAL SIGNS",NA,NA,"No abnormalities","No abnormalities",NA,NA,NA,NA,NA,NA,NA,NA,25,"2011-01-04T08:29:35",25,NA,NA,NA,NA,NA
"PDS2014","CL","PDS2014-0013",NA,965,NA,NA,NA,"CS","Clinical Sign","CLINICAL SIGNS",NA,NA,"No abnormalities","No abnormalities",NA,NA,NA,NA,NA,NA,NA,NA,46,"2011-01-25T13:04:52",46,NA,NA,NA,NA,NA
"PDS2014","CL","PDS2014-0013",NA,966,NA,NA,NA,"CS","Clinical Sign","CLINICAL SIGNS",NA,NA,"No abnormalities","No abnormalities",NA,NA,NA,NA,NA,NA,NA,NA,22,"2011-01-01T11:37:26",22,NA,NA,NA,NA,NA
"PDS2014","CL","PDS2014-0013",NA,967,NA,NA,NA,"CS","Clinical Sign","CLINICAL SIGNS",NA,NA,"No abnormalities","No abnormalities",NA,NA,NA,NA,NA,NA,NA,NA,15,"2010-12-25T09:02:25",15,NA,NA,NA,NA,NA
"PDS2014","CL","PDS2014-0013",NA,968,NA,NA,NA,"CS","Clinical Sign","CLINICAL SIGNS",NA,NA,"No abnormalities","No abnormalities",NA,NA,NA,NA,NA,NA,NA,NA,8,"2010-12-18T15:08:57",8,NA,NA,NA,NA,NA
"PDS2014","CL","PDS2014-0013",NA,969,NA,NA,NA,"CS","Clinical Sign","CLINICAL SIGNS",NA,NA,"No abnormalities","No abnormalities",NA,NA,NA,NA,NA,NA,NA,NA,41,"2011-01-20T10:31:25",41,NA,NA,NA,NA,NA
"PDS2014","CL","PDS2014-0013",NA,970,NA,NA,NA,"CS","Clinical Sign","CLINICAL SIGNS",NA,NA,"No abnormalities","No abnormalities",NA,NA,NA,NA,NA,NA,NA,NA,22,"2011-01-01T06:43:04",22,NA,NA,NA,NA,NA
"PDS2014","CL","PDS2014-0013",NA,971,NA,NA,NA,"CS","Clinical Sign","CLINICAL SIGNS",NA,NA,"No abnormalities","No abnormalities",NA,NA,NA,NA,NA,NA,NA,NA,39,"2011-01-18T09:25:31",39,NA,NA,NA,NA,NA
"PDS2014","CL","PDS2014-0014",NA,972,NA,NA,NA,"CS","Clinical Sign","CLINICAL SIGNS",NA,NA,"No abnormalities","No abnormalities",NA,NA,NA,NA,NA,NA,NA,NA,1,"2010-12-11T15:11:14",1,NA,NA,NA,NA,NA
"PDS2014","CL","PDS2014-0014",NA,973,NA,NA,NA,"CS","Clinical Sign","CLINICAL SIGNS",NA,NA,"No abnormalities","No abnormalities",NA,NA,NA,NA,NA,NA,NA,NA,23,"2011-01-02T08:17:56",23,NA,NA,NA,NA,NA
"PDS2014","CL","PDS2014-0014",NA,974,NA,NA,NA,"CS","Clinical Sign","CLINICAL SIGNS",NA,NA,"No abnormalities","No abnormalities",NA,NA,NA,NA,NA,NA,NA,NA,22,"2011-01-01T08:25:39",22,NA,NA,NA,NA,NA
"PDS2014","CL","PDS2014-0014",NA,975,NA,NA,NA,"CS","Clinical Sign","CLINICAL SIGNS",NA,NA,"No abnormalities","No abnormalities",NA,NA,NA,NA,NA,NA,NA,NA,1,"2010-12-11T09:17:21",1,NA,NA,NA,NA,NA
"PDS2014","CL","PDS2014-0014",NA,976,NA,NA,NA,"CS","Clinical Sign","CLINICAL SIGNS",NA,NA,"No abnormalities","No abnormalities",NA,NA,NA,NA,NA,NA,NA,NA,3,"2010-12-13T11:14:24",3,NA,NA,NA,NA,NA
"PDS2014","CL","PDS2014-0014",NA,977,NA,NA,NA,"CS","Clinical Sign","CLINICAL SIGNS",NA,NA,"No abnormalities","No abnormalities",NA,NA,NA,NA,NA,NA,NA,NA,35,"2011-01-14T11:25:51",35,NA,NA,NA,NA,NA
"PDS2014","CL","PDS2014-0014",NA,978,NA,NA,NA,"CS","Clinical Sign","OPHTHALMOLOGY",NA,NA,"No abnormalities","No abnormalities",NA,NA,NA,NA,NA,NA,NA,NA,56,"2011-02-04T10:28:52",56,NA,NA,NA,NA,NA
"PDS2014","CL","PDS2014-0014",NA,979,NA,NA,NA,"CS","Clinical Sign","CLINICAL SIGNS",NA,NA,"No abnormalities","No abnormalities",NA,NA,NA,NA,NA,NA,NA,NA,22,"2011-01-01T10:04:22",22,NA,NA,NA,NA,NA
"PDS2014","CL","PDS2014-0014",NA,980,NA,NA,NA,"CS","Clinical Sign","CLINICAL SIGNS",NA,NA,"No abnormalities","No abnormalities",NA,NA,NA,NA,NA,NA,NA,NA,52,"2011-01-31T07:40:30",52,NA,NA,NA,NA,NA
"PDS2014","CL","PDS2014-0014",NA,981,NA,NA,NA,"CS","Clinical Sign","CLINICAL SIGNS",NA,NA,"No abnormalities","No abnormalities",NA,NA,NA,NA,NA,NA,NA,NA,10,"2010-12-20T11:00:10",10,NA,NA,NA,NA,NA
"PDS2014","CL","PDS2014-0014",NA,982,NA,NA,NA,"CS","Clinical Sign","CLINICAL SIGNS",NA,NA,"No abnormalities","No abnormalities",NA,NA,NA,NA,NA,NA,NA,NA,15,"2010-12-25T11:16:05",15,NA,NA,NA,NA,NA
"PDS2014","CL","PDS2014-0014",NA,983,NA,NA,NA,"CS","Clinical Sign","CLINICAL SIGNS",NA,NA,"No abnormalities","No abnormalities",NA,NA,NA,NA,NA,NA,NA,NA,8,"2010-12-18T11:44:47",8,NA,NA,NA,NA,NA
"PDS2014","CL","PDS2014-0014",NA,984,NA,NA,NA,"CS","Clinical Sign","CLINICAL SIGNS",NA,NA,"No abnormalities","No abnormalities",NA,NA,NA,NA,NA,NA,NA,NA,25,"2011-01-04T15:26:10",25,NA,NA,NA,NA,NA
"PDS2014","CL","PDS2014-0014",NA,985,NA,NA,NA,"CS","Clinical Sign","CLINICAL SIGNS",NA,NA,"No abnormalities","No abnormalities",NA,NA,NA,NA,NA,NA,NA,NA,42,"2011-01-21T08:42:05",42,NA,NA,NA,NA,NA
"PDS2014","CL","PDS2014-0014",NA,986,NA,NA,NA,"CS","Clinical Sign","CLINICAL SIGNS",NA,NA,"No abnormalities","No abnormalities",NA,NA,NA,NA,NA,NA,NA,NA,4,"2010-12-14T09:56:20",4,NA,NA,NA,NA,NA
"PDS2014","CL","PDS2014-0014",NA,987,NA,NA,NA,"CS","Clinical Sign","CLINICAL SIGNS",NA,NA,"No abnormalities","No abnormalities",NA,NA,NA,NA,NA,NA,NA,NA,25,"2011-01-04T11:33:45",25,NA,NA,NA,NA,NA
"PDS2014","CL","PDS2014-0014",NA,988,NA,NA,NA,"CS","Clinical Sign","CLINICAL SIGNS",NA,NA,"No abnormalities","No abnormalities",NA,NA,NA,NA,NA,NA,NA,NA,33,"2011-01-12T09:57:39",33,NA,NA,NA,NA,NA
"PDS2014","CL","PDS2014-0014",NA,989,NA,NA,NA,"CS","Clinical Sign","CLINICAL SIGNS",NA,NA,"No abnormalities","No abnormalities",NA,NA,NA,NA,NA,NA,NA,NA,22,"2011-01-01T07:56:48",22,NA,NA,NA,NA,NA
"PDS2014","CL","PDS2014-0014",NA,990,NA,NA,NA,"CS","Clinical Sign","CLINICAL SIGNS",NA,NA,"No abnormalities","No abnormalities",NA,NA,NA,NA,NA,NA,NA,NA,25,"2011-01-04T09:53:12",25,NA,NA,NA,NA,NA
"PDS2014","CL","PDS2014-0014",NA,991,NA,NA,NA,"CS","Clinical Sign","CLINICAL SIGNS",NA,NA,"No abnormalities","No abnormalities",NA,NA,NA,NA,NA,NA,NA,NA,25,"2011-01-04T08:38:48",25,NA,NA,NA,NA,NA
"PDS2014","CL","PDS2014-0014",NA,992,NA,NA,NA,"CS","Clinical Sign","CLINICAL SIGNS",NA,NA,"No abnormalities","No abnormalities",NA,NA,NA,NA,NA,NA,NA,NA,29,"2011-01-08T07:18:46",29,NA,NA,NA,NA,NA
"PDS2014","CL","PDS2014-0014",NA,993,NA,NA,NA,"CS","Clinical Sign","CLINICAL SIGNS",NA,NA,"No abnormalities","No abnormalities",NA,NA,NA,NA,NA,NA,NA,NA,47,"2011-01-26T09:10:32",47,NA,NA,NA,NA,NA
"PDS2014","CL","PDS2014-0014",NA,994,NA,NA,NA,"CS","Clinical Sign","CLINICAL SIGNS",NA,NA,"No abnormalities","No abnormalities",NA,NA,NA,NA,NA,NA,NA,NA,23,"2011-01-02T06:29:04",23,NA,NA,NA,NA,NA
"PDS2014","CL","PDS2014-0014",NA,995,NA,NA,NA,"CS","Clinical Sign","OPHTHALMOLOGY",NA,NA,"No abnormalities","No abnormalities",NA,NA,NA,NA,NA,NA,NA,NA,28,"2011-01-07T10:57:35",28,NA,NA,NA,NA,NA
"PDS2014","CL","PDS2014-0014",NA,996,NA,NA,NA,"CS","Clinical Sign","CLINICAL SIGNS",NA,NA,"No abnormalities","No abnormalities",NA,NA,NA,NA,NA,NA,NA,NA,21,"2010-12-31T08:53:05",21,NA,NA,NA,NA,NA
"PDS2014","CL","PDS2014-0014",NA,997,NA,NA,NA,"CS","Clinical Sign","CLINICAL SIGNS",NA,NA,"No abnormalities","No abnormalities",NA,NA,NA,NA,NA,NA,NA,NA,51,"2011-01-30T10:59:02",51,NA,NA,NA,NA,NA
"PDS2014","CL","PDS2014-0014",NA,998,NA,NA,NA,"CS","Clinical Sign","CLINICAL SIGNS",NA,NA,"No abnormalities","No abnormalities",NA,NA,NA,NA,NA,NA,NA,NA,20,"2010-12-30T08:08:39",20,NA,NA,NA,NA,NA
"PDS2014","CL","PDS2014-0014",NA,999,NA,NA,NA,"CS","Clinical Sign","CLINICAL SIGNS",NA,NA,"No abnormalities","No abnormalities",NA,NA,NA,NA,NA,NA,NA,NA,45,"2011-01-24T07:44:58",45,NA,NA,NA,NA,NA
"PDS2014","CL","PDS2014-0014",NA,1000,NA,NA,NA,"CS","Clinical Sign","CLINICAL SIGNS",NA,NA,"No abnormalities","No abnormalities",NA,NA,NA,NA,NA,NA,NA,NA,15,"2010-12-25T12:59:20",15,NA,NA,NA,NA,NA
"PDS2014","CL","PDS2014-0014",NA,1001,NA,NA,NA,"CS","Clinical Sign","CLINICAL SIGNS",NA,NA,"No abnormalities","No abnormalities",NA,NA,NA,NA,NA,NA,NA,NA,57,"2011-02-05T07:43:50",57,NA,NA,NA,NA,NA
