"STUDYID","DOMAIN","USUBJID","POOLID","EXSEQ","EXTRT","EXDOSE","EXDOSTXT","EXDOSU","EXDOSFRM","EXDOSFRQ","EXROUTE","EXLOT","EXLOC","EXMETHOD","EXTRTV","EXVAMT","EXVAMTU","EXADJ","EXSTDTC","EXENDTC","EXSTDY","EXENDY","EXDUR","EXTPT","EXTPTNUM","EXELTM","EXTPTREF","EXRFTDTC"
"PDS2014","EX","PDS2014-0001",NA,1,"PDS-FAKEDRUG-111",0,NA,"mg/kg","SUSPENSION","QD","ORAL GAVAGE","ABCD1234",NA,NA,"methocell",NA,NA,NA,"2010-12-11T09:30:54",NA,1,NA,NA,NA,NA,NA,NA,NA
"PDS2014","EX","PDS2014-0001",NA,2,"PDS-FAKEDRUG-111",0,NA,"mg/kg","SUSPENSION","QD","ORAL GAVAGE","ABCD1234",NA,NA,"methocell",NA,NA,NA,"2010-12-12T10:26:35",NA,2,NA,NA,NA,NA,NA,NA,NA
"PDS2014","EX","PDS2014-0001",NA,3,"PDS-FAKEDRUG-111",0,NA,"mg/kg","SUSPENSION","QD","ORAL GAVAGE","ABCD1234",NA,NA,"methocell",NA,NA,NA,"2010-12-13T11:02:22",NA,3,NA,NA,NA,NA,NA,NA,NA
"PDS2014","EX","PDS2014-0001",NA,4,"PDS-FAKEDRUG-111",0,NA,"mg/kg","SUSPENSION","QD","ORAL GAVAGE","ABCD1234",NA,NA,"methocell",NA,NA,NA,"2010-12-14T09:46:02",NA,4,NA,NA,NA,NA,NA,NA,NA
"PDS2014","EX","PDS2014-0001",NA,5,"PDS-FAKEDRUG-111",0,NA,"mg/kg","SUSPENSION","QD","ORAL GAVAGE","ABCD1234",NA,NA,"methocell",NA,NA,NA,"2010-12-15T08:30:14",NA,5,NA,NA,NA,NA,NA,NA,NA
"PDS2014","EX","PDS2014-0001",NA,6,"PDS-FAKEDRUG-111",0,NA,"mg/kg","SUSPENSION","QD","ORAL GAVAGE","ABCD1234",NA,NA,"methocell",NA,NA,NA,"2010-12-16T08:52:19",NA,6,NA,NA,NA,NA,NA,NA,NA
"PDS2014","EX","PDS2014-0001",NA,7,"PDS-FAKEDRUG-111",0,NA,"mg/kg","SUSPENSION","QD","ORAL GAVAGE","ABCD1234",NA,NA,"methocell",NA,NA,NA,"2010-12-17T07:58:09",NA,7,NA,NA,NA,NA,NA,NA,NA
"PDS2014","EX","PDS2014-0001",NA,8,"PDS-FAKEDRUG-111",0,NA,"mg/kg","SUSPENSION","QD","ORAL GAVAGE","ABCD1234",NA,NA,"methocell",NA,NA,NA,"2010-12-18T08:04:18",NA,8,NA,NA,NA,NA,NA,NA,NA
"PDS2014","EX","PDS2014-0001",NA,9,"PDS-FAKEDRUG-111",0,NA,"mg/kg","SUSPENSION","QD","ORAL GAVAGE","ABCD1234",NA,NA,"methocell",NA,NA,NA,"2010-12-19T11:35:22",NA,9,NA,NA,NA,NA,NA,NA,NA
"PDS2014","EX","PDS2014-0001",NA,10,"PDS-FAKEDRUG-111",0,NA,"mg/kg","SUSPENSION","QD","ORAL GAVAGE","ABCD1234",NA,NA,"methocell",NA,NA,NA,"2010-12-20T10:49:36",NA,10,NA,NA,NA,NA,NA,NA,NA
"PDS2014","EX","PDS2014-0001",NA,11,"PDS-FAKEDRUG-111",0,NA,"mg/kg","SUSPENSION","QD","ORAL GAVAGE","ABCD1234",NA,NA,"methocell",NA,NA,NA,"2010-12-21T07:22:26",NA,11,NA,NA,NA,NA,NA,NA,NA
"PDS2014","EX","PDS2014-0001",NA,12,"PDS-FAKEDRUG-111",0,NA,"mg/kg","SUSPENSION","QD","ORAL GAVAGE","ABCD1234",NA,NA,"methocell",NA,NA,NA,"2010-12-22T08:02:07",NA,12,NA,NA,NA,NA,NA,NA,NA
"PDS2014","EX","PDS2014-0001",NA,13,"PDS-FAKEDRUG-111",0,NA,"mg/kg","SUSPENSION","QD","ORAL GAVAGE","ABCD1234",NA,NA,"methocell",NA,NA,NA,"2010-12-23T07:21:33",NA,13,NA,NA,NA,NA,NA,NA,NA
"PDS2014","EX","PDS2014-0001",NA,14,"PDS-FAKEDRUG-111",0,NA,"mg/kg","SUSPENSION","QD","ORAL GAVAGE","ABCD1234",NA,NA,"methocell",NA,NA,NA,"2010-12-24T07:52:30",NA,14,NA,NA,NA,NA,NA,NA,NA
"PDS2014","EX","PDS2014-0001",NA,15,"PDS-FAKEDRUG-111",0,NA,"mg/kg","SUSPENSION","QD","ORAL GAVAGE","ABCD1234",NA,NA,"methocell",NA,NA,NA,"2010-12-25T07:27:10",NA,15,NA,NA,NA,NA,NA,NA,NA
"PDS2014","EX","PDS2014-0001",NA,16,"PDS-FAKEDRUG-111",0,NA,"mg/kg","SUSPENSION","QD","ORAL GAVAGE","ABCD1234",NA,NA,"methocell",NA,NA,NA,"2010-12-26T07:05:03",NA,16,NA,NA,NA,NA,NA,NA,NA
"PDS2014","EX","PDS2014-0001",NA,17,"PDS-FAKEDRUG-111",0,NA,"mg/kg","SUSPENSION","QD","ORAL GAVAGE","ABCD1234",NA,NA,"methocell",NA,NA,NA,"2010-12-27T09:51:38",NA,17,NA,NA,NA,NA,NA,NA,NA
"PDS2014","EX","PDS2014-0001",NA,18,"PDS-FAKEDRUG-111",0,NA,"mg/kg","SUSPENSION","QD","ORAL GAVAGE","ABCD1234",NA,NA,"methocell",NA,NA,NA,"2010-12-28T07:49:44",NA,18,NA,NA,NA,NA,NA,NA,NA
"PDS2014","EX","PDS2014-0001",NA,19,"PDS-FAKEDRUG-111",0,NA,"mg/kg","SUSPENSION","QD","ORAL GAVAGE","ABCD1234",NA,NA,"methocell",NA,NA,NA,"2010-12-29T09:23:11",NA,19,NA,NA,NA,NA,NA,NA,NA
"PDS2014","EX","PDS2014-0001",NA,20,"PDS-FAKEDRUG-111",0,NA,"mg/kg","SUSPENSION","QD","ORAL GAVAGE","ABCD1234",NA,NA,"methocell",NA,NA,NA,"2010-12-30T08:01:09",NA,20,NA,NA,NA,NA,NA,NA,NA
"PDS2014","EX","PDS2014-0001",NA,21,"PDS-FAKEDRUG-111",0,NA,"mg/kg","SUSPENSION","QD","ORAL GAVAGE","ABCD1234",NA,NA,"methocell",NA,NA,NA,"2010-12-31T08:45:18",NA,21,NA,NA,NA,NA,NA,NA,NA
"PDS2014","EX","PDS2014-0001",NA,22,"PDS-FAKEDRUG-111",0,NA,"mg/kg","SUSPENSION","QD","ORAL GAVAGE","ABCD1234",NA,NA,"methocell",NA,NA,NA,"2011-01-01T06:37:12",NA,22,NA,NA,NA,NA,NA,NA,NA
"PDS2014","EX","PDS2014-0001",NA,23,"PDS-FAKEDRUG-111",0,NA,"mg/kg","SUSPENSION","QD","ORAL GAVAGE","ABCD1234",NA,NA,"methocell",NA,NA,NA,"2011-01-02T08:11:16",NA,23,NA,NA,NA,NA,NA,NA,NA
"PDS2014","EX","PDS2014-0001",NA,24,"PDS-FAKEDRUG-111",0,NA,"mg/kg","SUSPENSION","QD","ORAL GAVAGE","ABCD1234",NA,NA,"methocell",NA,NA,NA,"2011-01-03T08:31:14",NA,24,NA,NA,NA,NA,NA,NA,NA
"PDS2014","EX","PDS2014-0001",NA,25,"PDS-FAKEDRUG-111",0,NA,"mg/kg","SUSPENSION","QD","ORAL GAVAGE","ABCD1234",NA,NA,"methocell",NA,NA,NA,"2011-01-04T08:20:51",NA,25,NA,NA,NA,NA,NA,NA,NA
"PDS2014","EX","PDS2014-0001",NA,26,"PDS-FAKEDRUG-111",0,NA,"mg/kg","SUSPENSION","QD","ORAL GAVAGE","ABCD1234",NA,NA,"methocell",NA,NA,NA,"2011-01-05T08:11:46",NA,26,NA,NA,NA,NA,NA,NA,NA
"PDS2014","EX","PDS2014-0001",NA,27,"PDS-FAKEDRUG-111",0,NA,"mg/kg","SUSPENSION","QD","ORAL GAVAGE","ABCD1234",NA,NA,"methocell",NA,NA,NA,"2011-01-06T08:49:48",NA,27,NA,NA,NA,NA,NA,NA,NA
"PDS2014","EX","PDS2014-0001",NA,28,"PDS-FAKEDRUG-111",0,NA,"mg/kg","SUSPENSION","QD","ORAL GAVAGE","ABCD1234",NA,NA,"methocell",NA,NA,NA,"2011-01-07T07:14:21",NA,28,NA,NA,NA,NA,NA,NA,NA
"PDS2014","EX","PDS2014-0001",NA,29,"PDS-FAKEDRUG-111",0,NA,"mg/kg","SUSPENSION","QD","ORAL GAVAGE","ABCD1234",NA,NA,"methocell",NA,NA,NA,"2011-01-08T07:12:41",NA,29,NA,NA,NA,NA,NA,NA,NA
"PDS2014","EX","PDS2014-0001",NA,30,"PDS-FAKEDRUG-111",0,NA,"mg/kg","SUSPENSION","QD","ORAL GAVAGE","ABCD1234",NA,NA,"methocell",NA,NA,NA,"2011-01-09T07:40:43",NA,30,NA,NA,NA,NA,NA,NA,NA
"PDS2014","EX","PDS2014-0002",NA,31,"PDS-FAKEDRUG-111",0,NA,"mg/kg","SUSPENSION","QD","ORAL GAVAGE","ABCD1234",NA,NA,"methocell",NA,NA,NA,"2010-12-11T09:30:30",NA,1,NA,NA,NA,NA,NA,NA,NA
"PDS2014","EX","PDS2014-0002",NA,32,"PDS-FAKEDRUG-111",0,NA,"mg/kg","SUSPENSION","QD","ORAL GAVAGE","ABCD1234",NA,NA,"methocell",NA,NA,NA,"2010-12-12T10:28:27",NA,2,NA,NA,NA,NA,NA,NA,NA
"PDS2014","EX","PDS2014-0002",NA,33,"PDS-FAKEDRUG-111",0,NA,"mg/kg","SUSPENSION","QD","ORAL GAVAGE","ABCD1234",NA,NA,"methocell",NA,NA,NA,"2010-12-13T11:01:48",NA,3,NA,NA,NA,NA,NA,NA,NA
"PDS2014","EX","PDS2014-0002",NA,34,"PDS-FAKEDRUG-111",0,NA,"mg/kg","SUSPENSION","QD","ORAL GAVAGE","ABCD1234",NA,NA,"methocell",NA,NA,NA,"2010-12-14T09:45:24",NA,4,NA,NA,NA,NA,NA,NA,NA
"PDS2014","EX","PDS2014-0002",NA,35,"PDS-FAKEDRUG-111",0,NA,"mg/kg","SUSPENSION","QD","ORAL GAVAGE","ABCD1234",NA,NA,"methocell",NA,NA,NA,"2010-12-15T08:30:31",NA,5,NA,NA,NA,NA,NA,NA,NA
"PDS2014","EX","PDS2014-0002",NA,36,"PDS-FAKEDRUG-111",0,NA,"mg/kg","SUSPENSION","QD","ORAL GAVAGE","ABCD1234",NA,NA,"methocell",NA,NA,NA,"2010-12-16T08:52:05",NA,6,NA,NA,NA,NA,NA,NA,NA
"PDS2014","EX","PDS2014-0002",NA,37,"PDS-FAKEDRUG-111",0,NA,"mg/kg","SUSPENSION","QD","ORAL GAVAGE","ABCD1234",NA,NA,"methocell",NA,NA,NA,"2010-12-17T07:57:48",NA,7,NA,NA,NA,NA,NA,NA,NA
"PDS2014","EX","PDS2014-0002",NA,38,"PDS-FAKEDRUG-111",0,NA,"mg/kg","SUSPENSION","QD","ORAL GAVAGE","ABCD1234",NA,NA,"methocell",NA,NA,NA,"2010-12-18T07:48:53",NA,8,NA,NA,NA,NA,NA,NA,NA
"PDS2014","EX","PDS2014-0002",NA,39,"PDS-FAKEDRUG-111",0,NA,"mg/kg","SUSPENSION","QD","ORAL GAVAGE","ABCD1234",NA,NA,"methocell",NA,NA,NA,"2010-12-19T11:34:07",NA,9,NA,NA,NA,NA,NA,NA,NA
"PDS2014","EX","PDS2014-0002",NA,40,"PDS-FAKEDRUG-111",0,NA,"mg/kg","SUSPENSION","QD","ORAL GAVAGE","ABCD1234",NA,NA,"methocell",NA,NA,NA,"2010-12-20T10:50:42",NA,10,NA,NA,NA,NA,NA,NA,NA
"PDS2014","EX","PDS2014-0002",NA,41,"PDS-FAKEDRUG-111",0,NA,"mg/kg","SUSPENSION","QD","ORAL GAVAGE","ABCD1234",NA,NA,"methocell",NA,NA,NA,"2010-12-21T07:22:05",NA,11,NA,NA,NA,NA,NA,NA,NA
"PDS2014","EX","PDS2014-0002",NA,42,"PDS-FAKEDRUG-111",0,NA,"mg/kg","SUSPENSION","QD","ORAL GAVAGE","ABCD1234",NA,NA,"methocell",NA,NA,NA,"2010-12-22T08:01:26",NA,12,NA,NA,NA,NA,NA,NA,NA
"PDS2014","EX","PDS2014-0002",NA,43,"PDS-FAKEDRUG-111",0,NA,"mg/kg","SUSPENSION","QD","ORAL GAVAGE","ABCD1234",NA,NA,"methocell",NA,NA,NA,"2010-12-23T07:21:00",NA,13,NA,NA,NA,NA,NA,NA,NA
"PDS2014","EX","PDS2014-0002",NA,44,"PDS-FAKEDRUG-111",0,NA,"mg/kg","SUSPENSION","QD","ORAL GAVAGE","ABCD1234",NA,NA,"methocell",NA,NA,NA,"2010-12-24T07:51:30",NA,14,NA,NA,NA,NA,NA,NA,NA
"PDS2014","EX","PDS2014-0002",NA,45,"PDS-FAKEDRUG-111",0,NA,"mg/kg","SUSPENSION","QD","ORAL GAVAGE","ABCD1234",NA,NA,"methocell",NA,NA,NA,"2010-12-25T07:25:41",NA,15,NA,NA,NA,NA,NA,NA,NA
"PDS2014","EX","PDS2014-0002",NA,46,"PDS-FAKEDRUG-111",0,NA,"mg/kg","SUSPENSION","QD","ORAL GAVAGE","ABCD1234",NA,NA,"methocell",NA,NA,NA,"2010-12-26T07:04:38",NA,16,NA,NA,NA,NA,NA,NA,NA
"PDS2014","EX","PDS2014-0002",NA,47,"PDS-FAKEDRUG-111",0,NA,"mg/kg","SUSPENSION","QD","ORAL GAVAGE","ABCD1234",NA,NA,"methocell",NA,NA,NA,"2010-12-27T09:52:43",NA,17,NA,NA,NA,NA,NA,NA,NA
"PDS2014","EX","PDS2014-0002",NA,48,"PDS-FAKEDRUG-111",0,NA,"mg/kg","SUSPENSION","QD","ORAL GAVAGE","ABCD1234",NA,NA,"methocell",NA,NA,NA,"2010-12-28T07:48:33",NA,18,NA,NA,NA,NA,NA,NA,NA
"PDS2014","EX","PDS2014-0002",NA,49,"PDS-FAKEDRUG-111",0,NA,"mg/kg","SUSPENSION","QD","ORAL GAVAGE","ABCD1234",NA,NA,"methocell",NA,NA,NA,"2010-12-29T09:25:11",NA,19,NA,NA,NA,NA,NA,NA,NA
"PDS2014","EX","PDS2014-0002",NA,50,"PDS-FAKEDRUG-111",0,NA,"mg/kg","SUSPENSION","QD","ORAL GAVAGE","ABCD1234",NA,NA,"methocell",NA,NA,NA,"2010-12-30T08:00:03",NA,20,NA,NA,NA,NA,NA,NA,NA
"PDS2014","EX","PDS2014-0002",NA,51,"PDS-FAKEDRUG-111",0,NA,"mg/kg","SUSPENSION","QD","ORAL GAVAGE","ABCD1234",NA,NA,"methocell",NA,NA,NA,"2010-12-31T08:47:07",NA,21,NA,NA,NA,NA,NA,NA,NA
"PDS2014","EX","PDS2014-0002",NA,52,"PDS-FAKEDRUG-111",0,NA,"mg/kg","SUSPENSION","QD","ORAL GAVAGE","ABCD1234",NA,NA,"methocell",NA,NA,NA,"2011-01-01T06:37:59",NA,22,NA,NA,NA,NA,NA,NA,NA
"PDS2014","EX","PDS2014-0002",NA,53,"PDS-FAKEDRUG-111",0,NA,"mg/kg","SUSPENSION","QD","ORAL GAVAGE","ABCD1234",NA,NA,"methocell",NA,NA,NA,"2011-01-02T08:11:56",NA,23,NA,NA,NA,NA,NA,NA,NA
"PDS2014","EX","PDS2014-0002",NA,54,"PDS-FAKEDRUG-111",0,NA,"mg/kg","SUSPENSION","QD","ORAL GAVAGE","ABCD1234",NA,NA,"methocell",NA,NA,NA,"2011-01-03T08:31:50",NA,24,NA,NA,NA,NA,NA,NA,NA
"PDS2014","EX","PDS2014-0002",NA,55,"PDS-FAKEDRUG-111",0,NA,"mg/kg","SUSPENSION","QD","ORAL GAVAGE","ABCD1234",NA,NA,"methocell",NA,NA,NA,"2011-01-04T08:22:20",NA,25,NA,NA,NA,NA,NA,NA,NA
"PDS2014","EX","PDS2014-0002",NA,56,"PDS-FAKEDRUG-111",0,NA,"mg/kg","SUSPENSION","QD","ORAL GAVAGE","ABCD1234",NA,NA,"methocell",NA,NA,NA,"2011-01-05T08:13:28",NA,26,NA,NA,NA,NA,NA,NA,NA
"PDS2014","EX","PDS2014-0002",NA,57,"PDS-FAKEDRUG-111",0,NA,"mg/kg","SUSPENSION","QD","ORAL GAVAGE","ABCD1234",NA,NA,"methocell",NA,NA,NA,"2011-01-06T08:48:52",NA,27,NA,NA,NA,NA,NA,NA,NA
"PDS2014","EX","PDS2014-0002",NA,58,"PDS-FAKEDRUG-111",0,NA,"mg/kg","SUSPENSION","QD","ORAL GAVAGE","ABCD1234",NA,NA,"methocell",NA,NA,NA,"2011-01-07T07:14:46",NA,28,NA,NA,NA,NA,NA,NA,NA
"PDS2014","EX","PDS2014-0002",NA,59,"PDS-FAKEDRUG-111",0,NA,"mg/kg","SUSPENSION","QD","ORAL GAVAGE","ABCD1234",NA,NA,"methocell",NA,NA,NA,"2011-01-08T07:12:21",NA,29,NA,NA,NA,NA,NA,NA,NA
"PDS2014","EX","PDS2014-0002",NA,60,"PDS-FAKEDRUG-111",0,NA,"mg/kg","SUSPENSION","QD","ORAL GAVAGE","ABCD1234",NA,NA,"methocell",NA,NA,NA,"2011-01-09T07:41:47",NA,30,NA,NA,NA,NA,NA,NA,NA
"PDS2014","EX","PDS2014-0003",NA,61,"PDS-FAKEDRUG-111",0,NA,"mg/kg","SUSPENSION","QD","ORAL GAVAGE","ABCD1234",NA,NA,"methocell",NA,NA,NA,"2010-12-11T09:30:09",NA,1,NA,NA,NA,NA,NA,NA,NA
"PDS2014","EX","PDS2014-0003",NA,62,"PDS-FAKEDRUG-111",0,NA,"mg/kg","SUSPENSION","QD","ORAL GAVAGE","ABCD1234",NA,NA,"methocell",NA,NA,NA,"2010-12-12T10:27:09",NA,2,NA,NA,NA,NA,NA,NA,NA
"PDS2014","EX","PDS2014-0003",NA,63,"PDS-FAKEDRUG-111",0,NA,"mg/kg","SUSPENSION","QD","ORAL GAVAGE","ABCD1234",NA,NA,"methocell",NA,NA,NA,"2010-12-13T11:01:06",NA,3,NA,NA,NA,NA,NA,NA,NA
"PDS2014","EX","PDS2014-0003",NA,64,"PDS-FAKEDRUG-111",0,NA,"mg/kg","SUSPENSION","QD","ORAL GAVAGE","ABCD1234",NA,NA,"methocell",NA,NA,NA,"2010-12-14T09:47:05",NA,4,NA,NA,NA,NA,NA,NA,NA
"PDS2014","EX","PDS2014-0003",NA,65,"PDS-FAKEDRUG-111",0,NA,"mg/kg","SUSPENSION","QD","ORAL GAVAGE","ABCD1234",NA,NA,"methocell",NA,NA,NA,"2010-12-15T08:29:45",NA,5,NA,NA,NA,NA,NA,NA,NA
"PDS2014","EX","PDS2014-0003",NA,66,"PDS-FAKEDRUG-111",0,NA,"mg/kg","SUSPENSION","QD","ORAL GAVAGE","ABCD1234",NA,NA,"methocell",NA,NA,NA,"2010-12-16T08:52:46",NA,6,NA,NA,NA,NA,NA,NA,NA
"PDS2014","EX","PDS2014-0003",NA,67,"PDS-FAKEDRUG-111",0,NA,"mg/kg","SUSPENSION","QD","ORAL GAVAGE","ABCD1234",NA,NA,"methocell",NA,NA,NA,"2010-12-17T07:56:32",NA,7,NA,NA,NA,NA,NA,NA,NA
"PDS2014","EX","PDS2014-0003",NA,68,"PDS-FAKEDRUG-111",0,NA,"mg/kg","SUSPENSION","QD","ORAL GAVAGE","ABCD1234",NA,NA,"methocell",NA,NA,NA,"2010-12-18T08:03:26",NA,8,NA,NA,NA,NA,NA,NA,NA
"PDS2014","EX","PDS2014-0003",NA,69,"PDS-FAKEDRUG-111",0,NA,"mg/kg","SUSPENSION","QD","ORAL GAVAGE","ABCD1234",NA,NA,"methocell",NA,NA,NA,"2010-12-19T11:34:45",NA,9,NA,NA,NA,NA,NA,NA,NA
"PDS2014","EX","PDS2014-0003",NA,70,"PDS-FAKEDRUG-111",0,NA,"mg/kg","SUSPENSION","QD","ORAL GAVAGE","ABCD1234",NA,NA,"methocell",NA,NA,NA,"2010-12-20T10:50:23",NA,10,NA,NA,NA,NA,NA,NA,NA
"PDS2014","EX","PDS2014-0003",NA,71,"PDS-FAKEDRUG-111",0,NA,"mg/kg","SUSPENSION","QD","ORAL GAVAGE","ABCD1234",NA,NA,"methocell",NA,NA,NA,"2010-12-21T07:21:09",NA,11,NA,NA,NA,NA,NA,NA,NA
"PDS2014","EX","PDS2014-0003",NA,72,"PDS-FAKEDRUG-111",0,NA,"mg/kg","SUSPENSION","QD","ORAL GAVAGE","ABCD1234",NA,NA,"methocell",NA,NA,NA,"2010-12-22T08:02:32",NA,12,NA,NA,NA,NA,NA,NA,NA
"PDS2014","EX","PDS2014-0003",NA,73,"PDS-FAKEDRUG-111",0,NA,"mg/kg","SUSPENSION","QD","ORAL GAVAGE","ABCD1234",NA,NA,"methocell",NA,NA,NA,"2010-12-23T07:20:39",NA,13,NA,NA,NA,NA,NA,NA,NA
"PDS2014","EX","PDS2014-0003",NA,74,"PDS-FAKEDRUG-111",0,NA,"mg/kg","SUSPENSION","QD","ORAL GAVAGE","ABCD1234",NA,NA,"methocell",NA,NA,NA,"2010-12-24T07:50:46",NA,14,NA,NA,NA,NA,NA,NA,NA
"PDS2014","EX","PDS2014-0003",NA,75,"PDS-FAKEDRUG-111",0,NA,"mg/kg","SUSPENSION","QD","ORAL GAVAGE","ABCD1234",NA,NA,"methocell",NA,NA,NA,"2010-12-25T07:26:39",NA,15,NA,NA,NA,NA,NA,NA,NA
"PDS2014","EX","PDS2014-0003",NA,76,"PDS-FAKEDRUG-111",0,NA,"mg/kg","SUSPENSION","QD","ORAL GAVAGE","ABCD1234",NA,NA,"methocell",NA,NA,NA,"2010-12-26T07:05:33",NA,16,NA,NA,NA,NA,NA,NA,NA
"PDS2014","EX","PDS2014-0003",NA,77,"PDS-FAKEDRUG-111",0,NA,"mg/kg","SUSPENSION","QD","ORAL GAVAGE","ABCD1234",NA,NA,"methocell",NA,NA,NA,"2010-12-27T09:53:04",NA,17,NA,NA,NA,NA,NA,NA,NA
"PDS2014","EX","PDS2014-0003",NA,78,"PDS-FAKEDRUG-111",0,NA,"mg/kg","SUSPENSION","QD","ORAL GAVAGE","ABCD1234",NA,NA,"methocell",NA,NA,NA,"2010-12-28T07:49:03",NA,18,NA,NA,NA,NA,NA,NA,NA
"PDS2014","EX","PDS2014-0003",NA,79,"PDS-FAKEDRUG-111",0,NA,"mg/kg","SUSPENSION","QD","ORAL GAVAGE","ABCD1234",NA,NA,"methocell",NA,NA,NA,"2010-12-29T09:25:46",NA,19,NA,NA,NA,NA,NA,NA,NA
"PDS2014","EX","PDS2014-0003",NA,80,"PDS-FAKEDRUG-111",0,NA,"mg/kg","SUSPENSION","QD","ORAL GAVAGE","ABCD1234",NA,NA,"methocell",NA,NA,NA,"2010-12-30T07:59:39",NA,20,NA,NA,NA,NA,NA,NA,NA
"PDS2014","EX","PDS2014-0003",NA,81,"PDS-FAKEDRUG-111",0,NA,"mg/kg","SUSPENSION","QD","ORAL GAVAGE","ABCD1234",NA,NA,"methocell",NA,NA,NA,"2010-12-31T08:46:35",NA,21,NA,NA,NA,NA,NA,NA,NA
"PDS2014","EX","PDS2014-0003",NA,82,"PDS-FAKEDRUG-111",0,NA,"mg/kg","SUSPENSION","QD","ORAL GAVAGE","ABCD1234",NA,NA,"methocell",NA,NA,NA,"2011-01-01T06:35:37",NA,22,NA,NA,NA,NA,NA,NA,NA
"PDS2014","EX","PDS2014-0003",NA,83,"PDS-FAKEDRUG-111",0,NA,"mg/kg","SUSPENSION","QD","ORAL GAVAGE","ABCD1234",NA,NA,"methocell",NA,NA,NA,"2011-01-02T08:12:21",NA,23,NA,NA,NA,NA,NA,NA,NA
"PDS2014","EX","PDS2014-0003",NA,84,"PDS-FAKEDRUG-111",0,NA,"mg/kg","SUSPENSION","QD","ORAL GAVAGE","ABCD1234",NA,NA,"methocell",NA,NA,NA,"2011-01-03T08:31:35",NA,24,NA,NA,NA,NA,NA,NA,NA
"PDS2014","EX","PDS2014-0003",NA,85,"PDS-FAKEDRUG-111",0,NA,"mg/kg","SUSPENSION","QD","ORAL GAVAGE","ABCD1234",NA,NA,"methocell",NA,NA,NA,"2011-01-04T08:22:50",NA,25,NA,NA,NA,NA,NA,NA,NA
"PDS2014","EX","PDS2014-0003",NA,86,"PDS-FAKEDRUG-111",0,NA,"mg/kg","SUSPENSION","QD","ORAL GAVAGE","ABCD1234",NA,NA,"methocell",NA,NA,NA,"2011-01-05T08:12:09",NA,26,NA,NA,NA,NA,NA,NA,NA
"PDS2014","EX","PDS2014-0003",NA,87,"PDS-FAKEDRUG-111",0,NA,"mg/kg","SUSPENSION","QD","ORAL GAVAGE","ABCD1234",NA,NA,"methocell",NA,NA,NA,"2011-01-06T08:48:11",NA,27,NA,NA,NA,NA,NA,NA,NA
"PDS2014","EX","PDS2014-0003",NA,88,"PDS-FAKEDRUG-111",0,NA,"mg/kg","SUSPENSION","QD","ORAL GAVAGE","ABCD1234",NA,NA,"methocell",NA,NA,NA,"2011-01-07T07:15:12",NA,28,NA,NA,NA,NA,NA,NA,NA
"PDS2014","EX","PDS2014-0003",NA,89,"PDS-FAKEDRUG-111",0,NA,"mg/kg","SUSPENSION","QD","ORAL GAVAGE","ABCD1234",NA,NA,"methocell",NA,NA,NA,"2011-01-08T07:08:29",NA,29,NA,NA,NA,NA,NA,NA,NA
"PDS2014","EX","PDS2014-0003",NA,90,"PDS-FAKEDRUG-111",0,NA,"mg/kg","SUSPENSION","QD","ORAL GAVAGE","ABCD1234",NA,NA,"methocell",NA,NA,NA,"2011-01-09T07:43:24",NA,30,NA,NA,NA,NA,NA,NA,NA
"PDS2014","EX","PDS2014-0004",NA,91,"PDS-FAKEDRUG-111",0,NA,"mg/kg","SUSPENSION","QD","ORAL GAVAGE","ABCD1234",NA,NA,"methocell",NA,NA,NA,"2010-12-11T09:24:44",NA,1,NA,NA,NA,NA,NA,NA,NA
"PDS2014","EX","PDS2014-0004",NA,92,"PDS-FAKEDRUG-111",0,NA,"mg/kg","SUSPENSION","QD","ORAL GAVAGE","ABCD1234",NA,NA,"methocell",NA,NA,NA,"2010-12-12T10:27:40",NA,2,NA,NA,NA,NA,NA,NA,NA
"PDS2014","EX","PDS2014-0004",NA,93,"PDS-FAKEDRUG-111",0,NA,"mg/kg","SUSPENSION","QD","ORAL GAVAGE","ABCD1234",NA,NA,"methocell",NA,NA,NA,"2010-12-13T11:01:30",NA,3,NA,NA,NA,NA,NA,NA,NA
"PDS2014","EX","PDS2014-0004",NA,94,"PDS-FAKEDRUG-111",0,NA,"mg/kg","SUSPENSION","QD","ORAL GAVAGE","ABCD1234",NA,NA,"methocell",NA,NA,NA,"2010-12-14T09:46:20",NA,4,NA,NA,NA,NA,NA,NA,NA
"PDS2014","EX","PDS2014-0004",NA,95,"PDS-FAKEDRUG-111",0,NA,"mg/kg","SUSPENSION","QD","ORAL GAVAGE","ABCD1234",NA,NA,"methocell",NA,NA,NA,"2010-12-15T08:31:08",NA,5,NA,NA,NA,NA,NA,NA,NA
"PDS2014","EX","PDS2014-0004",NA,96,"PDS-FAKEDRUG-111",0,NA,"mg/kg","SUSPENSION","QD","ORAL GAVAGE","ABCD1234",NA,NA,"methocell",NA,NA,NA,"2010-12-16T08:53:11",NA,6,NA,NA,NA,NA,NA,NA,NA
"PDS2014","EX","PDS2014-0004",NA,97,"PDS-FAKEDRUG-111",0,NA,"mg/kg","SUSPENSION","QD","ORAL GAVAGE","ABCD1234",NA,NA,"methocell",NA,NA,NA,"2010-12-17T07:57:26",NA,7,NA,NA,NA,NA,NA,NA,NA
"PDS2014","EX","PDS2014-0004",NA,98,"PDS-FAKEDRUG-111",0,NA,"mg/kg","SUSPENSION","QD","ORAL GAVAGE","ABCD1234",NA,NA,"methocell",NA,NA,NA,"2010-12-18T08:02:49",NA,8,NA,NA,NA,NA,NA,NA,NA
"PDS2014","EX","PDS2014-0004",NA,99,"PDS-FAKEDRUG-111",0,NA,"mg/kg","SUSPENSION","QD","ORAL GAVAGE","ABCD1234",NA,NA,"methocell",NA,NA,NA,"2010-12-19T11:35:44",NA,9,NA,NA,NA,NA,NA,NA,NA
"PDS2014","EX","PDS2014-0004",NA,100,"PDS-FAKEDRUG-111",0,NA,"mg/kg","SUSPENSION","QD","ORAL GAVAGE","ABCD1234",NA,NA,"methocell",NA,NA,NA,"2010-12-20T10:49:12",NA,10,NA,NA,NA,NA,NA,NA,NA
"PDS2014","EX","PDS2014-0004",NA,101,"PDS-FAKEDRUG-111",0,NA,"mg/kg","SUSPENSION","QD","ORAL GAVAGE","ABCD1234",NA,NA,"methocell",NA,NA,NA,"2010-12-21T07:21:36",NA,11,NA,NA,NA,NA,NA,NA,NA
"PDS2014","EX","PDS2014-0004",NA,102,"PDS-FAKEDRUG-111",0,NA,"mg/kg","SUSPENSION","QD","ORAL GAVAGE","ABCD1234",NA,NA,"methocell",NA,NA,NA,"2010-12-22T08:01:45",NA,12,NA,NA,NA,NA,NA,NA,NA
"PDS2014","EX","PDS2014-0004",NA,103,"PDS-FAKEDRUG-111",0,NA,"mg/kg","SUSPENSION","QD","ORAL GAVAGE","ABCD1234",NA,NA,"methocell",NA,NA,NA,"2010-12-23T07:22:00",NA,13,NA,NA,NA,NA,NA,NA,NA
"PDS2014","EX","PDS2014-0004",NA,104,"PDS-FAKEDRUG-111",0,NA,"mg/kg","SUSPENSION","QD","ORAL GAVAGE","ABCD1234",NA,NA,"methocell",NA,NA,NA,"2010-12-24T07:50:22",NA,14,NA,NA,NA,NA,NA,NA,NA
"PDS2014","EX","PDS2014-0004",NA,105,"PDS-FAKEDRUG-111",0,NA,"mg/kg","SUSPENSION","QD","ORAL GAVAGE","ABCD1234",NA,NA,"methocell",NA,NA,NA,"2010-12-25T07:23:23",NA,15,NA,NA,NA,NA,NA,NA,NA
"PDS2014","EX","PDS2014-0004",NA,106,"PDS-FAKEDRUG-111",0,NA,"mg/kg","SUSPENSION","QD","ORAL GAVAGE","ABCD1234",NA,NA,"methocell",NA,NA,NA,"2010-12-26T07:03:45",NA,16,NA,NA,NA,NA,NA,NA,NA
"PDS2014","EX","PDS2014-0004",NA,107,"PDS-FAKEDRUG-111",0,NA,"mg/kg","SUSPENSION","QD","ORAL GAVAGE","ABCD1234",NA,NA,"methocell",NA,NA,NA,"2010-12-27T09:52:24",NA,17,NA,NA,NA,NA,NA,NA,NA
"PDS2014","EX","PDS2014-0004",NA,108,"PDS-FAKEDRUG-111",0,NA,"mg/kg","SUSPENSION","QD","ORAL GAVAGE","ABCD1234",NA,NA,"methocell",NA,NA,NA,"2010-12-28T07:50:03",NA,18,NA,NA,NA,NA,NA,NA,NA
"PDS2014","EX","PDS2014-0004",NA,109,"PDS-FAKEDRUG-111",0,NA,"mg/kg","SUSPENSION","QD","ORAL GAVAGE","ABCD1234",NA,NA,"methocell",NA,NA,NA,"2010-12-29T09:24:46",NA,19,NA,NA,NA,NA,NA,NA,NA
"PDS2014","EX","PDS2014-0004",NA,110,"PDS-FAKEDRUG-111",0,NA,"mg/kg","SUSPENSION","QD","ORAL GAVAGE","ABCD1234",NA,NA,"methocell",NA,NA,NA,"2010-12-30T08:00:38",NA,20,NA,NA,NA,NA,NA,NA,NA
"PDS2014","EX","PDS2014-0004",NA,111,"PDS-FAKEDRUG-111",0,NA,"mg/kg","SUSPENSION","QD","ORAL GAVAGE","ABCD1234",NA,NA,"methocell",NA,NA,NA,"2010-12-31T08:46:13",NA,21,NA,NA,NA,NA,NA,NA,NA
"PDS2014","EX","PDS2014-0004",NA,112,"PDS-FAKEDRUG-111",0,NA,"mg/kg","SUSPENSION","QD","ORAL GAVAGE","ABCD1234",NA,NA,"methocell",NA,NA,NA,"2011-01-01T06:37:37",NA,22,NA,NA,NA,NA,NA,NA,NA
"PDS2014","EX","PDS2014-0004",NA,113,"PDS-FAKEDRUG-111",0,NA,"mg/kg","SUSPENSION","QD","ORAL GAVAGE","ABCD1234",NA,NA,"methocell",NA,NA,NA,"2011-01-02T08:11:37",NA,23,NA,NA,NA,NA,NA,NA,NA
"PDS2014","EX","PDS2014-0004",NA,114,"PDS-FAKEDRUG-111",0,NA,"mg/kg","SUSPENSION","QD","ORAL GAVAGE","ABCD1234",NA,NA,"methocell",NA,NA,NA,"2011-01-03T08:30:44",NA,24,NA,NA,NA,NA,NA,NA,NA
"PDS2014","EX","PDS2014-0004",NA,115,"PDS-FAKEDRUG-111",0,NA,"mg/kg","SUSPENSION","QD","ORAL GAVAGE","ABCD1234",NA,NA,"methocell",NA,NA,NA,"2011-01-04T08:21:25",NA,25,NA,NA,NA,NA,NA,NA,NA
"PDS2014","EX","PDS2014-0004",NA,116,"PDS-FAKEDRUG-111",0,NA,"mg/kg","SUSPENSION","QD","ORAL GAVAGE","ABCD1234",NA,NA,"methocell",NA,NA,NA,"2011-01-05T08:12:59",NA,26,NA,NA,NA,NA,NA,NA,NA
"PDS2014","EX","PDS2014-0004",NA,117,"PDS-FAKEDRUG-111",0,NA,"mg/kg","SUSPENSION","QD","ORAL GAVAGE","ABCD1234",NA,NA,"methocell",NA,NA,NA,"2011-01-06T08:49:15",NA,27,NA,NA,NA,NA,NA,NA,NA
"PDS2014","EX","PDS2014-0004",NA,118,"PDS-FAKEDRUG-111",0,NA,"mg/kg","SUSPENSION","QD","ORAL GAVAGE","ABCD1234",NA,NA,"methocell",NA,NA,NA,"2011-01-07T07:14:00",NA,28,NA,NA,NA,NA,NA,NA,NA
"PDS2014","EX","PDS2014-0004",NA,119,"PDS-FAKEDRUG-111",0,NA,"mg/kg","SUSPENSION","QD","ORAL GAVAGE","ABCD1234",NA,NA,"methocell",NA,NA,NA,"2011-01-08T07:09:13",NA,29,NA,NA,NA,NA,NA,NA,NA
"PDS2014","EX","PDS2014-0004",NA,120,"PDS-FAKEDRUG-111",0,NA,"mg/kg","SUSPENSION","QD","ORAL GAVAGE","ABCD1234",NA,NA,"methocell",NA,NA,NA,"2011-01-09T07:44:38",NA,30,NA,NA,NA,NA,NA,NA,NA
"PDS2014","EX","PDS2014-0005",NA,121,"PDS-FAKEDRUG-111",0,NA,"mg/kg","SUSPENSION","QD","ORAL GAVAGE","ABCD1234",NA,NA,"methocell",NA,NA,NA,"2010-12-11T09:29:02",NA,1,NA,NA,NA,NA,NA,NA,NA
"PDS2014","EX","PDS2014-0005",NA,122,"PDS-FAKEDRUG-111",0,NA,"mg/kg","SUSPENSION","QD","ORAL GAVAGE","ABCD1234",NA,NA,"methocell",NA,NA,NA,"2010-12-12T10:28:02",NA,2,NA,NA,NA,NA,NA,NA,NA
"PDS2014","EX","PDS2014-0005",NA,123,"PDS-FAKEDRUG-111",0,NA,"mg/kg","SUSPENSION","QD","ORAL GAVAGE","ABCD1234",NA,NA,"methocell",NA,NA,NA,"2010-12-13T11:02:05",NA,3,NA,NA,NA,NA,NA,NA,NA
"PDS2014","EX","PDS2014-0005",NA,124,"PDS-FAKEDRUG-111",0,NA,"mg/kg","SUSPENSION","QD","ORAL GAVAGE","ABCD1234",NA,NA,"methocell",NA,NA,NA,"2010-12-14T09:46:44",NA,4,NA,NA,NA,NA,NA,NA,NA
"PDS2014","EX","PDS2014-0005",NA,125,"PDS-FAKEDRUG-111",0,NA,"mg/kg","SUSPENSION","QD","ORAL GAVAGE","ABCD1234",NA,NA,"methocell",NA,NA,NA,"2010-12-15T08:30:46",NA,5,NA,NA,NA,NA,NA,NA,NA
"PDS2014","EX","PDS2014-0005",NA,126,"PDS-FAKEDRUG-111",0,NA,"mg/kg","SUSPENSION","QD","ORAL GAVAGE","ABCD1234",NA,NA,"methocell",NA,NA,NA,"2010-12-16T08:52:33",NA,6,NA,NA,NA,NA,NA,NA,NA
"PDS2014","EX","PDS2014-0005",NA,127,"PDS-FAKEDRUG-111",0,NA,"mg/kg","SUSPENSION","QD","ORAL GAVAGE","ABCD1234",NA,NA,"methocell",NA,NA,NA,"2010-12-17T07:57:05",NA,7,NA,NA,NA,NA,NA,NA,NA
"PDS2014","EX","PDS2014-0005",NA,128,"PDS-FAKEDRUG-111",0,NA,"mg/kg","SUSPENSION","QD","ORAL GAVAGE","ABCD1234",NA,NA,"methocell",NA,NA,NA,"2010-12-18T08:03:54",NA,8,NA,NA,NA,NA,NA,NA,NA
"PDS2014","EX","PDS2014-0005",NA,129,"PDS-FAKEDRUG-111",0,NA,"mg/kg","SUSPENSION","QD","ORAL GAVAGE","ABCD1234",NA,NA,"methocell",NA,NA,NA,"2010-12-19T11:35:01",NA,9,NA,NA,NA,NA,NA,NA,NA
"PDS2014","EX","PDS2014-0005",NA,130,"PDS-FAKEDRUG-111",0,NA,"mg/kg","SUSPENSION","QD","ORAL GAVAGE","ABCD1234",NA,NA,"methocell",NA,NA,NA,"2010-12-20T10:49:55",NA,10,NA,NA,NA,NA,NA,NA,NA
"PDS2014","EX","PDS2014-0005",NA,131,"PDS-FAKEDRUG-111",0,NA,"mg/kg","SUSPENSION","QD","ORAL GAVAGE","ABCD1234",NA,NA,"methocell",NA,NA,NA,"2010-12-21T07:22:47",NA,11,NA,NA,NA,NA,NA,NA,NA
"PDS2014","EX","PDS2014-0005",NA,132,"PDS-FAKEDRUG-111",0,NA,"mg/kg","SUSPENSION","QD","ORAL GAVAGE","ABCD1234",NA,NA,"methocell",NA,NA,NA,"2010-12-22T08:02:46",NA,12,NA,NA,NA,NA,NA,NA,NA
"PDS2014","EX","PDS2014-0005",NA,133,"PDS-FAKEDRUG-111",0,NA,"mg/kg","SUSPENSION","QD","ORAL GAVAGE","ABCD1234",NA,NA,"methocell",NA,NA,NA,"2010-12-23T07:21:17",NA,13,NA,NA,NA,NA,NA,NA,NA
"PDS2014","EX","PDS2014-0005",NA,134,"PDS-FAKEDRUG-111",0,NA,"mg/kg","SUSPENSION","QD","ORAL GAVAGE","ABCD1234",NA,NA,"methocell",NA,NA,NA,"2010-12-24T07:51:10",NA,14,NA,NA,NA,NA,NA,NA,NA
"PDS2014","EX","PDS2014-0005",NA,135,"PDS-FAKEDRUG-111",0,NA,"mg/kg","SUSPENSION","QD","ORAL GAVAGE","ABCD1234",NA,NA,"methocell",NA,NA,NA,"2010-12-25T07:26:06",NA,15,NA,NA,NA,NA,NA,NA,NA
"PDS2014","EX","PDS2014-0005",NA,136,"PDS-FAKEDRUG-111",0,NA,"mg/kg","SUSPENSION","QD","ORAL GAVAGE","ABCD1234",NA,NA,"methocell",NA,NA,NA,"2010-12-26T07:06:02",NA,16,NA,NA,NA,NA,NA,NA,NA
"PDS2014","EX","PDS2014-0005",NA,137,"PDS-FAKEDRUG-111",0,NA,"mg/kg","SUSPENSION","QD","ORAL GAVAGE","ABCD1234",NA,NA,"methocell",NA,NA,NA,"2010-12-27T09:51:57",NA,17,NA,NA,NA,NA,NA,NA,NA
"PDS2014","EX","PDS2014-0005",NA,138,"PDS-FAKEDRUG-111",0,NA,"mg/kg","SUSPENSION","QD","ORAL GAVAGE","ABCD1234",NA,NA,"methocell",NA,NA,NA,"2010-12-28T07:49:22",NA,18,NA,NA,NA,NA,NA,NA,NA
"PDS2014","EX","PDS2014-0005",NA,139,"PDS-FAKEDRUG-111",0,NA,"mg/kg","SUSPENSION","QD","ORAL GAVAGE","ABCD1234",NA,NA,"methocell",NA,NA,NA,"2010-12-29T09:23:35",NA,19,NA,NA,NA,NA,NA,NA,NA
"PDS2014","EX","PDS2014-0005",NA,140,"PDS-FAKEDRUG-111",0,NA,"mg/kg","SUSPENSION","QD","ORAL GAVAGE","ABCD1234",NA,NA,"methocell",NA,NA,NA,"2010-12-30T08:01:32",NA,20,NA,NA,NA,NA,NA,NA,NA
"PDS2014","EX","PDS2014-0005",NA,141,"PDS-FAKEDRUG-111",0,NA,"mg/kg","SUSPENSION","QD","ORAL GAVAGE","ABCD1234",NA,NA,"methocell",NA,NA,NA,"2010-12-31T08:45:42",NA,21,NA,NA,NA,NA,NA,NA,NA
"PDS2014","EX","PDS2014-0005",NA,142,"PDS-FAKEDRUG-111",0,NA,"mg/kg","SUSPENSION","QD","ORAL GAVAGE","ABCD1234",NA,NA,"methocell",NA,NA,NA,"2011-01-01T06:36:46",NA,22,NA,NA,NA,NA,NA,NA,NA
"PDS2014","EX","PDS2014-0005",NA,143,"PDS-FAKEDRUG-111",0,NA,"mg/kg","SUSPENSION","QD","ORAL GAVAGE","ABCD1234",NA,NA,"methocell",NA,NA,NA,"2011-01-02T08:10:56",NA,23,NA,NA,NA,NA,NA,NA,NA
"PDS2014","EX","PDS2014-0005",NA,144,"PDS-FAKEDRUG-111",0,NA,"mg/kg","SUSPENSION","QD","ORAL GAVAGE","ABCD1234",NA,NA,"methocell",NA,NA,NA,"2011-01-03T08:30:29",NA,24,NA,NA,NA,NA,NA,NA,NA
"PDS2014","EX","PDS2014-0005",NA,145,"PDS-FAKEDRUG-111",0,NA,"mg/kg","SUSPENSION","QD","ORAL GAVAGE","ABCD1234",NA,NA,"methocell",NA,NA,NA,"2011-01-04T08:21:56",NA,25,NA,NA,NA,NA,NA,NA,NA
"PDS2014","EX","PDS2014-0005",NA,146,"PDS-FAKEDRUG-111",0,NA,"mg/kg","SUSPENSION","QD","ORAL GAVAGE","ABCD1234",NA,NA,"methocell",NA,NA,NA,"2011-01-05T08:12:34",NA,26,NA,NA,NA,NA,NA,NA,NA
"PDS2014","EX","PDS2014-0005",NA,147,"PDS-FAKEDRUG-111",0,NA,"mg/kg","SUSPENSION","QD","ORAL GAVAGE","ABCD1234",NA,NA,"methocell",NA,NA,NA,"2011-01-06T08:48:34",NA,27,NA,NA,NA,NA,NA,NA,NA
"PDS2014","EX","PDS2014-0005",NA,148,"PDS-FAKEDRUG-111",0,NA,"mg/kg","SUSPENSION","QD","ORAL GAVAGE","ABCD1234",NA,NA,"methocell",NA,NA,NA,"2011-01-07T07:13:39",NA,28,NA,NA,NA,NA,NA,NA,NA
"PDS2014","EX","PDS2014-0005",NA,149,"PDS-FAKEDRUG-111",0,NA,"mg/kg","SUSPENSION","QD","ORAL GAVAGE","ABCD1234",NA,NA,"methocell",NA,NA,NA,"2011-01-08T07:11:57",NA,29,NA,NA,NA,NA,NA,NA,NA
"PDS2014","EX","PDS2014-0005",NA,150,"PDS-FAKEDRUG-111",0,NA,"mg/kg","SUSPENSION","QD","ORAL GAVAGE","ABCD1234",NA,NA,"methocell",NA,NA,NA,"2011-01-09T07:45:49",NA,30,NA,NA,NA,NA,NA,NA,NA
"PDS2014","EX","PDS2014-0006",NA,151,"PDS-FAKEDRUG-111",0,NA,"mg/kg","SUSPENSION","QD","ORAL GAVAGE","ABCD1234",NA,NA,"methocell",NA,NA,NA,"2010-12-11T09:33:03",NA,1,NA,NA,NA,NA,NA,NA,NA
"PDS2014","EX","PDS2014-0006",NA,152,"PDS-FAKEDRUG-111",0,NA,"mg/kg","SUSPENSION","QD","ORAL GAVAGE","ABCD1234",NA,NA,"methocell",NA,NA,NA,"2010-12-12T10:32:43",NA,2,NA,NA,NA,NA,NA,NA,NA
"PDS2014","EX","PDS2014-0006",NA,153,"PDS-FAKEDRUG-111",0,NA,"mg/kg","SUSPENSION","QD","ORAL GAVAGE","ABCD1234",NA,NA,"methocell",NA,NA,NA,"2010-12-13T11:04:42",NA,3,NA,NA,NA,NA,NA,NA,NA
"PDS2014","EX","PDS2014-0006",NA,154,"PDS-FAKEDRUG-111",0,NA,"mg/kg","SUSPENSION","QD","ORAL GAVAGE","ABCD1234",NA,NA,"methocell",NA,NA,NA,"2010-12-14T09:47:56",NA,4,NA,NA,NA,NA,NA,NA,NA
"PDS2014","EX","PDS2014-0006",NA,155,"PDS-FAKEDRUG-111",0,NA,"mg/kg","SUSPENSION","QD","ORAL GAVAGE","ABCD1234",NA,NA,"methocell",NA,NA,NA,"2010-12-15T08:32:29",NA,5,NA,NA,NA,NA,NA,NA,NA
"PDS2014","EX","PDS2014-0006",NA,156,"PDS-FAKEDRUG-111",0,NA,"mg/kg","SUSPENSION","QD","ORAL GAVAGE","ABCD1234",NA,NA,"methocell",NA,NA,NA,"2010-12-16T08:53:25",NA,6,NA,NA,NA,NA,NA,NA,NA
"PDS2014","EX","PDS2014-0006",NA,157,"PDS-FAKEDRUG-111",0,NA,"mg/kg","SUSPENSION","QD","ORAL GAVAGE","ABCD1234",NA,NA,"methocell",NA,NA,NA,"2010-12-17T08:00:30",NA,7,NA,NA,NA,NA,NA,NA,NA
"PDS2014","EX","PDS2014-0006",NA,158,"PDS-FAKEDRUG-111",0,NA,"mg/kg","SUSPENSION","QD","ORAL GAVAGE","ABCD1234",NA,NA,"methocell",NA,NA,NA,"2010-12-18T08:05:56",NA,8,NA,NA,NA,NA,NA,NA,NA
"PDS2014","EX","PDS2014-0006",NA,159,"PDS-FAKEDRUG-111",0,NA,"mg/kg","SUSPENSION","QD","ORAL GAVAGE","ABCD1234",NA,NA,"methocell",NA,NA,NA,"2010-12-19T11:36:56",NA,9,NA,NA,NA,NA,NA,NA,NA
"PDS2014","EX","PDS2014-0006",NA,160,"PDS-FAKEDRUG-111",0,NA,"mg/kg","SUSPENSION","QD","ORAL GAVAGE","ABCD1234",NA,NA,"methocell",NA,NA,NA,"2010-12-20T10:56:48",NA,10,NA,NA,NA,NA,NA,NA,NA
"PDS2014","EX","PDS2014-0006",NA,161,"PDS-FAKEDRUG-111",0,NA,"mg/kg","SUSPENSION","QD","ORAL GAVAGE","ABCD1234",NA,NA,"methocell",NA,NA,NA,"2010-12-21T07:24:40",NA,11,NA,NA,NA,NA,NA,NA,NA
"PDS2014","EX","PDS2014-0006",NA,162,"PDS-FAKEDRUG-111",0,NA,"mg/kg","SUSPENSION","QD","ORAL GAVAGE","ABCD1234",NA,NA,"methocell",NA,NA,NA,"2010-12-22T08:06:11",NA,12,NA,NA,NA,NA,NA,NA,NA
"PDS2014","EX","PDS2014-0006",NA,163,"PDS-FAKEDRUG-111",0,NA,"mg/kg","SUSPENSION","QD","ORAL GAVAGE","ABCD1234",NA,NA,"methocell",NA,NA,NA,"2010-12-23T07:25:59",NA,13,NA,NA,NA,NA,NA,NA,NA
"PDS2014","EX","PDS2014-0006",NA,164,"PDS-FAKEDRUG-111",0,NA,"mg/kg","SUSPENSION","QD","ORAL GAVAGE","ABCD1234",NA,NA,"methocell",NA,NA,NA,"2010-12-24T07:55:53",NA,14,NA,NA,NA,NA,NA,NA,NA
"PDS2014","EX","PDS2014-0006",NA,165,"PDS-FAKEDRUG-111",0,NA,"mg/kg","SUSPENSION","QD","ORAL GAVAGE","ABCD1234",NA,NA,"methocell",NA,NA,NA,"2010-12-25T07:29:15",NA,15,NA,NA,NA,NA,NA,NA,NA
"PDS2014","EX","PDS2014-0006",NA,166,"PDS-FAKEDRUG-111",0,NA,"mg/kg","SUSPENSION","QD","ORAL GAVAGE","ABCD1234",NA,NA,"methocell",NA,NA,NA,"2010-12-26T07:09:07",NA,16,NA,NA,NA,NA,NA,NA,NA
"PDS2014","EX","PDS2014-0006",NA,167,"PDS-FAKEDRUG-111",0,NA,"mg/kg","SUSPENSION","QD","ORAL GAVAGE","ABCD1234",NA,NA,"methocell",NA,NA,NA,"2010-12-27T09:54:56",NA,17,NA,NA,NA,NA,NA,NA,NA
"PDS2014","EX","PDS2014-0006",NA,168,"PDS-FAKEDRUG-111",0,NA,"mg/kg","SUSPENSION","QD","ORAL GAVAGE","ABCD1234",NA,NA,"methocell",NA,NA,NA,"2010-12-28T07:53:27",NA,18,NA,NA,NA,NA,NA,NA,NA
"PDS2014","EX","PDS2014-0006",NA,169,"PDS-FAKEDRUG-111",0,NA,"mg/kg","SUSPENSION","QD","ORAL GAVAGE","ABCD1234",NA,NA,"methocell",NA,NA,NA,"2010-12-29T09:29:14",NA,19,NA,NA,NA,NA,NA,NA,NA
"PDS2014","EX","PDS2014-0006",NA,170,"PDS-FAKEDRUG-111",0,NA,"mg/kg","SUSPENSION","QD","ORAL GAVAGE","ABCD1234",NA,NA,"methocell",NA,NA,NA,"2010-12-30T08:04:31",NA,20,NA,NA,NA,NA,NA,NA,NA
"PDS2014","EX","PDS2014-0006",NA,171,"PDS-FAKEDRUG-111",0,NA,"mg/kg","SUSPENSION","QD","ORAL GAVAGE","ABCD1234",NA,NA,"methocell",NA,NA,NA,"2010-12-31T08:47:32",NA,21,NA,NA,NA,NA,NA,NA,NA
"PDS2014","EX","PDS2014-0006",NA,172,"PDS-FAKEDRUG-111",0,NA,"mg/kg","SUSPENSION","QD","ORAL GAVAGE","ABCD1234",NA,NA,"methocell",NA,NA,NA,"2011-01-01T06:39:23",NA,22,NA,NA,NA,NA,NA,NA,NA
"PDS2014","EX","PDS2014-0006",NA,173,"PDS-FAKEDRUG-111",0,NA,"mg/kg","SUSPENSION","QD","ORAL GAVAGE","ABCD1234",NA,NA,"methocell",NA,NA,NA,"2011-01-02T08:14:26",NA,23,NA,NA,NA,NA,NA,NA,NA
"PDS2014","EX","PDS2014-0006",NA,174,"PDS-FAKEDRUG-111",0,NA,"mg/kg","SUSPENSION","QD","ORAL GAVAGE","ABCD1234",NA,NA,"methocell",NA,NA,NA,"2011-01-03T08:32:56",NA,24,NA,NA,NA,NA,NA,NA,NA
"PDS2014","EX","PDS2014-0006",NA,175,"PDS-FAKEDRUG-111",0,NA,"mg/kg","SUSPENSION","QD","ORAL GAVAGE","ABCD1234",NA,NA,"methocell",NA,NA,NA,"2011-01-04T08:23:32",NA,25,NA,NA,NA,NA,NA,NA,NA
"PDS2014","EX","PDS2014-0006",NA,176,"PDS-FAKEDRUG-111",0,NA,"mg/kg","SUSPENSION","QD","ORAL GAVAGE","ABCD1234",NA,NA,"methocell",NA,NA,NA,"2011-01-05T08:14:58",NA,26,NA,NA,NA,NA,NA,NA,NA
"PDS2014","EX","PDS2014-0006",NA,177,"PDS-FAKEDRUG-111",0,NA,"mg/kg","SUSPENSION","QD","ORAL GAVAGE","ABCD1234",NA,NA,"methocell",NA,NA,NA,"2011-01-06T08:51:17",NA,27,NA,NA,NA,NA,NA,NA,NA
"PDS2014","EX","PDS2014-0006",NA,178,"PDS-FAKEDRUG-111",0,NA,"mg/kg","SUSPENSION","QD","ORAL GAVAGE","ABCD1234",NA,NA,"methocell",NA,NA,NA,"2011-01-07T07:23:22",NA,28,NA,NA,NA,NA,NA,NA,NA
"PDS2014","EX","PDS2014-0006",NA,179,"PDS-FAKEDRUG-111",0,NA,"mg/kg","SUSPENSION","QD","ORAL GAVAGE","ABCD1234",NA,NA,"methocell",NA,NA,NA,"2011-01-08T07:13:53",NA,29,NA,NA,NA,NA,NA,NA,NA
"PDS2014","EX","PDS2014-0006",NA,180,"PDS-FAKEDRUG-111",0,NA,"mg/kg","SUSPENSION","QD","ORAL GAVAGE","ABCD1234",NA,NA,"methocell",NA,NA,NA,"2011-01-09T10:53:12",NA,30,NA,NA,NA,NA,NA,NA,NA
"PDS2014","EX","PDS2014-0007",NA,181,"PDS-FAKEDRUG-111",0,NA,"mg/kg","SUSPENSION","QD","ORAL GAVAGE","ABCD1234",NA,NA,"methocell",NA,NA,NA,"2010-12-11T09:32:35",NA,1,NA,NA,NA,NA,NA,NA,NA
"PDS2014","EX","PDS2014-0007",NA,182,"PDS-FAKEDRUG-111",0,NA,"mg/kg","SUSPENSION","QD","ORAL GAVAGE","ABCD1234",NA,NA,"methocell",NA,NA,NA,"2010-12-12T10:31:38",NA,2,NA,NA,NA,NA,NA,NA,NA
"PDS2014","EX","PDS2014-0007",NA,183,"PDS-FAKEDRUG-111",0,NA,"mg/kg","SUSPENSION","QD","ORAL GAVAGE","ABCD1234",NA,NA,"methocell",NA,NA,NA,"2010-12-13T11:05:49",NA,3,NA,NA,NA,NA,NA,NA,NA
"PDS2014","EX","PDS2014-0007",NA,184,"PDS-FAKEDRUG-111",0,NA,"mg/kg","SUSPENSION","QD","ORAL GAVAGE","ABCD1234",NA,NA,"methocell",NA,NA,NA,"2010-12-14T09:49:13",NA,4,NA,NA,NA,NA,NA,NA,NA
"PDS2014","EX","PDS2014-0007",NA,185,"PDS-FAKEDRUG-111",0,NA,"mg/kg","SUSPENSION","QD","ORAL GAVAGE","ABCD1234",NA,NA,"methocell",NA,NA,NA,"2010-12-15T08:33:27",NA,5,NA,NA,NA,NA,NA,NA,NA
"PDS2014","EX","PDS2014-0007",NA,186,"PDS-FAKEDRUG-111",0,NA,"mg/kg","SUSPENSION","QD","ORAL GAVAGE","ABCD1234",NA,NA,"methocell",NA,NA,NA,"2010-12-16T08:55:04",NA,6,NA,NA,NA,NA,NA,NA,NA
"PDS2014","EX","PDS2014-0007",NA,187,"PDS-FAKEDRUG-111",0,NA,"mg/kg","SUSPENSION","QD","ORAL GAVAGE","ABCD1234",NA,NA,"methocell",NA,NA,NA,"2010-12-17T07:59:41",NA,7,NA,NA,NA,NA,NA,NA,NA
"PDS2014","EX","PDS2014-0007",NA,188,"PDS-FAKEDRUG-111",0,NA,"mg/kg","SUSPENSION","QD","ORAL GAVAGE","ABCD1234",NA,NA,"methocell",NA,NA,NA,"2010-12-18T08:06:28",NA,8,NA,NA,NA,NA,NA,NA,NA
"PDS2014","EX","PDS2014-0007",NA,189,"PDS-FAKEDRUG-111",0,NA,"mg/kg","SUSPENSION","QD","ORAL GAVAGE","ABCD1234",NA,NA,"methocell",NA,NA,NA,"2010-12-19T11:37:16",NA,9,NA,NA,NA,NA,NA,NA,NA
"PDS2014","EX","PDS2014-0007",NA,190,"PDS-FAKEDRUG-111",0,NA,"mg/kg","SUSPENSION","QD","ORAL GAVAGE","ABCD1234",NA,NA,"methocell",NA,NA,NA,"2010-12-20T10:55:46",NA,10,NA,NA,NA,NA,NA,NA,NA
"PDS2014","EX","PDS2014-0007",NA,191,"PDS-FAKEDRUG-111",0,NA,"mg/kg","SUSPENSION","QD","ORAL GAVAGE","ABCD1234",NA,NA,"methocell",NA,NA,NA,"2010-12-21T07:26:09",NA,11,NA,NA,NA,NA,NA,NA,NA
"PDS2014","EX","PDS2014-0007",NA,192,"PDS-FAKEDRUG-111",0,NA,"mg/kg","SUSPENSION","QD","ORAL GAVAGE","ABCD1234",NA,NA,"methocell",NA,NA,NA,"2010-12-22T08:04:45",NA,12,NA,NA,NA,NA,NA,NA,NA
"PDS2014","EX","PDS2014-0007",NA,193,"PDS-FAKEDRUG-111",0,NA,"mg/kg","SUSPENSION","QD","ORAL GAVAGE","ABCD1234",NA,NA,"methocell",NA,NA,NA,"2010-12-23T07:24:24",NA,13,NA,NA,NA,NA,NA,NA,NA
"PDS2014","EX","PDS2014-0007",NA,194,"PDS-FAKEDRUG-111",0,NA,"mg/kg","SUSPENSION","QD","ORAL GAVAGE","ABCD1234",NA,NA,"methocell",NA,NA,NA,"2010-12-24T07:54:44",NA,14,NA,NA,NA,NA,NA,NA,NA
"PDS2014","EX","PDS2014-0007",NA,195,"PDS-FAKEDRUG-111",0,NA,"mg/kg","SUSPENSION","QD","ORAL GAVAGE","ABCD1234",NA,NA,"methocell",NA,NA,NA,"2010-12-25T07:28:20",NA,15,NA,NA,NA,NA,NA,NA,NA
"PDS2014","EX","PDS2014-0007",NA,196,"PDS-FAKEDRUG-111",0,NA,"mg/kg","SUSPENSION","QD","ORAL GAVAGE","ABCD1234",NA,NA,"methocell",NA,NA,NA,"2010-12-26T07:07:18",NA,16,NA,NA,NA,NA,NA,NA,NA
"PDS2014","EX","PDS2014-0007",NA,197,"PDS-FAKEDRUG-111",0,NA,"mg/kg","SUSPENSION","QD","ORAL GAVAGE","ABCD1234",NA,NA,"methocell",NA,NA,NA,"2010-12-27T09:55:24",NA,17,NA,NA,NA,NA,NA,NA,NA
"PDS2014","EX","PDS2014-0007",NA,198,"PDS-FAKEDRUG-111",0,NA,"mg/kg","SUSPENSION","QD","ORAL GAVAGE","ABCD1234",NA,NA,"methocell",NA,NA,NA,"2010-12-28T07:50:39",NA,18,NA,NA,NA,NA,NA,NA,NA
"PDS2014","EX","PDS2014-0007",NA,199,"PDS-FAKEDRUG-111",0,NA,"mg/kg","SUSPENSION","QD","ORAL GAVAGE","ABCD1234",NA,NA,"methocell",NA,NA,NA,"2010-12-29T09:29:41",NA,19,NA,NA,NA,NA,NA,NA,NA
"PDS2014","EX","PDS2014-0007",NA,200,"PDS-FAKEDRUG-111",0,NA,"mg/kg","SUSPENSION","QD","ORAL GAVAGE","ABCD1234",NA,NA,"methocell",NA,NA,NA,"2010-12-30T08:02:08",NA,20,NA,NA,NA,NA,NA,NA,NA
"PDS2014","EX","PDS2014-0007",NA,201,"PDS-FAKEDRUG-111",0,NA,"mg/kg","SUSPENSION","QD","ORAL GAVAGE","ABCD1234",NA,NA,"methocell",NA,NA,NA,"2010-12-31T08:49:16",NA,21,NA,NA,NA,NA,NA,NA,NA
"PDS2014","EX","PDS2014-0007",NA,202,"PDS-FAKEDRUG-111",0,NA,"mg/kg","SUSPENSION","QD","ORAL GAVAGE","ABCD1234",NA,NA,"methocell",NA,NA,NA,"2011-01-01T06:41:29",NA,22,NA,NA,NA,NA,NA,NA,NA
"PDS2014","EX","PDS2014-0007",NA,203,"PDS-FAKEDRUG-111",0,NA,"mg/kg","SUSPENSION","QD","ORAL GAVAGE","ABCD1234",NA,NA,"methocell",NA,NA,NA,"2011-01-02T08:12:54",NA,23,NA,NA,NA,NA,NA,NA,NA
"PDS2014","EX","PDS2014-0007",NA,204,"PDS-FAKEDRUG-111",0,NA,"mg/kg","SUSPENSION","QD","ORAL GAVAGE","ABCD1234",NA,NA,"methocell",NA,NA,NA,"2011-01-03T08:33:33",NA,24,NA,NA,NA,NA,NA,NA,NA
"PDS2014","EX","PDS2014-0007",NA,205,"PDS-FAKEDRUG-111",0,NA,"mg/kg","SUSPENSION","QD","ORAL GAVAGE","ABCD1234",NA,NA,"methocell",NA,NA,NA,"2011-01-04T08:26:12",NA,25,NA,NA,NA,NA,NA,NA,NA
"PDS2014","EX","PDS2014-0007",NA,206,"PDS-FAKEDRUG-111",0,NA,"mg/kg","SUSPENSION","QD","ORAL GAVAGE","ABCD1234",NA,NA,"methocell",NA,NA,NA,"2011-01-05T08:14:08",NA,26,NA,NA,NA,NA,NA,NA,NA
"PDS2014","EX","PDS2014-0007",NA,207,"PDS-FAKEDRUG-111",0,NA,"mg/kg","SUSPENSION","QD","ORAL GAVAGE","ABCD1234",NA,NA,"methocell",NA,NA,NA,"2011-01-06T08:51:41",NA,27,NA,NA,NA,NA,NA,NA,NA
"PDS2014","EX","PDS2014-0007",NA,208,"PDS-FAKEDRUG-111",0,NA,"mg/kg","SUSPENSION","QD","ORAL GAVAGE","ABCD1234",NA,NA,"methocell",NA,NA,NA,"2011-01-07T07:22:25",NA,28,NA,NA,NA,NA,NA,NA,NA
"PDS2014","EX","PDS2014-0007",NA,209,"PDS-FAKEDRUG-111",0,NA,"mg/kg","SUSPENSION","QD","ORAL GAVAGE","ABCD1234",NA,NA,"methocell",NA,NA,NA,"2011-01-08T07:16:11",NA,29,NA,NA,NA,NA,NA,NA,NA
"PDS2014","EX","PDS2014-0007",NA,210,"PDS-FAKEDRUG-111",0,NA,"mg/kg","SUSPENSION","QD","ORAL GAVAGE","ABCD1234",NA,NA,"methocell",NA,NA,NA,"2011-01-09T10:52:16",NA,30,NA,NA,NA,NA,NA,NA,NA
"PDS2014","EX","PDS2014-0008",NA,211,"PDS-FAKEDRUG-111",0,NA,"mg/kg","SUSPENSION","QD","ORAL GAVAGE","ABCD1234",NA,NA,"methocell",NA,NA,NA,"2010-12-11T09:31:48",NA,1,NA,NA,NA,NA,NA,NA,NA
"PDS2014","EX","PDS2014-0008",NA,212,"PDS-FAKEDRUG-111",0,NA,"mg/kg","SUSPENSION","QD","ORAL GAVAGE","ABCD1234",NA,NA,"methocell",NA,NA,NA,"2010-12-12T10:29:24",NA,2,NA,NA,NA,NA,NA,NA,NA
"PDS2014","EX","PDS2014-0008",NA,213,"PDS-FAKEDRUG-111",0,NA,"mg/kg","SUSPENSION","QD","ORAL GAVAGE","ABCD1234",NA,NA,"methocell",NA,NA,NA,"2010-12-13T11:08:43",NA,3,NA,NA,NA,NA,NA,NA,NA
"PDS2014","EX","PDS2014-0008",NA,214,"PDS-FAKEDRUG-111",0,NA,"mg/kg","SUSPENSION","QD","ORAL GAVAGE","ABCD1234",NA,NA,"methocell",NA,NA,NA,"2010-12-14T09:49:51",NA,4,NA,NA,NA,NA,NA,NA,NA
"PDS2014","EX","PDS2014-0008",NA,215,"PDS-FAKEDRUG-111",0,NA,"mg/kg","SUSPENSION","QD","ORAL GAVAGE","ABCD1234",NA,NA,"methocell",NA,NA,NA,"2010-12-15T08:31:23",NA,5,NA,NA,NA,NA,NA,NA,NA
"PDS2014","EX","PDS2014-0008",NA,216,"PDS-FAKEDRUG-111",0,NA,"mg/kg","SUSPENSION","QD","ORAL GAVAGE","ABCD1234",NA,NA,"methocell",NA,NA,NA,"2010-12-16T08:53:54",NA,6,NA,NA,NA,NA,NA,NA,NA
"PDS2014","EX","PDS2014-0008",NA,217,"PDS-FAKEDRUG-111",0,NA,"mg/kg","SUSPENSION","QD","ORAL GAVAGE","ABCD1234",NA,NA,"methocell",NA,NA,NA,"2010-12-17T08:01:41",NA,7,NA,NA,NA,NA,NA,NA,NA
"PDS2014","EX","PDS2014-0008",NA,218,"PDS-FAKEDRUG-111",0,NA,"mg/kg","SUSPENSION","QD","ORAL GAVAGE","ABCD1234",NA,NA,"methocell",NA,NA,NA,"2010-12-18T08:07:41",NA,8,NA,NA,NA,NA,NA,NA,NA
"PDS2014","EX","PDS2014-0008",NA,219,"PDS-FAKEDRUG-111",0,NA,"mg/kg","SUSPENSION","QD","ORAL GAVAGE","ABCD1234",NA,NA,"methocell",NA,NA,NA,"2010-12-19T11:40:22",NA,9,NA,NA,NA,NA,NA,NA,NA
"PDS2014","EX","PDS2014-0008",NA,220,"PDS-FAKEDRUG-111",0,NA,"mg/kg","SUSPENSION","QD","ORAL GAVAGE","ABCD1234",NA,NA,"methocell",NA,NA,NA,"2010-12-20T10:55:12",NA,10,NA,NA,NA,NA,NA,NA,NA
"PDS2014","EX","PDS2014-0008",NA,221,"PDS-FAKEDRUG-111",0,NA,"mg/kg","SUSPENSION","QD","ORAL GAVAGE","ABCD1234",NA,NA,"methocell",NA,NA,NA,"2010-12-21T07:23:26",NA,11,NA,NA,NA,NA,NA,NA,NA
"PDS2014","EX","PDS2014-0008",NA,222,"PDS-FAKEDRUG-111",0,NA,"mg/kg","SUSPENSION","QD","ORAL GAVAGE","ABCD1234",NA,NA,"methocell",NA,NA,NA,"2010-12-22T08:05:14",NA,12,NA,NA,NA,NA,NA,NA,NA
"PDS2014","EX","PDS2014-0008",NA,223,"PDS-FAKEDRUG-111",0,NA,"mg/kg","SUSPENSION","QD","ORAL GAVAGE","ABCD1234",NA,NA,"methocell",NA,NA,NA,"2010-12-23T07:23:46",NA,13,NA,NA,NA,NA,NA,NA,NA
"PDS2014","EX","PDS2014-0008",NA,224,"PDS-FAKEDRUG-111",0,NA,"mg/kg","SUSPENSION","QD","ORAL GAVAGE","ABCD1234",NA,NA,"methocell",NA,NA,NA,"2010-12-24T07:55:11",NA,14,NA,NA,NA,NA,NA,NA,NA
"PDS2014","EX","PDS2014-0008",NA,225,"PDS-FAKEDRUG-111",0,NA,"mg/kg","SUSPENSION","QD","ORAL GAVAGE","ABCD1234",NA,NA,"methocell",NA,NA,NA,"2010-12-25T07:30:51",NA,15,NA,NA,NA,NA,NA,NA,NA
"PDS2014","EX","PDS2014-0008",NA,226,"PDS-FAKEDRUG-111",0,NA,"mg/kg","SUSPENSION","QD","ORAL GAVAGE","ABCD1234",NA,NA,"methocell",NA,NA,NA,"2010-12-26T07:08:08",NA,16,NA,NA,NA,NA,NA,NA,NA
"PDS2014","EX","PDS2014-0008",NA,227,"PDS-FAKEDRUG-111",0,NA,"mg/kg","SUSPENSION","QD","ORAL GAVAGE","ABCD1234",NA,NA,"methocell",NA,NA,NA,"2010-12-27T09:55:46",NA,17,NA,NA,NA,NA,NA,NA,NA
"PDS2014","EX","PDS2014-0008",NA,228,"PDS-FAKEDRUG-111",0,NA,"mg/kg","SUSPENSION","QD","ORAL GAVAGE","ABCD1234",NA,NA,"methocell",NA,NA,NA,"2010-12-28T07:52:49",NA,18,NA,NA,NA,NA,NA,NA,NA
"PDS2014","EX","PDS2014-0008",NA,229,"PDS-FAKEDRUG-111",0,NA,"mg/kg","SUSPENSION","QD","ORAL GAVAGE","ABCD1234",NA,NA,"methocell",NA,NA,NA,"2010-12-29T09:30:16",NA,19,NA,NA,NA,NA,NA,NA,NA
"PDS2014","EX","PDS2014-0008",NA,230,"PDS-FAKEDRUG-111",0,NA,"mg/kg","SUSPENSION","QD","ORAL GAVAGE","ABCD1234",NA,NA,"methocell",NA,NA,NA,"2010-12-30T08:03:28",NA,20,NA,NA,NA,NA,NA,NA,NA
"PDS2014","EX","PDS2014-0008",NA,231,"PDS-FAKEDRUG-111",0,NA,"mg/kg","SUSPENSION","QD","ORAL GAVAGE","ABCD1234",NA,NA,"methocell",NA,NA,NA,"2010-12-31T08:49:41",NA,21,NA,NA,NA,NA,NA,NA,NA
"PDS2014","EX","PDS2014-0008",NA,232,"PDS-FAKEDRUG-111",0,NA,"mg/kg","SUSPENSION","QD","ORAL GAVAGE","ABCD1234",NA,NA,"methocell",NA,NA,NA,"2011-01-01T06:41:56",NA,22,NA,NA,NA,NA,NA,NA,NA
"PDS2014","EX","PDS2014-0008",NA,233,"PDS-FAKEDRUG-111",0,NA,"mg/kg","SUSPENSION","QD","ORAL GAVAGE","ABCD1234",NA,NA,"methocell",NA,NA,NA,"2011-01-02T08:14:05",NA,23,NA,NA,NA,NA,NA,NA,NA
"PDS2014","EX","PDS2014-0008",NA,234,"PDS-FAKEDRUG-111",0,NA,"mg/kg","SUSPENSION","QD","ORAL GAVAGE","ABCD1234",NA,NA,"methocell",NA,NA,NA,"2011-01-03T08:33:17",NA,24,NA,NA,NA,NA,NA,NA,NA
"PDS2014","EX","PDS2014-0008",NA,235,"PDS-FAKEDRUG-111",0,NA,"mg/kg","SUSPENSION","QD","ORAL GAVAGE","ABCD1234",NA,NA,"methocell",NA,NA,NA,"2011-01-04T08:25:26",NA,25,NA,NA,NA,NA,NA,NA,NA
"PDS2014","EX","PDS2014-0008",NA,236,"PDS-FAKEDRUG-111",0,NA,"mg/kg","SUSPENSION","QD","ORAL GAVAGE","ABCD1234",NA,NA,"methocell",NA,NA,NA,"2011-01-05T08:16:57",NA,26,NA,NA,NA,NA,NA,NA,NA
"PDS2014","EX","PDS2014-0008",NA,237,"PDS-FAKEDRUG-111",0,NA,"mg/kg","SUSPENSION","QD","ORAL GAVAGE","ABCD1234",NA,NA,"methocell",NA,NA,NA,"2011-01-06T08:50:30",NA,27,NA,NA,NA,NA,NA,NA,NA
"PDS2014","EX","PDS2014-0008",NA,238,"PDS-FAKEDRUG-111",0,NA,"mg/kg","SUSPENSION","QD","ORAL GAVAGE","ABCD1234",NA,NA,"methocell",NA,NA,NA,"2011-01-07T07:21:21",NA,28,NA,NA,NA,NA,NA,NA,NA
"PDS2014","EX","PDS2014-0008",NA,239,"PDS-FAKEDRUG-111",0,NA,"mg/kg","SUSPENSION","QD","ORAL GAVAGE","ABCD1234",NA,NA,"methocell",NA,NA,NA,"2011-01-08T07:13:16",NA,29,NA,NA,NA,NA,NA,NA,NA
"PDS2014","EX","PDS2014-0008",NA,240,"PDS-FAKEDRUG-111",0,NA,"mg/kg","SUSPENSION","QD","ORAL GAVAGE","ABCD1234",NA,NA,"methocell",NA,NA,NA,"2011-01-09T10:48:22",NA,30,NA,NA,NA,NA,NA,NA,NA
"PDS2014","EX","PDS2014-0009",NA,241,"PDS-FAKEDRUG-111",0,NA,"mg/kg","SUSPENSION","QD","ORAL GAVAGE","ABCD1234",NA,NA,"methocell",NA,NA,NA,"2010-12-11T09:32:14",NA,1,NA,NA,NA,NA,NA,NA,NA
"PDS2014","EX","PDS2014-0009",NA,242,"PDS-FAKEDRUG-111",0,NA,"mg/kg","SUSPENSION","QD","ORAL GAVAGE","ABCD1234",NA,NA,"methocell",NA,NA,NA,"2010-12-12T10:33:17",NA,2,NA,NA,NA,NA,NA,NA,NA
"PDS2014","EX","PDS2014-0009",NA,243,"PDS-FAKEDRUG-111",0,NA,"mg/kg","SUSPENSION","QD","ORAL GAVAGE","ABCD1234",NA,NA,"methocell",NA,NA,NA,"2010-12-13T11:02:47",NA,3,NA,NA,NA,NA,NA,NA,NA
"PDS2014","EX","PDS2014-0009",NA,244,"PDS-FAKEDRUG-111",0,NA,"mg/kg","SUSPENSION","QD","ORAL GAVAGE","ABCD1234",NA,NA,"methocell",NA,NA,NA,"2010-12-14T09:51:46",NA,4,NA,NA,NA,NA,NA,NA,NA
"PDS2014","EX","PDS2014-0009",NA,245,"PDS-FAKEDRUG-111",0,NA,"mg/kg","SUSPENSION","QD","ORAL GAVAGE","ABCD1234",NA,NA,"methocell",NA,NA,NA,"2010-12-15T08:32:59",NA,5,NA,NA,NA,NA,NA,NA,NA
"PDS2014","EX","PDS2014-0009",NA,246,"PDS-FAKEDRUG-111",0,NA,"mg/kg","SUSPENSION","QD","ORAL GAVAGE","ABCD1234",NA,NA,"methocell",NA,NA,NA,"2010-12-16T08:54:26",NA,6,NA,NA,NA,NA,NA,NA,NA
"PDS2014","EX","PDS2014-0009",NA,247,"PDS-FAKEDRUG-111",0,NA,"mg/kg","SUSPENSION","QD","ORAL GAVAGE","ABCD1234",NA,NA,"methocell",NA,NA,NA,"2010-12-17T07:58:58",NA,7,NA,NA,NA,NA,NA,NA,NA
"PDS2014","EX","PDS2014-0009",NA,248,"PDS-FAKEDRUG-111",0,NA,"mg/kg","SUSPENSION","QD","ORAL GAVAGE","ABCD1234",NA,NA,"methocell",NA,NA,NA,"2010-12-18T08:09:24",NA,8,NA,NA,NA,NA,NA,NA,NA
"PDS2014","EX","PDS2014-0009",NA,249,"PDS-FAKEDRUG-111",0,NA,"mg/kg","SUSPENSION","QD","ORAL GAVAGE","ABCD1234",NA,NA,"methocell",NA,NA,NA,"2010-12-19T11:39:39",NA,9,NA,NA,NA,NA,NA,NA,NA
"PDS2014","EX","PDS2014-0009",NA,250,"PDS-FAKEDRUG-111",0,NA,"mg/kg","SUSPENSION","QD","ORAL GAVAGE","ABCD1234",NA,NA,"methocell",NA,NA,NA,"2010-12-20T10:56:14",NA,10,NA,NA,NA,NA,NA,NA,NA
"PDS2014","EX","PDS2014-0009",NA,251,"PDS-FAKEDRUG-111",0,NA,"mg/kg","SUSPENSION","QD","ORAL GAVAGE","ABCD1234",NA,NA,"methocell",NA,NA,NA,"2010-12-21T07:25:26",NA,11,NA,NA,NA,NA,NA,NA,NA
"PDS2014","EX","PDS2014-0009",NA,252,"PDS-FAKEDRUG-111",0,NA,"mg/kg","SUSPENSION","QD","ORAL GAVAGE","ABCD1234",NA,NA,"methocell",NA,NA,NA,"2010-12-22T08:04:09",NA,12,NA,NA,NA,NA,NA,NA,NA
"PDS2014","EX","PDS2014-0009",NA,253,"PDS-FAKEDRUG-111",0,NA,"mg/kg","SUSPENSION","QD","ORAL GAVAGE","ABCD1234",NA,NA,"methocell",NA,NA,NA,"2010-12-23T07:22:30",NA,13,NA,NA,NA,NA,NA,NA,NA
"PDS2014","EX","PDS2014-0009",NA,254,"PDS-FAKEDRUG-111",0,NA,"mg/kg","SUSPENSION","QD","ORAL GAVAGE","ABCD1234",NA,NA,"methocell",NA,NA,NA,"2010-12-24T07:52:58",NA,14,NA,NA,NA,NA,NA,NA,NA
"PDS2014","EX","PDS2014-0009",NA,255,"PDS-FAKEDRUG-111",0,NA,"mg/kg","SUSPENSION","QD","ORAL GAVAGE","ABCD1234",NA,NA,"methocell",NA,NA,NA,"2010-12-25T07:31:43",NA,15,NA,NA,NA,NA,NA,NA,NA
"PDS2014","EX","PDS2014-0009",NA,256,"PDS-FAKEDRUG-111",0,NA,"mg/kg","SUSPENSION","QD","ORAL GAVAGE","ABCD1234",NA,NA,"methocell",NA,NA,NA,"2010-12-26T07:08:37",NA,16,NA,NA,NA,NA,NA,NA,NA
"PDS2014","EX","PDS2014-0009",NA,257,"PDS-FAKEDRUG-111",0,NA,"mg/kg","SUSPENSION","QD","ORAL GAVAGE","ABCD1234",NA,NA,"methocell",NA,NA,NA,"2010-12-27T09:54:02",NA,17,NA,NA,NA,NA,NA,NA,NA
"PDS2014","EX","PDS2014-0009",NA,258,"PDS-FAKEDRUG-111",0,NA,"mg/kg","SUSPENSION","QD","ORAL GAVAGE","ABCD1234",NA,NA,"methocell",NA,NA,NA,"2010-12-28T07:51:01",NA,18,NA,NA,NA,NA,NA,NA,NA
"PDS2014","EX","PDS2014-0009",NA,259,"PDS-FAKEDRUG-111",0,NA,"mg/kg","SUSPENSION","QD","ORAL GAVAGE","ABCD1234",NA,NA,"methocell",NA,NA,NA,"2010-12-29T09:26:25",NA,19,NA,NA,NA,NA,NA,NA,NA
"PDS2014","EX","PDS2014-0009",NA,260,"PDS-FAKEDRUG-111",0,NA,"mg/kg","SUSPENSION","QD","ORAL GAVAGE","ABCD1234",NA,NA,"methocell",NA,NA,NA,"2010-12-30T08:04:01",NA,20,NA,NA,NA,NA,NA,NA,NA
"PDS2014","EX","PDS2014-0009",NA,261,"PDS-FAKEDRUG-111",0,NA,"mg/kg","SUSPENSION","QD","ORAL GAVAGE","ABCD1234",NA,NA,"methocell",NA,NA,NA,"2010-12-31T08:48:43",NA,21,NA,NA,NA,NA,NA,NA,NA
"PDS2014","EX","PDS2014-0009",NA,262,"PDS-FAKEDRUG-111",0,NA,"mg/kg","SUSPENSION","QD","ORAL GAVAGE","ABCD1234",NA,NA,"methocell",NA,NA,NA,"2011-01-01T06:40:58",NA,22,NA,NA,NA,NA,NA,NA,NA
"PDS2014","EX","PDS2014-0009",NA,263,"PDS-FAKEDRUG-111",0,NA,"mg/kg","SUSPENSION","QD","ORAL GAVAGE","ABCD1234",NA,NA,"methocell",NA,NA,NA,"2011-01-02T08:13:36",NA,23,NA,NA,NA,NA,NA,NA,NA
"PDS2014","EX","PDS2014-0009",NA,264,"PDS-FAKEDRUG-111",0,NA,"mg/kg","SUSPENSION","QD","ORAL GAVAGE","ABCD1234",NA,NA,"methocell",NA,NA,NA,"2011-01-03T08:32:37",NA,24,NA,NA,NA,NA,NA,NA,NA
"PDS2014","EX","PDS2014-0009",NA,265,"PDS-FAKEDRUG-111",0,NA,"mg/kg","SUSPENSION","QD","ORAL GAVAGE","ABCD1234",NA,NA,"methocell",NA,NA,NA,"2011-01-04T08:24:25",NA,25,NA,NA,NA,NA,NA,NA,NA
"PDS2014","EX","PDS2014-0009",NA,266,"PDS-FAKEDRUG-111",0,NA,"mg/kg","SUSPENSION","QD","ORAL GAVAGE","ABCD1234",NA,NA,"methocell",NA,NA,NA,"2011-01-05T08:14:25",NA,26,NA,NA,NA,NA,NA,NA,NA
"PDS2014","EX","PDS2014-0009",NA,267,"PDS-FAKEDRUG-111",0,NA,"mg/kg","SUSPENSION","QD","ORAL GAVAGE","ABCD1234",NA,NA,"methocell",NA,NA,NA,"2011-01-06T08:50:15",NA,27,NA,NA,NA,NA,NA,NA,NA
"PDS2014","EX","PDS2014-0009",NA,268,"PDS-FAKEDRUG-111",0,NA,"mg/kg","SUSPENSION","QD","ORAL GAVAGE","ABCD1234",NA,NA,"methocell",NA,NA,NA,"2011-01-07T07:21:50",NA,28,NA,NA,NA,NA,NA,NA,NA
"PDS2014","EX","PDS2014-0009",NA,269,"PDS-FAKEDRUG-111",0,NA,"mg/kg","SUSPENSION","QD","ORAL GAVAGE","ABCD1234",NA,NA,"methocell",NA,NA,NA,"2011-01-08T07:14:50",NA,29,NA,NA,NA,NA,NA,NA,NA
"PDS2014","EX","PDS2014-0009",NA,270,"PDS-FAKEDRUG-111",0,NA,"mg/kg","SUSPENSION","QD","ORAL GAVAGE","ABCD1234",NA,NA,"methocell",NA,NA,NA,"2011-01-09T10:54:09",NA,30,NA,NA,NA,NA,NA,NA,NA
"PDS2014","EX","PDS2014-0010",NA,271,"PDS-FAKEDRUG-111",0,NA,"mg/kg","SUSPENSION","QD","ORAL GAVAGE","ABCD1234",NA,NA,"methocell",NA,NA,NA,"2010-12-11T09:31:21",NA,1,NA,NA,NA,NA,NA,NA,NA
"PDS2014","EX","PDS2014-0010",NA,272,"PDS-FAKEDRUG-111",0,NA,"mg/kg","SUSPENSION","QD","ORAL GAVAGE","ABCD1234",NA,NA,"methocell",NA,NA,NA,"2010-12-12T10:32:14",NA,2,NA,NA,NA,NA,NA,NA,NA
"PDS2014","EX","PDS2014-0010",NA,273,"PDS-FAKEDRUG-111",0,NA,"mg/kg","SUSPENSION","QD","ORAL GAVAGE","ABCD1234",NA,NA,"methocell",NA,NA,NA,"2010-12-13T11:04:23",NA,3,NA,NA,NA,NA,NA,NA,NA
"PDS2014","EX","PDS2014-0010",NA,274,"PDS-FAKEDRUG-111",0,NA,"mg/kg","SUSPENSION","QD","ORAL GAVAGE","ABCD1234",NA,NA,"methocell",NA,NA,NA,"2010-12-14T09:47:33",NA,4,NA,NA,NA,NA,NA,NA,NA
"PDS2014","EX","PDS2014-0010",NA,275,"PDS-FAKEDRUG-111",0,NA,"mg/kg","SUSPENSION","QD","ORAL GAVAGE","ABCD1234",NA,NA,"methocell",NA,NA,NA,"2010-12-15T08:33:54",NA,5,NA,NA,NA,NA,NA,NA,NA
"PDS2014","EX","PDS2014-0010",NA,276,"PDS-FAKEDRUG-111",0,NA,"mg/kg","SUSPENSION","QD","ORAL GAVAGE","ABCD1234",NA,NA,"methocell",NA,NA,NA,"2010-12-16T08:54:49",NA,6,NA,NA,NA,NA,NA,NA,NA
"PDS2014","EX","PDS2014-0010",NA,277,"PDS-FAKEDRUG-111",0,NA,"mg/kg","SUSPENSION","QD","ORAL GAVAGE","ABCD1234",NA,NA,"methocell",NA,NA,NA,"2010-12-17T07:58:35",NA,7,NA,NA,NA,NA,NA,NA,NA
"PDS2014","EX","PDS2014-0010",NA,278,"PDS-FAKEDRUG-111",0,NA,"mg/kg","SUSPENSION","QD","ORAL GAVAGE","ABCD1234",NA,NA,"methocell",NA,NA,NA,"2010-12-18T08:04:55",NA,8,NA,NA,NA,NA,NA,NA,NA
"PDS2014","EX","PDS2014-0010",NA,279,"PDS-FAKEDRUG-111",0,NA,"mg/kg","SUSPENSION","QD","ORAL GAVAGE","ABCD1234",NA,NA,"methocell",NA,NA,NA,"2010-12-19T11:38:19",NA,9,NA,NA,NA,NA,NA,NA,NA
"PDS2014","EX","PDS2014-0010",NA,280,"PDS-FAKEDRUG-111",0,NA,"mg/kg","SUSPENSION","QD","ORAL GAVAGE","ABCD1234",NA,NA,"methocell",NA,NA,NA,"2010-12-20T10:54:33",NA,10,NA,NA,NA,NA,NA,NA,NA
"PDS2014","EX","PDS2014-0010",NA,281,"PDS-FAKEDRUG-111",0,NA,"mg/kg","SUSPENSION","QD","ORAL GAVAGE","ABCD1234",NA,NA,"methocell",NA,NA,NA,"2010-12-21T07:24:04",NA,11,NA,NA,NA,NA,NA,NA,NA
"PDS2014","EX","PDS2014-0010",NA,282,"PDS-FAKEDRUG-111",0,NA,"mg/kg","SUSPENSION","QD","ORAL GAVAGE","ABCD1234",NA,NA,"methocell",NA,NA,NA,"2010-12-22T08:03:14",NA,12,NA,NA,NA,NA,NA,NA,NA
"PDS2014","EX","PDS2014-0010",NA,283,"PDS-FAKEDRUG-111",0,NA,"mg/kg","SUSPENSION","QD","ORAL GAVAGE","ABCD1234",NA,NA,"methocell",NA,NA,NA,"2010-12-23T07:25:15",NA,13,NA,NA,NA,NA,NA,NA,NA
"PDS2014","EX","PDS2014-0010",NA,284,"PDS-FAKEDRUG-111",0,NA,"mg/kg","SUSPENSION","QD","ORAL GAVAGE","ABCD1234",NA,NA,"methocell",NA,NA,NA,"2010-12-24T07:53:30",NA,14,NA,NA,NA,NA,NA,NA,NA
"PDS2014","EX","PDS2014-0010",NA,285,"PDS-FAKEDRUG-111",0,NA,"mg/kg","SUSPENSION","QD","ORAL GAVAGE","ABCD1234",NA,NA,"methocell",NA,NA,NA,"2010-12-25T07:29:53",NA,15,NA,NA,NA,NA,NA,NA,NA
"PDS2014","EX","PDS2014-0010",NA,286,"PDS-FAKEDRUG-111",0,NA,"mg/kg","SUSPENSION","QD","ORAL GAVAGE","ABCD1234",NA,NA,"methocell",NA,NA,NA,"2010-12-26T07:06:27",NA,16,NA,NA,NA,NA,NA,NA,NA
"PDS2014","EX","PDS2014-0010",NA,287,"PDS-FAKEDRUG-111",0,NA,"mg/kg","SUSPENSION","QD","ORAL GAVAGE","ABCD1234",NA,NA,"methocell",NA,NA,NA,"2010-12-27T09:54:26",NA,17,NA,NA,NA,NA,NA,NA,NA
"PDS2014","EX","PDS2014-0010",NA,288,"PDS-FAKEDRUG-111",0,NA,"mg/kg","SUSPENSION","QD","ORAL GAVAGE","ABCD1234",NA,NA,"methocell",NA,NA,NA,"2010-12-28T07:52:10",NA,18,NA,NA,NA,NA,NA,NA,NA
"PDS2014","EX","PDS2014-0010",NA,289,"PDS-FAKEDRUG-111",0,NA,"mg/kg","SUSPENSION","QD","ORAL GAVAGE","ABCD1234",NA,NA,"methocell",NA,NA,NA,"2010-12-29T09:28:33",NA,19,NA,NA,NA,NA,NA,NA,NA
"PDS2014","EX","PDS2014-0010",NA,290,"PDS-FAKEDRUG-111",0,NA,"mg/kg","SUSPENSION","QD","ORAL GAVAGE","ABCD1234",NA,NA,"methocell",NA,NA,NA,"2010-12-30T08:02:36",NA,20,NA,NA,NA,NA,NA,NA,NA
"PDS2014","EX","PDS2014-0010",NA,291,"PDS-FAKEDRUG-111",0,NA,"mg/kg","SUSPENSION","QD","ORAL GAVAGE","ABCD1234",NA,NA,"methocell",NA,NA,NA,"2010-12-31T08:47:56",NA,21,NA,NA,NA,NA,NA,NA,NA
"PDS2014","EX","PDS2014-0010",NA,292,"PDS-FAKEDRUG-111",0,NA,"mg/kg","SUSPENSION","QD","ORAL GAVAGE","ABCD1234",NA,NA,"methocell",NA,NA,NA,"2011-01-01T06:38:32",NA,22,NA,NA,NA,NA,NA,NA,NA
"PDS2014","EX","PDS2014-0010",NA,293,"PDS-FAKEDRUG-111",0,NA,"mg/kg","SUSPENSION","QD","ORAL GAVAGE","ABCD1234",NA,NA,"methocell",NA,NA,NA,"2011-01-02T08:13:14",NA,23,NA,NA,NA,NA,NA,NA,NA
"PDS2014","EX","PDS2014-0010",NA,294,"PDS-FAKEDRUG-111",0,NA,"mg/kg","SUSPENSION","QD","ORAL GAVAGE","ABCD1234",NA,NA,"methocell",NA,NA,NA,"2011-01-03T08:32:11",NA,24,NA,NA,NA,NA,NA,NA,NA
"PDS2014","EX","PDS2014-0010",NA,295,"PDS-FAKEDRUG-111",0,NA,"mg/kg","SUSPENSION","QD","ORAL GAVAGE","ABCD1234",NA,NA,"methocell",NA,NA,NA,"2011-01-04T08:25:49",NA,25,NA,NA,NA,NA,NA,NA,NA
"PDS2014","EX","PDS2014-0010",NA,296,"PDS-FAKEDRUG-111",0,NA,"mg/kg","SUSPENSION","QD","ORAL GAVAGE","ABCD1234",NA,NA,"methocell",NA,NA,NA,"2011-01-05T08:16:29",NA,26,NA,NA,NA,NA,NA,NA,NA
"PDS2014","EX","PDS2014-0010",NA,297,"PDS-FAKEDRUG-111",0,NA,"mg/kg","SUSPENSION","QD","ORAL GAVAGE","ABCD1234",NA,NA,"methocell",NA,NA,NA,"2011-01-06T08:50:51",NA,27,NA,NA,NA,NA,NA,NA,NA
"PDS2014","EX","PDS2014-0010",NA,298,"PDS-FAKEDRUG-111",0,NA,"mg/kg","SUSPENSION","QD","ORAL GAVAGE","ABCD1234",NA,NA,"methocell",NA,NA,NA,"2011-01-07T07:15:48",NA,28,NA,NA,NA,NA,NA,NA,NA
"PDS2014","EX","PDS2014-0010",NA,299,"PDS-FAKEDRUG-111",0,NA,"mg/kg","SUSPENSION","QD","ORAL GAVAGE","ABCD1234",NA,NA,"methocell",NA,NA,NA,"2011-01-08T07:15:31",NA,29,NA,NA,NA,NA,NA,NA,NA
"PDS2014","EX","PDS2014-0010",NA,300,"PDS-FAKEDRUG-111",0,NA,"mg/kg","SUSPENSION","QD","ORAL GAVAGE","ABCD1234",NA,NA,"methocell",NA,NA,NA,"2011-01-09T10:43:15",NA,30,NA,NA,NA,NA,NA,NA,NA
"PDS2014","EX","PDS2014-0011",NA,301,"PDS-FAKEDRUG-111",0,NA,"mg/kg","SUSPENSION","QD","ORAL GAVAGE","ABCD1234",NA,NA,"methocell",NA,NA,NA,"2010-12-11T09:35:05",NA,1,NA,NA,NA,NA,NA,NA,NA
"PDS2014","EX","PDS2014-0011",NA,302,"PDS-FAKEDRUG-111",0,NA,"mg/kg","SUSPENSION","QD","ORAL GAVAGE","ABCD1234",NA,NA,"methocell",NA,NA,NA,"2010-12-12T10:34:56",NA,2,NA,NA,NA,NA,NA,NA,NA
"PDS2014","EX","PDS2014-0011",NA,303,"PDS-FAKEDRUG-111",0,NA,"mg/kg","SUSPENSION","QD","ORAL GAVAGE","ABCD1234",NA,NA,"methocell",NA,NA,NA,"2010-12-13T11:11:51",NA,3,NA,NA,NA,NA,NA,NA,NA
"PDS2014","EX","PDS2014-0011",NA,304,"PDS-FAKEDRUG-111",0,NA,"mg/kg","SUSPENSION","QD","ORAL GAVAGE","ABCD1234",NA,NA,"methocell",NA,NA,NA,"2010-12-14T09:53:58",NA,4,NA,NA,NA,NA,NA,NA,NA
"PDS2014","EX","PDS2014-0011",NA,305,"PDS-FAKEDRUG-111",0,NA,"mg/kg","SUSPENSION","QD","ORAL GAVAGE","ABCD1234",NA,NA,"methocell",NA,NA,NA,"2010-12-15T08:34:35",NA,5,NA,NA,NA,NA,NA,NA,NA
"PDS2014","EX","PDS2014-0011",NA,306,"PDS-FAKEDRUG-111",0,NA,"mg/kg","SUSPENSION","QD","ORAL GAVAGE","ABCD1234",NA,NA,"methocell",NA,NA,NA,"2010-12-16T08:55:59",NA,6,NA,NA,NA,NA,NA,NA,NA
"PDS2014","EX","PDS2014-0011",NA,307,"PDS-FAKEDRUG-111",0,NA,"mg/kg","SUSPENSION","QD","ORAL GAVAGE","ABCD1234",NA,NA,"methocell",NA,NA,NA,"2010-12-17T08:02:53",NA,7,NA,NA,NA,NA,NA,NA,NA
"PDS2014","EX","PDS2014-0011",NA,308,"PDS-FAKEDRUG-111",0,NA,"mg/kg","SUSPENSION","QD","ORAL GAVAGE","ABCD1234",NA,NA,"methocell",NA,NA,NA,"2010-12-18T08:11:46",NA,8,NA,NA,NA,NA,NA,NA,NA
"PDS2014","EX","PDS2014-0011",NA,309,"PDS-FAKEDRUG-111",0,NA,"mg/kg","SUSPENSION","QD","ORAL GAVAGE","ABCD1234",NA,NA,"methocell",NA,NA,NA,"2010-12-19T11:42:04",NA,9,NA,NA,NA,NA,NA,NA,NA
"PDS2014","EX","PDS2014-0011",NA,310,"PDS-FAKEDRUG-111",0,NA,"mg/kg","SUSPENSION","QD","ORAL GAVAGE","ABCD1234",NA,NA,"methocell",NA,NA,NA,"2010-12-20T10:58:13",NA,10,NA,NA,NA,NA,NA,NA,NA
"PDS2014","EX","PDS2014-0011",NA,311,"PDS-FAKEDRUG-111",0,NA,"mg/kg","SUSPENSION","QD","ORAL GAVAGE","ABCD1234",NA,NA,"methocell",NA,NA,NA,"2010-12-21T07:27:52",NA,11,NA,NA,NA,NA,NA,NA,NA
"PDS2014","EX","PDS2014-0011",NA,312,"PDS-FAKEDRUG-111",0,NA,"mg/kg","SUSPENSION","QD","ORAL GAVAGE","ABCD1234",NA,NA,"methocell",NA,NA,NA,"2010-12-22T08:07:46",NA,12,NA,NA,NA,NA,NA,NA,NA
"PDS2014","EX","PDS2014-0011",NA,313,"PDS-FAKEDRUG-111",0,NA,"mg/kg","SUSPENSION","QD","ORAL GAVAGE","ABCD1234",NA,NA,"methocell",NA,NA,NA,"2010-12-23T07:27:54",NA,13,NA,NA,NA,NA,NA,NA,NA
"PDS2014","EX","PDS2014-0011",NA,314,"PDS-FAKEDRUG-111",0,NA,"mg/kg","SUSPENSION","QD","ORAL GAVAGE","ABCD1234",NA,NA,"methocell",NA,NA,NA,"2010-12-24T07:56:44",NA,14,NA,NA,NA,NA,NA,NA,NA
"PDS2014","EX","PDS2014-0011",NA,315,"PDS-FAKEDRUG-111",0,NA,"mg/kg","SUSPENSION","QD","ORAL GAVAGE","ABCD1234",NA,NA,"methocell",NA,NA,NA,"2010-12-25T07:32:34",NA,15,NA,NA,NA,NA,NA,NA,NA
"PDS2014","EX","PDS2014-0011",NA,316,"PDS-FAKEDRUG-111",0,NA,"mg/kg","SUSPENSION","QD","ORAL GAVAGE","ABCD1234",NA,NA,"methocell",NA,NA,NA,"2010-12-26T07:10:58",NA,16,NA,NA,NA,NA,NA,NA,NA
"PDS2014","EX","PDS2014-0011",NA,317,"PDS-FAKEDRUG-111",0,NA,"mg/kg","SUSPENSION","QD","ORAL GAVAGE","ABCD1234",NA,NA,"methocell",NA,NA,NA,"2010-12-27T09:57:25",NA,17,NA,NA,NA,NA,NA,NA,NA
"PDS2014","EX","PDS2014-0011",NA,318,"PDS-FAKEDRUG-111",0,NA,"mg/kg","SUSPENSION","QD","ORAL GAVAGE","ABCD1234",NA,NA,"methocell",NA,NA,NA,"2010-12-28T07:54:00",NA,18,NA,NA,NA,NA,NA,NA,NA
"PDS2014","EX","PDS2014-0011",NA,319,"PDS-FAKEDRUG-111",0,NA,"mg/kg","SUSPENSION","QD","ORAL GAVAGE","ABCD1234",NA,NA,"methocell",NA,NA,NA,"2010-12-29T09:32:15",NA,19,NA,NA,NA,NA,NA,NA,NA
"PDS2014","EX","PDS2014-0011",NA,320,"PDS-FAKEDRUG-111",0,NA,"mg/kg","SUSPENSION","QD","ORAL GAVAGE","ABCD1234",NA,NA,"methocell",NA,NA,NA,"2010-12-30T08:05:44",NA,20,NA,NA,NA,NA,NA,NA,NA
"PDS2014","EX","PDS2014-0011",NA,321,"PDS-FAKEDRUG-111",0,NA,"mg/kg","SUSPENSION","QD","ORAL GAVAGE","ABCD1234",NA,NA,"methocell",NA,NA,NA,"2010-12-31T08:51:29",NA,21,NA,NA,NA,NA,NA,NA,NA
"PDS2014","EX","PDS2014-0011",NA,322,"PDS-FAKEDRUG-111",0,NA,"mg/kg","SUSPENSION","QD","ORAL GAVAGE","ABCD1234",NA,NA,"methocell",NA,NA,NA,"2011-01-01T06:44:07",NA,22,NA,NA,NA,NA,NA,NA,NA
"PDS2014","EX","PDS2014-0011",NA,323,"PDS-FAKEDRUG-111",0,NA,"mg/kg","SUSPENSION","QD","ORAL GAVAGE","ABCD1234",NA,NA,"methocell",NA,NA,NA,"2011-01-02T08:16:00",NA,23,NA,NA,NA,NA,NA,NA,NA
"PDS2014","EX","PDS2014-0011",NA,324,"PDS-FAKEDRUG-111",0,NA,"mg/kg","SUSPENSION","QD","ORAL GAVAGE","ABCD1234",NA,NA,"methocell",NA,NA,NA,"2011-01-03T08:34:19",NA,24,NA,NA,NA,NA,NA,NA,NA
"PDS2014","EX","PDS2014-0011",NA,325,"PDS-FAKEDRUG-111",0,NA,"mg/kg","SUSPENSION","QD","ORAL GAVAGE","ABCD1234",NA,NA,"methocell",NA,NA,NA,"2011-01-04T08:27:52",NA,25,NA,NA,NA,NA,NA,NA,NA
"PDS2014","EX","PDS2014-0011",NA,326,"PDS-FAKEDRUG-111",0,NA,"mg/kg","SUSPENSION","QD","ORAL GAVAGE","ABCD1234",NA,NA,"methocell",NA,NA,NA,"2011-01-05T08:17:43",NA,26,NA,NA,NA,NA,NA,NA,NA
"PDS2014","EX","PDS2014-0011",NA,327,"PDS-FAKEDRUG-111",0,NA,"mg/kg","SUSPENSION","QD","ORAL GAVAGE","ABCD1234",NA,NA,"methocell",NA,NA,NA,"2011-01-06T08:54:00",NA,27,NA,NA,NA,NA,NA,NA,NA
"PDS2014","EX","PDS2014-0011",NA,328,"PDS-FAKEDRUG-111",0,NA,"mg/kg","SUSPENSION","QD","ORAL GAVAGE","ABCD1234",NA,NA,"methocell",NA,NA,NA,"2011-01-07T07:25:35",NA,28,NA,NA,NA,NA,NA,NA,NA
"PDS2014","EX","PDS2014-0011",NA,329,"PDS-FAKEDRUG-111",0,NA,"mg/kg","SUSPENSION","QD","ORAL GAVAGE","ABCD1234",NA,NA,"methocell",NA,NA,NA,"2011-01-08T07:18:06",NA,29,NA,NA,NA,NA,NA,NA,NA
"PDS2014","EX","PDS2014-0011",NA,330,"PDS-FAKEDRUG-111",0,NA,"mg/kg","SUSPENSION","QD","ORAL GAVAGE","ABCD1234",NA,NA,"methocell",NA,NA,NA,"2011-01-09T10:56:43",NA,30,NA,NA,NA,NA,NA,NA,NA
"PDS2014","EX","PDS2014-0012",NA,331,"PDS-FAKEDRUG-111",0,NA,"mg/kg","SUSPENSION","QD","ORAL GAVAGE","ABCD1234",NA,NA,"methocell",NA,NA,NA,"2010-12-11T09:35:29",NA,1,NA,NA,NA,NA,NA,NA,NA
"PDS2014","EX","PDS2014-0012",NA,332,"PDS-FAKEDRUG-111",0,NA,"mg/kg","SUSPENSION","QD","ORAL GAVAGE","ABCD1234",NA,NA,"methocell",NA,NA,NA,"2010-12-12T10:35:46",NA,2,NA,NA,NA,NA,NA,NA,NA
"PDS2014","EX","PDS2014-0012",NA,333,"PDS-FAKEDRUG-111",0,NA,"mg/kg","SUSPENSION","QD","ORAL GAVAGE","ABCD1234",NA,NA,"methocell",NA,NA,NA,"2010-12-13T11:10:41",NA,3,NA,NA,NA,NA,NA,NA,NA
"PDS2014","EX","PDS2014-0012",NA,334,"PDS-FAKEDRUG-111",0,NA,"mg/kg","SUSPENSION","QD","ORAL GAVAGE","ABCD1234",NA,NA,"methocell",NA,NA,NA,"2010-12-14T09:52:47",NA,4,NA,NA,NA,NA,NA,NA,NA
"PDS2014","EX","PDS2014-0012",NA,335,"PDS-FAKEDRUG-111",0,NA,"mg/kg","SUSPENSION","QD","ORAL GAVAGE","ABCD1234",NA,NA,"methocell",NA,NA,NA,"2010-12-15T08:34:51",NA,5,NA,NA,NA,NA,NA,NA,NA
"PDS2014","EX","PDS2014-0012",NA,336,"PDS-FAKEDRUG-111",0,NA,"mg/kg","SUSPENSION","QD","ORAL GAVAGE","ABCD1234",NA,NA,"methocell",NA,NA,NA,"2010-12-16T08:56:12",NA,6,NA,NA,NA,NA,NA,NA,NA
"PDS2014","EX","PDS2014-0012",NA,337,"PDS-FAKEDRUG-111",0,NA,"mg/kg","SUSPENSION","QD","ORAL GAVAGE","ABCD1234",NA,NA,"methocell",NA,NA,NA,"2010-12-17T08:03:33",NA,7,NA,NA,NA,NA,NA,NA,NA
"PDS2014","EX","PDS2014-0012",NA,338,"PDS-FAKEDRUG-111",0,NA,"mg/kg","SUSPENSION","QD","ORAL GAVAGE","ABCD1234",NA,NA,"methocell",NA,NA,NA,"2010-12-18T08:11:17",NA,8,NA,NA,NA,NA,NA,NA,NA
"PDS2014","EX","PDS2014-0012",NA,339,"PDS-FAKEDRUG-111",0,NA,"mg/kg","SUSPENSION","QD","ORAL GAVAGE","ABCD1234",NA,NA,"methocell",NA,NA,NA,"2010-12-19T11:42:20",NA,9,NA,NA,NA,NA,NA,NA,NA
"PDS2014","EX","PDS2014-0012",NA,340,"PDS-FAKEDRUG-111",0,NA,"mg/kg","SUSPENSION","QD","ORAL GAVAGE","ABCD1234",NA,NA,"methocell",NA,NA,NA,"2010-12-20T10:57:54",NA,10,NA,NA,NA,NA,NA,NA,NA
"PDS2014","EX","PDS2014-0012",NA,341,"PDS-FAKEDRUG-111",0,NA,"mg/kg","SUSPENSION","QD","ORAL GAVAGE","ABCD1234",NA,NA,"methocell",NA,NA,NA,"2010-12-21T07:28:20",NA,11,NA,NA,NA,NA,NA,NA,NA
"PDS2014","EX","PDS2014-0012",NA,342,"PDS-FAKEDRUG-111",0,NA,"mg/kg","SUSPENSION","QD","ORAL GAVAGE","ABCD1234",NA,NA,"methocell",NA,NA,NA,"2010-12-22T08:08:05",NA,12,NA,NA,NA,NA,NA,NA,NA
"PDS2014","EX","PDS2014-0012",NA,343,"PDS-FAKEDRUG-111",0,NA,"mg/kg","SUSPENSION","QD","ORAL GAVAGE","ABCD1234",NA,NA,"methocell",NA,NA,NA,"2010-12-23T07:27:01",NA,13,NA,NA,NA,NA,NA,NA,NA
"PDS2014","EX","PDS2014-0012",NA,344,"PDS-FAKEDRUG-111",0,NA,"mg/kg","SUSPENSION","QD","ORAL GAVAGE","ABCD1234",NA,NA,"methocell",NA,NA,NA,"2010-12-24T07:57:55",NA,14,NA,NA,NA,NA,NA,NA,NA
"PDS2014","EX","PDS2014-0012",NA,345,"PDS-FAKEDRUG-111",0,NA,"mg/kg","SUSPENSION","QD","ORAL GAVAGE","ABCD1234",NA,NA,"methocell",NA,NA,NA,"2010-12-25T07:35:56",NA,15,NA,NA,NA,NA,NA,NA,NA
"PDS2014","EX","PDS2014-0012",NA,346,"PDS-FAKEDRUG-111",0,NA,"mg/kg","SUSPENSION","QD","ORAL GAVAGE","ABCD1234",NA,NA,"methocell",NA,NA,NA,"2010-12-26T07:11:43",NA,16,NA,NA,NA,NA,NA,NA,NA
"PDS2014","EX","PDS2014-0012",NA,347,"PDS-FAKEDRUG-111",0,NA,"mg/kg","SUSPENSION","QD","ORAL GAVAGE","ABCD1234",NA,NA,"methocell",NA,NA,NA,"2010-12-27T09:57:45",NA,17,NA,NA,NA,NA,NA,NA,NA
"PDS2014","EX","PDS2014-0012",NA,348,"PDS-FAKEDRUG-111",0,NA,"mg/kg","SUSPENSION","QD","ORAL GAVAGE","ABCD1234",NA,NA,"methocell",NA,NA,NA,"2010-12-28T07:54:59",NA,18,NA,NA,NA,NA,NA,NA,NA
"PDS2014","EX","PDS2014-0012",NA,349,"PDS-FAKEDRUG-111",0,NA,"mg/kg","SUSPENSION","QD","ORAL GAVAGE","ABCD1234",NA,NA,"methocell",NA,NA,NA,"2010-12-29T09:31:52",NA,19,NA,NA,NA,NA,NA,NA,NA
"PDS2014","EX","PDS2014-0012",NA,350,"PDS-FAKEDRUG-111",0,NA,"mg/kg","SUSPENSION","QD","ORAL GAVAGE","ABCD1234",NA,NA,"methocell",NA,NA,NA,"2010-12-30T08:06:10",NA,20,NA,NA,NA,NA,NA,NA,NA
"PDS2014","EX","PDS2014-0012",NA,351,"PDS-FAKEDRUG-111",0,NA,"mg/kg","SUSPENSION","QD","ORAL GAVAGE","ABCD1234",NA,NA,"methocell",NA,NA,NA,"2010-12-31T08:51:09",NA,21,NA,NA,NA,NA,NA,NA,NA
"PDS2014","EX","PDS2014-0012",NA,352,"PDS-FAKEDRUG-111",0,NA,"mg/kg","SUSPENSION","QD","ORAL GAVAGE","ABCD1234",NA,NA,"methocell",NA,NA,NA,"2011-01-01T06:43:38",NA,22,NA,NA,NA,NA,NA,NA,NA
"PDS2014","EX","PDS2014-0012",NA,353,"PDS-FAKEDRUG-111",0,NA,"mg/kg","SUSPENSION","QD","ORAL GAVAGE","ABCD1234",NA,NA,"methocell",NA,NA,NA,"2011-01-02T08:15:22",NA,23,NA,NA,NA,NA,NA,NA,NA
"PDS2014","EX","PDS2014-0012",NA,354,"PDS-FAKEDRUG-111",0,NA,"mg/kg","SUSPENSION","QD","ORAL GAVAGE","ABCD1234",NA,NA,"methocell",NA,NA,NA,"2011-01-03T08:35:18",NA,24,NA,NA,NA,NA,NA,NA,NA
"PDS2014","EX","PDS2014-0012",NA,355,"PDS-FAKEDRUG-111",0,NA,"mg/kg","SUSPENSION","QD","ORAL GAVAGE","ABCD1234",NA,NA,"methocell",NA,NA,NA,"2011-01-04T08:27:10",NA,25,NA,NA,NA,NA,NA,NA,NA
"PDS2014","EX","PDS2014-0012",NA,356,"PDS-FAKEDRUG-111",0,NA,"mg/kg","SUSPENSION","QD","ORAL GAVAGE","ABCD1234",NA,NA,"methocell",NA,NA,NA,"2011-01-05T08:19:09",NA,26,NA,NA,NA,NA,NA,NA,NA
"PDS2014","EX","PDS2014-0012",NA,357,"PDS-FAKEDRUG-111",0,NA,"mg/kg","SUSPENSION","QD","ORAL GAVAGE","ABCD1234",NA,NA,"methocell",NA,NA,NA,"2011-01-06T08:54:53",NA,27,NA,NA,NA,NA,NA,NA,NA
"PDS2014","EX","PDS2014-0012",NA,358,"PDS-FAKEDRUG-111",0,NA,"mg/kg","SUSPENSION","QD","ORAL GAVAGE","ABCD1234",NA,NA,"methocell",NA,NA,NA,"2011-01-07T07:25:10",NA,28,NA,NA,NA,NA,NA,NA,NA
"PDS2014","EX","PDS2014-0012",NA,359,"PDS-FAKEDRUG-111",0,NA,"mg/kg","SUSPENSION","QD","ORAL GAVAGE","ABCD1234",NA,NA,"methocell",NA,NA,NA,"2011-01-08T07:19:09",NA,29,NA,NA,NA,NA,NA,NA,NA
"PDS2014","EX","PDS2014-0012",NA,360,"PDS-FAKEDRUG-111",0,NA,"mg/kg","SUSPENSION","QD","ORAL GAVAGE","ABCD1234",NA,NA,"methocell",NA,NA,NA,"2011-01-09T10:55:40",NA,30,NA,NA,NA,NA,NA,NA,NA
"PDS2014","EX","PDS2014-0013",NA,361,"PDS-FAKEDRUG-111",0,NA,"mg/kg","SUSPENSION","QD","ORAL GAVAGE","ABCD1234",NA,NA,"methocell",NA,NA,NA,"2010-12-11T09:34:33",NA,1,NA,NA,NA,NA,NA,NA,NA
"PDS2014","EX","PDS2014-0013",NA,362,"PDS-FAKEDRUG-111",0,NA,"mg/kg","SUSPENSION","QD","ORAL GAVAGE","ABCD1234",NA,NA,"methocell",NA,NA,NA,"2010-12-12T10:33:57",NA,2,NA,NA,NA,NA,NA,NA,NA
"PDS2014","EX","PDS2014-0013",NA,363,"PDS-FAKEDRUG-111",0,NA,"mg/kg","SUSPENSION","QD","ORAL GAVAGE","ABCD1234",NA,NA,"methocell",NA,NA,NA,"2010-12-13T11:10:23",NA,3,NA,NA,NA,NA,NA,NA,NA
"PDS2014","EX","PDS2014-0013",NA,364,"PDS-FAKEDRUG-111",0,NA,"mg/kg","SUSPENSION","QD","ORAL GAVAGE","ABCD1234",NA,NA,"methocell",NA,NA,NA,"2010-12-14T09:53:29",NA,4,NA,NA,NA,NA,NA,NA,NA
"PDS2014","EX","PDS2014-0013",NA,365,"PDS-FAKEDRUG-111",0,NA,"mg/kg","SUSPENSION","QD","ORAL GAVAGE","ABCD1234",NA,NA,"methocell",NA,NA,NA,"2010-12-15T08:34:21",NA,5,NA,NA,NA,NA,NA,NA,NA
"PDS2014","EX","PDS2014-0013",NA,366,"PDS-FAKEDRUG-111",0,NA,"mg/kg","SUSPENSION","QD","ORAL GAVAGE","ABCD1234",NA,NA,"methocell",NA,NA,NA,"2010-12-16T08:56:42",NA,6,NA,NA,NA,NA,NA,NA,NA
"PDS2014","EX","PDS2014-0013",NA,367,"PDS-FAKEDRUG-111",0,NA,"mg/kg","SUSPENSION","QD","ORAL GAVAGE","ABCD1234",NA,NA,"methocell",NA,NA,NA,"2010-12-17T08:03:12",NA,7,NA,NA,NA,NA,NA,NA,NA
"PDS2014","EX","PDS2014-0013",NA,368,"PDS-FAKEDRUG-111",0,NA,"mg/kg","SUSPENSION","QD","ORAL GAVAGE","ABCD1234",NA,NA,"methocell",NA,NA,NA,"2010-12-18T08:12:18",NA,8,NA,NA,NA,NA,NA,NA,NA
"PDS2014","EX","PDS2014-0013",NA,369,"PDS-FAKEDRUG-111",0,NA,"mg/kg","SUSPENSION","QD","ORAL GAVAGE","ABCD1234",NA,NA,"methocell",NA,NA,NA,"2010-12-19T11:41:16",NA,9,NA,NA,NA,NA,NA,NA,NA
"PDS2014","EX","PDS2014-0013",NA,370,"PDS-FAKEDRUG-111",0,NA,"mg/kg","SUSPENSION","QD","ORAL GAVAGE","ABCD1234",NA,NA,"methocell",NA,NA,NA,"2010-12-20T10:58:49",NA,10,NA,NA,NA,NA,NA,NA,NA
"PDS2014","EX","PDS2014-0013",NA,371,"PDS-FAKEDRUG-111",0,NA,"mg/kg","SUSPENSION","QD","ORAL GAVAGE","ABCD1234",NA,NA,"methocell",NA,NA,NA,"2010-12-21T07:27:28",NA,11,NA,NA,NA,NA,NA,NA,NA
"PDS2014","EX","PDS2014-0013",NA,372,"PDS-FAKEDRUG-111",0,NA,"mg/kg","SUSPENSION","QD","ORAL GAVAGE","ABCD1234",NA,NA,"methocell",NA,NA,NA,"2010-12-22T08:07:09",NA,12,NA,NA,NA,NA,NA,NA,NA
"PDS2014","EX","PDS2014-0013",NA,373,"PDS-FAKEDRUG-111",0,NA,"mg/kg","SUSPENSION","QD","ORAL GAVAGE","ABCD1234",NA,NA,"methocell",NA,NA,NA,"2010-12-23T07:26:39",NA,13,NA,NA,NA,NA,NA,NA,NA
"PDS2014","EX","PDS2014-0013",NA,374,"PDS-FAKEDRUG-111",0,NA,"mg/kg","SUSPENSION","QD","ORAL GAVAGE","ABCD1234",NA,NA,"methocell",NA,NA,NA,"2010-12-24T07:57:18",NA,14,NA,NA,NA,NA,NA,NA,NA
"PDS2014","EX","PDS2014-0013",NA,375,"PDS-FAKEDRUG-111",0,NA,"mg/kg","SUSPENSION","QD","ORAL GAVAGE","ABCD1234",NA,NA,"methocell",NA,NA,NA,"2010-12-25T07:36:52",NA,15,NA,NA,NA,NA,NA,NA,NA
"PDS2014","EX","PDS2014-0013",NA,376,"PDS-FAKEDRUG-111",0,NA,"mg/kg","SUSPENSION","QD","ORAL GAVAGE","ABCD1234",NA,NA,"methocell",NA,NA,NA,"2010-12-26T07:12:43",NA,16,NA,NA,NA,NA,NA,NA,NA
"PDS2014","EX","PDS2014-0013",NA,377,"PDS-FAKEDRUG-111",0,NA,"mg/kg","SUSPENSION","QD","ORAL GAVAGE","ABCD1234",NA,NA,"methocell",NA,NA,NA,"2010-12-27T09:56:44",NA,17,NA,NA,NA,NA,NA,NA,NA
"PDS2014","EX","PDS2014-0013",NA,378,"PDS-FAKEDRUG-111",0,NA,"mg/kg","SUSPENSION","QD","ORAL GAVAGE","ABCD1234",NA,NA,"methocell",NA,NA,NA,"2010-12-28T07:54:32",NA,18,NA,NA,NA,NA,NA,NA,NA
"PDS2014","EX","PDS2014-0013",NA,379,"PDS-FAKEDRUG-111",0,NA,"mg/kg","SUSPENSION","QD","ORAL GAVAGE","ABCD1234",NA,NA,"methocell",NA,NA,NA,"2010-12-29T09:32:39",NA,19,NA,NA,NA,NA,NA,NA,NA
"PDS2014","EX","PDS2014-0013",NA,380,"PDS-FAKEDRUG-111",0,NA,"mg/kg","SUSPENSION","QD","ORAL GAVAGE","ABCD1234",NA,NA,"methocell",NA,NA,NA,"2010-12-30T08:06:29",NA,20,NA,NA,NA,NA,NA,NA,NA
"PDS2014","EX","PDS2014-0013",NA,381,"PDS-FAKEDRUG-111",0,NA,"mg/kg","SUSPENSION","QD","ORAL GAVAGE","ABCD1234",NA,NA,"methocell",NA,NA,NA,"2010-12-31T08:50:48",NA,21,NA,NA,NA,NA,NA,NA,NA
"PDS2014","EX","PDS2014-0013",NA,382,"PDS-FAKEDRUG-111",0,NA,"mg/kg","SUSPENSION","QD","ORAL GAVAGE","ABCD1234",NA,NA,"methocell",NA,NA,NA,"2011-01-01T06:42:29",NA,22,NA,NA,NA,NA,NA,NA,NA
"PDS2014","EX","PDS2014-0013",NA,383,"PDS-FAKEDRUG-111",0,NA,"mg/kg","SUSPENSION","QD","ORAL GAVAGE","ABCD1234",NA,NA,"methocell",NA,NA,NA,"2011-01-02T08:15:41",NA,23,NA,NA,NA,NA,NA,NA,NA
"PDS2014","EX","PDS2014-0013",NA,384,"PDS-FAKEDRUG-111",0,NA,"mg/kg","SUSPENSION","QD","ORAL GAVAGE","ABCD1234",NA,NA,"methocell",NA,NA,NA,"2011-01-03T08:35:04",NA,24,NA,NA,NA,NA,NA,NA,NA
"PDS2014","EX","PDS2014-0013",NA,385,"PDS-FAKEDRUG-111",0,NA,"mg/kg","SUSPENSION","QD","ORAL GAVAGE","ABCD1234",NA,NA,"methocell",NA,NA,NA,"2011-01-04T08:27:31",NA,25,NA,NA,NA,NA,NA,NA,NA
"PDS2014","EX","PDS2014-0013",NA,386,"PDS-FAKEDRUG-111",0,NA,"mg/kg","SUSPENSION","QD","ORAL GAVAGE","ABCD1234",NA,NA,"methocell",NA,NA,NA,"2011-01-05T08:17:26",NA,26,NA,NA,NA,NA,NA,NA,NA
"PDS2014","EX","PDS2014-0013",NA,387,"PDS-FAKEDRUG-111",0,NA,"mg/kg","SUSPENSION","QD","ORAL GAVAGE","ABCD1234",NA,NA,"methocell",NA,NA,NA,"2011-01-06T08:53:35",NA,27,NA,NA,NA,NA,NA,NA,NA
"PDS2014","EX","PDS2014-0013",NA,388,"PDS-FAKEDRUG-111",0,NA,"mg/kg","SUSPENSION","QD","ORAL GAVAGE","ABCD1234",NA,NA,"methocell",NA,NA,NA,"2011-01-07T07:24:18",NA,28,NA,NA,NA,NA,NA,NA,NA
"PDS2014","EX","PDS2014-0013",NA,389,"PDS-FAKEDRUG-111",0,NA,"mg/kg","SUSPENSION","QD","ORAL GAVAGE","ABCD1234",NA,NA,"methocell",NA,NA,NA,"2011-01-08T07:17:29",NA,29,NA,NA,NA,NA,NA,NA,NA
"PDS2014","EX","PDS2014-0013",NA,390,"PDS-FAKEDRUG-111",0,NA,"mg/kg","SUSPENSION","QD","ORAL GAVAGE","ABCD1234",NA,NA,"methocell",NA,NA,NA,"2011-01-09T10:56:22",NA,30,NA,NA,NA,NA,NA,NA,NA
"PDS2014","EX","PDS2014-0014",NA,391,"PDS-FAKEDRUG-111",0,NA,"mg/kg","SUSPENSION","QD","ORAL GAVAGE","ABCD1234",NA,NA,"methocell",NA,NA,NA,"2010-12-11T09:33:42",NA,1,NA,NA,NA,NA,NA,NA,NA
"PDS2014","EX","PDS2014-0014",NA,392,"PDS-FAKEDRUG-111",0,NA,"mg/kg","SUSPENSION","QD","ORAL GAVAGE","ABCD1234",NA,NA,"methocell",NA,NA,NA,"2010-12-12T10:34:32",NA,2,NA,NA,NA,NA,NA,NA,NA
"PDS2014","EX","PDS2014-0014",NA,393,"PDS-FAKEDRUG-111",0,NA,"mg/kg","SUSPENSION","QD","ORAL GAVAGE","ABCD1234",NA,NA,"methocell",NA,NA,NA,"2010-12-13T11:11:32",NA,3,NA,NA,NA,NA,NA,NA,NA
"PDS2014","EX","PDS2014-0014",NA,394,"PDS-FAKEDRUG-111",0,NA,"mg/kg","SUSPENSION","QD","ORAL GAVAGE","ABCD1234",NA,NA,"methocell",NA,NA,NA,"2010-12-14T09:53:06",NA,4,NA,NA,NA,NA,NA,NA,NA
"PDS2014","EX","PDS2014-0014",NA,395,"PDS-FAKEDRUG-111",0,NA,"mg/kg","SUSPENSION","QD","ORAL GAVAGE","ABCD1234",NA,NA,"methocell",NA,NA,NA,"2010-12-15T08:35:06",NA,5,NA,NA,NA,NA,NA,NA,NA
"PDS2014","EX","PDS2014-0014",NA,396,"PDS-FAKEDRUG-111",0,NA,"mg/kg","SUSPENSION","QD","ORAL GAVAGE","ABCD1234",NA,NA,"methocell",NA,NA,NA,"2010-12-16T08:56:30",NA,6,NA,NA,NA,NA,NA,NA,NA
"PDS2014","EX","PDS2014-0014",NA,397,"PDS-FAKEDRUG-111",0,NA,"mg/kg","SUSPENSION","QD","ORAL GAVAGE","ABCD1234",NA,NA,"methocell",NA,NA,NA,"2010-12-17T08:03:58",NA,7,NA,NA,NA,NA,NA,NA,NA
"PDS2014","EX","PDS2014-0014",NA,398,"PDS-FAKEDRUG-111",0,NA,"mg/kg","SUSPENSION","QD","ORAL GAVAGE","ABCD1234",NA,NA,"methocell",NA,NA,NA,"2010-12-18T08:10:22",NA,8,NA,NA,NA,NA,NA,NA,NA
"PDS2014","EX","PDS2014-0014",NA,399,"PDS-FAKEDRUG-111",0,NA,"mg/kg","SUSPENSION","QD","ORAL GAVAGE","ABCD1234",NA,NA,"methocell",NA,NA,NA,"2010-12-19T11:41:39",NA,9,NA,NA,NA,NA,NA,NA,NA
"PDS2014","EX","PDS2014-0014",NA,400,"PDS-FAKEDRUG-111",0,NA,"mg/kg","SUSPENSION","QD","ORAL GAVAGE","ABCD1234",NA,NA,"methocell",NA,NA,NA,"2010-12-20T10:57:31",NA,10,NA,NA,NA,NA,NA,NA,NA
"PDS2014","EX","PDS2014-0014",NA,401,"PDS-FAKEDRUG-111",0,NA,"mg/kg","SUSPENSION","QD","ORAL GAVAGE","ABCD1234",NA,NA,"methocell",NA,NA,NA,"2010-12-21T07:27:07",NA,11,NA,NA,NA,NA,NA,NA,NA
"PDS2014","EX","PDS2014-0014",NA,402,"PDS-FAKEDRUG-111",0,NA,"mg/kg","SUSPENSION","QD","ORAL GAVAGE","ABCD1234",NA,NA,"methocell",NA,NA,NA,"2010-12-22T08:06:51",NA,12,NA,NA,NA,NA,NA,NA,NA
"PDS2014","EX","PDS2014-0014",NA,403,"PDS-FAKEDRUG-111",0,NA,"mg/kg","SUSPENSION","QD","ORAL GAVAGE","ABCD1234",NA,NA,"methocell",NA,NA,NA,"2010-12-23T07:27:19",NA,13,NA,NA,NA,NA,NA,NA,NA
"PDS2014","EX","PDS2014-0014",NA,404,"PDS-FAKEDRUG-111",0,NA,"mg/kg","SUSPENSION","QD","ORAL GAVAGE","ABCD1234",NA,NA,"methocell",NA,NA,NA,"2010-12-24T07:57:01",NA,14,NA,NA,NA,NA,NA,NA,NA
"PDS2014","EX","PDS2014-0014",NA,405,"PDS-FAKEDRUG-111",0,NA,"mg/kg","SUSPENSION","QD","ORAL GAVAGE","ABCD1234",NA,NA,"methocell",NA,NA,NA,"2010-12-25T07:35:31",NA,15,NA,NA,NA,NA,NA,NA,NA
"PDS2014","EX","PDS2014-0014",NA,406,"PDS-FAKEDRUG-111",0,NA,"mg/kg","SUSPENSION","QD","ORAL GAVAGE","ABCD1234",NA,NA,"methocell",NA,NA,NA,"2010-12-26T07:12:04",NA,16,NA,NA,NA,NA,NA,NA,NA
"PDS2014","EX","PDS2014-0014",NA,407,"PDS-FAKEDRUG-111",0,NA,"mg/kg","SUSPENSION","QD","ORAL GAVAGE","ABCD1234",NA,NA,"methocell",NA,NA,NA,"2010-12-27T09:57:02",NA,17,NA,NA,NA,NA,NA,NA,NA
"PDS2014","EX","PDS2014-0014",NA,408,"PDS-FAKEDRUG-111",0,NA,"mg/kg","SUSPENSION","QD","ORAL GAVAGE","ABCD1234",NA,NA,"methocell",NA,NA,NA,"2010-12-28T07:55:36",NA,18,NA,NA,NA,NA,NA,NA,NA
"PDS2014","EX","PDS2014-0014",NA,409,"PDS-FAKEDRUG-111",0,NA,"mg/kg","SUSPENSION","QD","ORAL GAVAGE","ABCD1234",NA,NA,"methocell",NA,NA,NA,"2010-12-29T09:31:28",NA,19,NA,NA,NA,NA,NA,NA,NA
"PDS2014","EX","PDS2014-0014",NA,410,"PDS-FAKEDRUG-111",0,NA,"mg/kg","SUSPENSION","QD","ORAL GAVAGE","ABCD1234",NA,NA,"methocell",NA,NA,NA,"2010-12-30T08:05:09",NA,20,NA,NA,NA,NA,NA,NA,NA
"PDS2014","EX","PDS2014-0014",NA,411,"PDS-FAKEDRUG-111",0,NA,"mg/kg","SUSPENSION","QD","ORAL GAVAGE","ABCD1234",NA,NA,"methocell",NA,NA,NA,"2010-12-31T08:50:31",NA,21,NA,NA,NA,NA,NA,NA,NA
"PDS2014","EX","PDS2014-0014",NA,412,"PDS-FAKEDRUG-111",0,NA,"mg/kg","SUSPENSION","QD","ORAL GAVAGE","ABCD1234",NA,NA,"methocell",NA,NA,NA,"2011-01-01T06:44:32",NA,22,NA,NA,NA,NA,NA,NA,NA
"PDS2014","EX","PDS2014-0014",NA,413,"PDS-FAKEDRUG-111",0,NA,"mg/kg","SUSPENSION","QD","ORAL GAVAGE","ABCD1234",NA,NA,"methocell",NA,NA,NA,"2011-01-02T08:15:01",NA,23,NA,NA,NA,NA,NA,NA,NA
"PDS2014","EX","PDS2014-0014",NA,414,"PDS-FAKEDRUG-111",0,NA,"mg/kg","SUSPENSION","QD","ORAL GAVAGE","ABCD1234",NA,NA,"methocell",NA,NA,NA,"2011-01-03T08:34:04",NA,24,NA,NA,NA,NA,NA,NA,NA
"PDS2014","EX","PDS2014-0014",NA,415,"PDS-FAKEDRUG-111",0,NA,"mg/kg","SUSPENSION","QD","ORAL GAVAGE","ABCD1234",NA,NA,"methocell",NA,NA,NA,"2011-01-04T08:28:16",NA,25,NA,NA,NA,NA,NA,NA,NA
"PDS2014","EX","PDS2014-0014",NA,416,"PDS-FAKEDRUG-111",0,NA,"mg/kg","SUSPENSION","QD","ORAL GAVAGE","ABCD1234",NA,NA,"methocell",NA,NA,NA,"2011-01-05T08:18:06",NA,26,NA,NA,NA,NA,NA,NA,NA
"PDS2014","EX","PDS2014-0014",NA,417,"PDS-FAKEDRUG-111",0,NA,"mg/kg","SUSPENSION","QD","ORAL GAVAGE","ABCD1234",NA,NA,"methocell",NA,NA,NA,"2011-01-06T08:53:14",NA,27,NA,NA,NA,NA,NA,NA,NA
"PDS2014","EX","PDS2014-0014",NA,418,"PDS-FAKEDRUG-111",0,NA,"mg/kg","SUSPENSION","QD","ORAL GAVAGE","ABCD1234",NA,NA,"methocell",NA,NA,NA,"2011-01-07T07:23:58",NA,28,NA,NA,NA,NA,NA,NA,NA
"PDS2014","EX","PDS2014-0014",NA,419,"PDS-FAKEDRUG-111",0,NA,"mg/kg","SUSPENSION","QD","ORAL GAVAGE","ABCD1234",NA,NA,"methocell",NA,NA,NA,"2011-01-08T07:18:35",NA,29,NA,NA,NA,NA,NA,NA,NA
"PDS2014","EX","PDS2014-0014",NA,420,"PDS-FAKEDRUG-111",0,NA,"mg/kg","SUSPENSION","QD","ORAL GAVAGE","ABCD1234",NA,NA,"methocell",NA,NA,NA,"2011-01-09T10:57:08",NA,30,NA,NA,NA,NA,NA,NA,NA
"PDS2014","EX","PDS2014-0015",NA,421,"PDS-FAKEDRUG-111",0,NA,"mg/kg","SUSPENSION","QD","ORAL GAVAGE","ABCD1234",NA,NA,"methocell",NA,NA,NA,"2010-12-11T09:34:05",NA,1,NA,NA,NA,NA,NA,NA,NA
"PDS2014","EX","PDS2014-0015",NA,422,"PDS-FAKEDRUG-111",0,NA,"mg/kg","SUSPENSION","QD","ORAL GAVAGE","ABCD1234",NA,NA,"methocell",NA,NA,NA,"2010-12-12T10:35:16",NA,2,NA,NA,NA,NA,NA,NA,NA
"PDS2014","EX","PDS2014-0015",NA,423,"PDS-FAKEDRUG-111",0,NA,"mg/kg","SUSPENSION","QD","ORAL GAVAGE","ABCD1234",NA,NA,"methocell",NA,NA,NA,"2010-12-13T11:11:13",NA,3,NA,NA,NA,NA,NA,NA,NA
"PDS2014","EX","PDS2014-0015",NA,424,"PDS-FAKEDRUG-111",0,NA,"mg/kg","SUSPENSION","QD","ORAL GAVAGE","ABCD1234",NA,NA,"methocell",NA,NA,NA,"2010-12-14T09:54:21",NA,4,NA,NA,NA,NA,NA,NA,NA
"PDS2014","EX","PDS2014-0015",NA,425,"PDS-FAKEDRUG-111",0,NA,"mg/kg","SUSPENSION","QD","ORAL GAVAGE","ABCD1234",NA,NA,"methocell",NA,NA,NA,"2010-12-15T08:35:24",NA,5,NA,NA,NA,NA,NA,NA,NA
"PDS2014","EX","PDS2014-0015",NA,426,"PDS-FAKEDRUG-111",0,NA,"mg/kg","SUSPENSION","QD","ORAL GAVAGE","ABCD1234",NA,NA,"methocell",NA,NA,NA,"2010-12-16T08:55:45",NA,6,NA,NA,NA,NA,NA,NA,NA
"PDS2014","EX","PDS2014-0015",NA,427,"PDS-FAKEDRUG-111",0,NA,"mg/kg","SUSPENSION","QD","ORAL GAVAGE","ABCD1234",NA,NA,"methocell",NA,NA,NA,"2010-12-17T08:04:19",NA,7,NA,NA,NA,NA,NA,NA,NA
"PDS2014","EX","PDS2014-0015",NA,428,"PDS-FAKEDRUG-111",0,NA,"mg/kg","SUSPENSION","QD","ORAL GAVAGE","ABCD1234",NA,NA,"methocell",NA,NA,NA,"2010-12-18T08:12:44",NA,8,NA,NA,NA,NA,NA,NA,NA
"PDS2014","EX","PDS2014-0015",NA,429,"PDS-FAKEDRUG-111",0,NA,"mg/kg","SUSPENSION","QD","ORAL GAVAGE","ABCD1234",NA,NA,"methocell",NA,NA,NA,"2010-12-19T11:42:37",NA,9,NA,NA,NA,NA,NA,NA,NA
"PDS2014","EX","PDS2014-0015",NA,430,"PDS-FAKEDRUG-111",0,NA,"mg/kg","SUSPENSION","QD","ORAL GAVAGE","ABCD1234",NA,NA,"methocell",NA,NA,NA,"2010-12-20T10:58:31",NA,10,NA,NA,NA,NA,NA,NA,NA
"PDS2014","EX","PDS2014-0015",NA,431,"PDS-FAKEDRUG-111",0,NA,"mg/kg","SUSPENSION","QD","ORAL GAVAGE","ABCD1234",NA,NA,"methocell",NA,NA,NA,"2010-12-21T07:26:46",NA,11,NA,NA,NA,NA,NA,NA,NA
"PDS2014","EX","PDS2014-0015",NA,432,"PDS-FAKEDRUG-111",0,NA,"mg/kg","SUSPENSION","QD","ORAL GAVAGE","ABCD1234",NA,NA,"methocell",NA,NA,NA,"2010-12-22T08:07:27",NA,12,NA,NA,NA,NA,NA,NA,NA
"PDS2014","EX","PDS2014-0015",NA,433,"PDS-FAKEDRUG-111",0,NA,"mg/kg","SUSPENSION","QD","ORAL GAVAGE","ABCD1234",NA,NA,"methocell",NA,NA,NA,"2010-12-23T07:27:37",NA,13,NA,NA,NA,NA,NA,NA,NA
"PDS2014","EX","PDS2014-0015",NA,434,"PDS-FAKEDRUG-111",0,NA,"mg/kg","SUSPENSION","QD","ORAL GAVAGE","ABCD1234",NA,NA,"methocell",NA,NA,NA,"2010-12-24T07:57:35",NA,14,NA,NA,NA,NA,NA,NA,NA
"PDS2014","EX","PDS2014-0015",NA,435,"PDS-FAKEDRUG-111",0,NA,"mg/kg","SUSPENSION","QD","ORAL GAVAGE","ABCD1234",NA,NA,"methocell",NA,NA,NA,"2010-12-25T07:33:52",NA,15,NA,NA,NA,NA,NA,NA,NA
"PDS2014","EX","PDS2014-0015",NA,436,"PDS-FAKEDRUG-111",0,NA,"mg/kg","SUSPENSION","QD","ORAL GAVAGE","ABCD1234",NA,NA,"methocell",NA,NA,NA,"2010-12-26T07:11:19",NA,16,NA,NA,NA,NA,NA,NA,NA
"PDS2014","EX","PDS2014-0015",NA,437,"PDS-FAKEDRUG-111",0,NA,"mg/kg","SUSPENSION","QD","ORAL GAVAGE","ABCD1234",NA,NA,"methocell",NA,NA,NA,"2010-12-27T09:56:28",NA,17,NA,NA,NA,NA,NA,NA,NA
"PDS2014","EX","PDS2014-0015",NA,438,"PDS-FAKEDRUG-111",0,NA,"mg/kg","SUSPENSION","QD","ORAL GAVAGE","ABCD1234",NA,NA,"methocell",NA,NA,NA,"2010-12-28T07:55:17",NA,18,NA,NA,NA,NA,NA,NA,NA
"PDS2014","EX","PDS2014-0015",NA,439,"PDS-FAKEDRUG-111",0,NA,"mg/kg","SUSPENSION","QD","ORAL GAVAGE","ABCD1234",NA,NA,"methocell",NA,NA,NA,"2010-12-29T09:31:05",NA,19,NA,NA,NA,NA,NA,NA,NA
"PDS2014","EX","PDS2014-0015",NA,440,"PDS-FAKEDRUG-111",0,NA,"mg/kg","SUSPENSION","QD","ORAL GAVAGE","ABCD1234",NA,NA,"methocell",NA,NA,NA,"2010-12-30T08:06:48",NA,20,NA,NA,NA,NA,NA,NA,NA
"PDS2014","EX","PDS2014-0015",NA,441,"PDS-FAKEDRUG-111",0,NA,"mg/kg","SUSPENSION","QD","ORAL GAVAGE","ABCD1234",NA,NA,"methocell",NA,NA,NA,"2010-12-31T08:51:47",NA,21,NA,NA,NA,NA,NA,NA,NA
"PDS2014","EX","PDS2014-0015",NA,442,"PDS-FAKEDRUG-111",0,NA,"mg/kg","SUSPENSION","QD","ORAL GAVAGE","ABCD1234",NA,NA,"methocell",NA,NA,NA,"2011-01-01T06:44:58",NA,22,NA,NA,NA,NA,NA,NA,NA
"PDS2014","EX","PDS2014-0015",NA,443,"PDS-FAKEDRUG-111",0,NA,"mg/kg","SUSPENSION","QD","ORAL GAVAGE","ABCD1234",NA,NA,"methocell",NA,NA,NA,"2011-01-02T08:16:21",NA,23,NA,NA,NA,NA,NA,NA,NA
"PDS2014","EX","PDS2014-0015",NA,444,"PDS-FAKEDRUG-111",0,NA,"mg/kg","SUSPENSION","QD","ORAL GAVAGE","ABCD1234",NA,NA,"methocell",NA,NA,NA,"2011-01-03T08:34:36",NA,24,NA,NA,NA,NA,NA,NA,NA
"PDS2014","EX","PDS2014-0015",NA,445,"PDS-FAKEDRUG-111",0,NA,"mg/kg","SUSPENSION","QD","ORAL GAVAGE","ABCD1234",NA,NA,"methocell",NA,NA,NA,"2011-01-04T08:26:47",NA,25,NA,NA,NA,NA,NA,NA,NA
"PDS2014","EX","PDS2014-0015",NA,446,"PDS-FAKEDRUG-111",0,NA,"mg/kg","SUSPENSION","QD","ORAL GAVAGE","ABCD1234",NA,NA,"methocell",NA,NA,NA,"2011-01-05T08:18:37",NA,26,NA,NA,NA,NA,NA,NA,NA
"PDS2014","EX","PDS2014-0015",NA,447,"PDS-FAKEDRUG-111",0,NA,"mg/kg","SUSPENSION","QD","ORAL GAVAGE","ABCD1234",NA,NA,"methocell",NA,NA,NA,"2011-01-06T08:54:21",NA,27,NA,NA,NA,NA,NA,NA,NA
"PDS2014","EX","PDS2014-0015",NA,448,"PDS-FAKEDRUG-111",0,NA,"mg/kg","SUSPENSION","QD","ORAL GAVAGE","ABCD1234",NA,NA,"methocell",NA,NA,NA,"2011-01-07T07:24:38",NA,28,NA,NA,NA,NA,NA,NA,NA
"PDS2014","EX","PDS2014-0015",NA,449,"PDS-FAKEDRUG-111",0,NA,"mg/kg","SUSPENSION","QD","ORAL GAVAGE","ABCD1234",NA,NA,"methocell",NA,NA,NA,"2011-01-08T07:16:54",NA,29,NA,NA,NA,NA,NA,NA,NA
"PDS2014","EX","PDS2014-0015",NA,450,"PDS-FAKEDRUG-111",0,NA,"mg/kg","SUSPENSION","QD","ORAL GAVAGE","ABCD1234",NA,NA,"methocell",NA,NA,NA,"2011-01-09T10:57:32",NA,30,NA,NA,NA,NA,NA,NA,NA
"PDS2014","EX","PDS2014-0016",NA,451,"PDS-FAKEDRUG-111",0,NA,"mg/kg","SUSPENSION","QD","ORAL GAVAGE","ABCD1234",NA,NA,"methocell",NA,NA,NA,"2010-12-11T08:21:04",NA,1,NA,NA,NA,NA,NA,NA,NA
"PDS2014","EX","PDS2014-0016",NA,452,"PDS-FAKEDRUG-111",0,NA,"mg/kg","SUSPENSION","QD","ORAL GAVAGE","ABCD1234",NA,NA,"methocell",NA,NA,NA,"2010-12-12T10:36:46",NA,2,NA,NA,NA,NA,NA,NA,NA
"PDS2014","EX","PDS2014-0016",NA,453,"PDS-FAKEDRUG-111",0,NA,"mg/kg","SUSPENSION","QD","ORAL GAVAGE","ABCD1234",NA,NA,"methocell",NA,NA,NA,"2010-12-13T11:12:40",NA,3,NA,NA,NA,NA,NA,NA,NA
"PDS2014","EX","PDS2014-0016",NA,454,"PDS-FAKEDRUG-111",0,NA,"mg/kg","SUSPENSION","QD","ORAL GAVAGE","ABCD1234",NA,NA,"methocell",NA,NA,NA,"2010-12-14T09:54:54",NA,4,NA,NA,NA,NA,NA,NA,NA
"PDS2014","EX","PDS2014-0016",NA,455,"PDS-FAKEDRUG-111",0,NA,"mg/kg","SUSPENSION","QD","ORAL GAVAGE","ABCD1234",NA,NA,"methocell",NA,NA,NA,"2010-12-15T08:36:29",NA,5,NA,NA,NA,NA,NA,NA,NA
"PDS2014","EX","PDS2014-0016",NA,456,"PDS-FAKEDRUG-111",0,NA,"mg/kg","SUSPENSION","QD","ORAL GAVAGE","ABCD1234",NA,NA,"methocell",NA,NA,NA,"2010-12-16T08:57:21",NA,6,NA,NA,NA,NA,NA,NA,NA
"PDS2014","EX","PDS2014-0016",NA,457,"PDS-FAKEDRUG-111",0,NA,"mg/kg","SUSPENSION","QD","ORAL GAVAGE","ABCD1234",NA,NA,"methocell",NA,NA,NA,"2010-12-17T08:05:23",NA,7,NA,NA,NA,NA,NA,NA,NA
"PDS2014","EX","PDS2014-0016",NA,458,"PDS-FAKEDRUG-111",0,NA,"mg/kg","SUSPENSION","QD","ORAL GAVAGE","ABCD1234",NA,NA,"methocell",NA,NA,NA,"2010-12-18T08:14:02",NA,8,NA,NA,NA,NA,NA,NA,NA
"PDS2014","EX","PDS2014-0016",NA,459,"PDS-FAKEDRUG-111",0,NA,"mg/kg","SUSPENSION","QD","ORAL GAVAGE","ABCD1234",NA,NA,"methocell",NA,NA,NA,"2010-12-19T11:43:43",NA,9,NA,NA,NA,NA,NA,NA,NA
"PDS2014","EX","PDS2014-0016",NA,460,"PDS-FAKEDRUG-111",0,NA,"mg/kg","SUSPENSION","QD","ORAL GAVAGE","ABCD1234",NA,NA,"methocell",NA,NA,NA,"2010-12-20T10:59:57",NA,10,NA,NA,NA,NA,NA,NA,NA
"PDS2014","EX","PDS2014-0016",NA,461,"PDS-FAKEDRUG-111",0,NA,"mg/kg","SUSPENSION","QD","ORAL GAVAGE","ABCD1234",NA,NA,"methocell",NA,NA,NA,"2010-12-21T07:28:53",NA,11,NA,NA,NA,NA,NA,NA,NA
"PDS2014","EX","PDS2014-0016",NA,462,"PDS-FAKEDRUG-111",0,NA,"mg/kg","SUSPENSION","QD","ORAL GAVAGE","ABCD1234",NA,NA,"methocell",NA,NA,NA,"2010-12-22T08:09:08",NA,12,NA,NA,NA,NA,NA,NA,NA
"PDS2014","EX","PDS2014-0016",NA,463,"PDS-FAKEDRUG-111",0,NA,"mg/kg","SUSPENSION","QD","ORAL GAVAGE","ABCD1234",NA,NA,"methocell",NA,NA,NA,"2010-12-23T07:28:39",NA,13,NA,NA,NA,NA,NA,NA,NA
"PDS2014","EX","PDS2014-0016",NA,464,"PDS-FAKEDRUG-111",0,NA,"mg/kg","SUSPENSION","QD","ORAL GAVAGE","ABCD1234",NA,NA,"methocell",NA,NA,NA,"2010-12-24T07:58:59",NA,14,NA,NA,NA,NA,NA,NA,NA
"PDS2014","EX","PDS2014-0016",NA,465,"PDS-FAKEDRUG-111",0,NA,"mg/kg","SUSPENSION","QD","ORAL GAVAGE","ABCD1234",NA,NA,"methocell",NA,NA,NA,"2010-12-25T07:42:53",NA,15,NA,NA,NA,NA,NA,NA,NA
"PDS2014","EX","PDS2014-0016",NA,466,"PDS-FAKEDRUG-111",0,NA,"mg/kg","SUSPENSION","QD","ORAL GAVAGE","ABCD1234",NA,NA,"methocell",NA,NA,NA,"2010-12-26T07:13:49",NA,16,NA,NA,NA,NA,NA,NA,NA
"PDS2014","EX","PDS2014-0016",NA,467,"PDS-FAKEDRUG-111",0,NA,"mg/kg","SUSPENSION","QD","ORAL GAVAGE","ABCD1234",NA,NA,"methocell",NA,NA,NA,"2010-12-27T09:58:12",NA,17,NA,NA,NA,NA,NA,NA,NA
"PDS2014","EX","PDS2014-0016",NA,468,"PDS-FAKEDRUG-111",0,NA,"mg/kg","SUSPENSION","QD","ORAL GAVAGE","ABCD1234",NA,NA,"methocell",NA,NA,NA,"2010-12-28T07:56:05",NA,18,NA,NA,NA,NA,NA,NA,NA
"PDS2014","EX","PDS2014-0016",NA,469,"PDS-FAKEDRUG-111",0,NA,"mg/kg","SUSPENSION","QD","ORAL GAVAGE","ABCD1234",NA,NA,"methocell",NA,NA,NA,"2010-12-29T09:33:30",NA,19,NA,NA,NA,NA,NA,NA,NA
"PDS2014","EX","PDS2014-0016",NA,470,"PDS-FAKEDRUG-111",0,NA,"mg/kg","SUSPENSION","QD","ORAL GAVAGE","ABCD1234",NA,NA,"methocell",NA,NA,NA,"2010-12-30T08:07:18",NA,20,NA,NA,NA,NA,NA,NA,NA
"PDS2014","EX","PDS2014-0016",NA,471,"PDS-FAKEDRUG-111",0,NA,"mg/kg","SUSPENSION","QD","ORAL GAVAGE","ABCD1234",NA,NA,"methocell",NA,NA,NA,"2010-12-31T08:52:17",NA,21,NA,NA,NA,NA,NA,NA,NA
"PDS2014","EX","PDS2014-0016",NA,472,"PDS-FAKEDRUG-111",0,NA,"mg/kg","SUSPENSION","QD","ORAL GAVAGE","ABCD1234",NA,NA,"methocell",NA,NA,NA,"2011-01-01T06:45:25",NA,22,NA,NA,NA,NA,NA,NA,NA
"PDS2014","EX","PDS2014-0016",NA,473,"PDS-FAKEDRUG-111",0,NA,"mg/kg","SUSPENSION","QD","ORAL GAVAGE","ABCD1234",NA,NA,"methocell",NA,NA,NA,"2011-01-02T08:16:57",NA,23,NA,NA,NA,NA,NA,NA,NA
"PDS2014","EX","PDS2014-0016",NA,474,"PDS-FAKEDRUG-111",0,NA,"mg/kg","SUSPENSION","QD","ORAL GAVAGE","ABCD1234",NA,NA,"methocell",NA,NA,NA,"2011-01-03T08:36:04",NA,24,NA,NA,NA,NA,NA,NA,NA
"PDS2014","EX","PDS2014-0016",NA,475,"PDS-FAKEDRUG-111",0,NA,"mg/kg","SUSPENSION","QD","ORAL GAVAGE","ABCD1234",NA,NA,"methocell",NA,NA,NA,"2011-01-04T08:29:01",NA,25,NA,NA,NA,NA,NA,NA,NA
"PDS2014","EX","PDS2014-0016",NA,476,"PDS-FAKEDRUG-111",0,NA,"mg/kg","SUSPENSION","QD","ORAL GAVAGE","ABCD1234",NA,NA,"methocell",NA,NA,NA,"2011-01-05T08:19:43",NA,26,NA,NA,NA,NA,NA,NA,NA
"PDS2014","EX","PDS2014-0016",NA,477,"PDS-FAKEDRUG-111",0,NA,"mg/kg","SUSPENSION","QD","ORAL GAVAGE","ABCD1234",NA,NA,"methocell",NA,NA,NA,"2011-01-06T08:55:23",NA,27,NA,NA,NA,NA,NA,NA,NA
"PDS2014","EX","PDS2014-0016",NA,478,"PDS-FAKEDRUG-111",0,NA,"mg/kg","SUSPENSION","QD","ORAL GAVAGE","ABCD1234",NA,NA,"methocell",NA,NA,NA,"2011-01-07T07:26:03",NA,28,NA,NA,NA,NA,NA,NA,NA
"PDS2014","EX","PDS2014-0016",NA,479,"PDS-FAKEDRUG-111",0,NA,"mg/kg","SUSPENSION","QD","ORAL GAVAGE","ABCD1234",NA,NA,"methocell",NA,NA,NA,"2011-01-08T07:30:16",NA,29,NA,NA,NA,NA,NA,NA,NA
"PDS2014","EX","PDS2014-0017",NA,480,"PDS-FAKEDRUG-111",0,NA,"mg/kg","SUSPENSION","QD","ORAL GAVAGE","ABCD1234",NA,NA,"methocell",NA,NA,NA,"2010-12-11T08:23:12",NA,1,NA,NA,NA,NA,NA,NA,NA
"PDS2014","EX","PDS2014-0017",NA,481,"PDS-FAKEDRUG-111",0,NA,"mg/kg","SUSPENSION","QD","ORAL GAVAGE","ABCD1234",NA,NA,"methocell",NA,NA,NA,"2010-12-12T10:36:23",NA,2,NA,NA,NA,NA,NA,NA,NA
"PDS2014","EX","PDS2014-0017",NA,482,"PDS-FAKEDRUG-111",0,NA,"mg/kg","SUSPENSION","QD","ORAL GAVAGE","ABCD1234",NA,NA,"methocell",NA,NA,NA,"2010-12-13T11:12:58",NA,3,NA,NA,NA,NA,NA,NA,NA
"PDS2014","EX","PDS2014-0017",NA,483,"PDS-FAKEDRUG-111",0,NA,"mg/kg","SUSPENSION","QD","ORAL GAVAGE","ABCD1234",NA,NA,"methocell",NA,NA,NA,"2010-12-14T09:55:38",NA,4,NA,NA,NA,NA,NA,NA,NA
"PDS2014","EX","PDS2014-0017",NA,484,"PDS-FAKEDRUG-111",0,NA,"mg/kg","SUSPENSION","QD","ORAL GAVAGE","ABCD1234",NA,NA,"methocell",NA,NA,NA,"2010-12-15T08:36:13",NA,5,NA,NA,NA,NA,NA,NA,NA
"PDS2014","EX","PDS2014-0017",NA,485,"PDS-FAKEDRUG-111",0,NA,"mg/kg","SUSPENSION","QD","ORAL GAVAGE","ABCD1234",NA,NA,"methocell",NA,NA,NA,"2010-12-16T08:57:07",NA,6,NA,NA,NA,NA,NA,NA,NA
"PDS2014","EX","PDS2014-0017",NA,486,"PDS-FAKEDRUG-111",0,NA,"mg/kg","SUSPENSION","QD","ORAL GAVAGE","ABCD1234",NA,NA,"methocell",NA,NA,NA,"2010-12-17T08:06:06",NA,7,NA,NA,NA,NA,NA,NA,NA
"PDS2014","EX","PDS2014-0017",NA,487,"PDS-FAKEDRUG-111",0,NA,"mg/kg","SUSPENSION","QD","ORAL GAVAGE","ABCD1234",NA,NA,"methocell",NA,NA,NA,"2010-12-18T08:13:23",NA,8,NA,NA,NA,NA,NA,NA,NA
"PDS2014","EX","PDS2014-0017",NA,488,"PDS-FAKEDRUG-111",0,NA,"mg/kg","SUSPENSION","QD","ORAL GAVAGE","ABCD1234",NA,NA,"methocell",NA,NA,NA,"2010-12-19T11:43:25",NA,9,NA,NA,NA,NA,NA,NA,NA
"PDS2014","EX","PDS2014-0017",NA,489,"PDS-FAKEDRUG-111",0,NA,"mg/kg","SUSPENSION","QD","ORAL GAVAGE","ABCD1234",NA,NA,"methocell",NA,NA,NA,"2010-12-20T10:59:36",NA,10,NA,NA,NA,NA,NA,NA,NA
"PDS2014","EX","PDS2014-0017",NA,490,"PDS-FAKEDRUG-111",0,NA,"mg/kg","SUSPENSION","QD","ORAL GAVAGE","ABCD1234",NA,NA,"methocell",NA,NA,NA,"2010-12-21T07:29:40",NA,11,NA,NA,NA,NA,NA,NA,NA
"PDS2014","EX","PDS2014-0017",NA,491,"PDS-FAKEDRUG-111",0,NA,"mg/kg","SUSPENSION","QD","ORAL GAVAGE","ABCD1234",NA,NA,"methocell",NA,NA,NA,"2010-12-22T08:08:54",NA,12,NA,NA,NA,NA,NA,NA,NA
"PDS2014","EX","PDS2014-0017",NA,492,"PDS-FAKEDRUG-111",0,NA,"mg/kg","SUSPENSION","QD","ORAL GAVAGE","ABCD1234",NA,NA,"methocell",NA,NA,NA,"2010-12-23T07:28:21",NA,13,NA,NA,NA,NA,NA,NA,NA
"PDS2014","EX","PDS2014-0017",NA,493,"PDS-FAKEDRUG-111",0,NA,"mg/kg","SUSPENSION","QD","ORAL GAVAGE","ABCD1234",NA,NA,"methocell",NA,NA,NA,"2010-12-24T07:58:42",NA,14,NA,NA,NA,NA,NA,NA,NA
"PDS2014","EX","PDS2014-0017",NA,494,"PDS-FAKEDRUG-111",0,NA,"mg/kg","SUSPENSION","QD","ORAL GAVAGE","ABCD1234",NA,NA,"methocell",NA,NA,NA,"2010-12-25T07:42:33",NA,15,NA,NA,NA,NA,NA,NA,NA
"PDS2014","EX","PDS2014-0017",NA,495,"PDS-FAKEDRUG-111",0,NA,"mg/kg","SUSPENSION","QD","ORAL GAVAGE","ABCD1234",NA,NA,"methocell",NA,NA,NA,"2010-12-26T07:13:29",NA,16,NA,NA,NA,NA,NA,NA,NA
"PDS2014","EX","PDS2014-0017",NA,496,"PDS-FAKEDRUG-111",0,NA,"mg/kg","SUSPENSION","QD","ORAL GAVAGE","ABCD1234",NA,NA,"methocell",NA,NA,NA,"2010-12-27T09:58:30",NA,17,NA,NA,NA,NA,NA,NA,NA
"PDS2014","EX","PDS2014-0017",NA,497,"PDS-FAKEDRUG-111",0,NA,"mg/kg","SUSPENSION","QD","ORAL GAVAGE","ABCD1234",NA,NA,"methocell",NA,NA,NA,"2010-12-28T07:56:42",NA,18,NA,NA,NA,NA,NA,NA,NA
"PDS2014","EX","PDS2014-0017",NA,498,"PDS-FAKEDRUG-111",0,NA,"mg/kg","SUSPENSION","QD","ORAL GAVAGE","ABCD1234",NA,NA,"methocell",NA,NA,NA,"2010-12-29T09:33:11",NA,19,NA,NA,NA,NA,NA,NA,NA
"PDS2014","EX","PDS2014-0017",NA,499,"PDS-FAKEDRUG-111",0,NA,"mg/kg","SUSPENSION","QD","ORAL GAVAGE","ABCD1234",NA,NA,"methocell",NA,NA,NA,"2010-12-30T08:08:03",NA,20,NA,NA,NA,NA,NA,NA,NA
"PDS2014","EX","PDS2014-0017",NA,500,"PDS-FAKEDRUG-111",0,NA,"mg/kg","SUSPENSION","QD","ORAL GAVAGE","ABCD1234",NA,NA,"methocell",NA,NA,NA,"2010-12-31T08:52:53",NA,21,NA,NA,NA,NA,NA,NA,NA
"PDS2014","EX","PDS2014-0017",NA,501,"PDS-FAKEDRUG-111",0,NA,"mg/kg","SUSPENSION","QD","ORAL GAVAGE","ABCD1234",NA,NA,"methocell",NA,NA,NA,"2011-01-01T06:45:53",NA,22,NA,NA,NA,NA,NA,NA,NA
"PDS2014","EX","PDS2014-0017",NA,502,"PDS-FAKEDRUG-111",0,NA,"mg/kg","SUSPENSION","QD","ORAL GAVAGE","ABCD1234",NA,NA,"methocell",NA,NA,NA,"2011-01-02T08:17:17",NA,23,NA,NA,NA,NA,NA,NA,NA
"PDS2014","EX","PDS2014-0017",NA,503,"PDS-FAKEDRUG-111",0,NA,"mg/kg","SUSPENSION","QD","ORAL GAVAGE","ABCD1234",NA,NA,"methocell",NA,NA,NA,"2011-01-03T08:36:18",NA,24,NA,NA,NA,NA,NA,NA,NA
"PDS2014","EX","PDS2014-0017",NA,504,"PDS-FAKEDRUG-111",0,NA,"mg/kg","SUSPENSION","QD","ORAL GAVAGE","ABCD1234",NA,NA,"methocell",NA,NA,NA,"2011-01-04T08:28:46",NA,25,NA,NA,NA,NA,NA,NA,NA
"PDS2014","EX","PDS2014-0017",NA,505,"PDS-FAKEDRUG-111",0,NA,"mg/kg","SUSPENSION","QD","ORAL GAVAGE","ABCD1234",NA,NA,"methocell",NA,NA,NA,"2011-01-05T08:20:19",NA,26,NA,NA,NA,NA,NA,NA,NA
"PDS2014","EX","PDS2014-0017",NA,506,"PDS-FAKEDRUG-111",0,NA,"mg/kg","SUSPENSION","QD","ORAL GAVAGE","ABCD1234",NA,NA,"methocell",NA,NA,NA,"2011-01-06T08:56:15",NA,27,NA,NA,NA,NA,NA,NA,NA
"PDS2014","EX","PDS2014-0017",NA,507,"PDS-FAKEDRUG-111",0,NA,"mg/kg","SUSPENSION","QD","ORAL GAVAGE","ABCD1234",NA,NA,"methocell",NA,NA,NA,"2011-01-07T07:26:44",NA,28,NA,NA,NA,NA,NA,NA,NA
"PDS2014","EX","PDS2014-0017",NA,508,"PDS-FAKEDRUG-111",0,NA,"mg/kg","SUSPENSION","QD","ORAL GAVAGE","ABCD1234",NA,NA,"methocell",NA,NA,NA,"2011-01-08T07:32:14",NA,29,NA,NA,NA,NA,NA,NA,NA
"PDS2014","EX","PDS2014-0018",NA,509,"PDS-FAKEDRUG-111",0,NA,"mg/kg","SUSPENSION","QD","ORAL GAVAGE","ABCD1234",NA,NA,"methocell",NA,NA,NA,"2010-12-11T08:25:07",NA,1,NA,NA,NA,NA,NA,NA,NA
"PDS2014","EX","PDS2014-0018",NA,510,"PDS-FAKEDRUG-111",0,NA,"mg/kg","SUSPENSION","QD","ORAL GAVAGE","ABCD1234",NA,NA,"methocell",NA,NA,NA,"2010-12-12T10:37:10",NA,2,NA,NA,NA,NA,NA,NA,NA
"PDS2014","EX","PDS2014-0018",NA,511,"PDS-FAKEDRUG-111",0,NA,"mg/kg","SUSPENSION","QD","ORAL GAVAGE","ABCD1234",NA,NA,"methocell",NA,NA,NA,"2010-12-13T11:12:26",NA,3,NA,NA,NA,NA,NA,NA,NA
"PDS2014","EX","PDS2014-0018",NA,512,"PDS-FAKEDRUG-111",0,NA,"mg/kg","SUSPENSION","QD","ORAL GAVAGE","ABCD1234",NA,NA,"methocell",NA,NA,NA,"2010-12-14T09:55:17",NA,4,NA,NA,NA,NA,NA,NA,NA
"PDS2014","EX","PDS2014-0018",NA,513,"PDS-FAKEDRUG-111",0,NA,"mg/kg","SUSPENSION","QD","ORAL GAVAGE","ABCD1234",NA,NA,"methocell",NA,NA,NA,"2010-12-15T08:35:57",NA,5,NA,NA,NA,NA,NA,NA,NA
"PDS2014","EX","PDS2014-0018",NA,514,"PDS-FAKEDRUG-111",0,NA,"mg/kg","SUSPENSION","QD","ORAL GAVAGE","ABCD1234",NA,NA,"methocell",NA,NA,NA,"2010-12-16T08:57:36",NA,6,NA,NA,NA,NA,NA,NA,NA
"PDS2014","EX","PDS2014-0018",NA,515,"PDS-FAKEDRUG-111",0,NA,"mg/kg","SUSPENSION","QD","ORAL GAVAGE","ABCD1234",NA,NA,"methocell",NA,NA,NA,"2010-12-17T08:05:44",NA,7,NA,NA,NA,NA,NA,NA,NA
"PDS2014","EX","PDS2014-0018",NA,516,"PDS-FAKEDRUG-111",0,NA,"mg/kg","SUSPENSION","QD","ORAL GAVAGE","ABCD1234",NA,NA,"methocell",NA,NA,NA,"2010-12-18T08:13:45",NA,8,NA,NA,NA,NA,NA,NA,NA
"PDS2014","EX","PDS2014-0018",NA,517,"PDS-FAKEDRUG-111",0,NA,"mg/kg","SUSPENSION","QD","ORAL GAVAGE","ABCD1234",NA,NA,"methocell",NA,NA,NA,"2010-12-19T11:43:08",NA,9,NA,NA,NA,NA,NA,NA,NA
"PDS2014","EX","PDS2014-0018",NA,518,"PDS-FAKEDRUG-111",0,NA,"mg/kg","SUSPENSION","QD","ORAL GAVAGE","ABCD1234",NA,NA,"methocell",NA,NA,NA,"2010-12-20T10:59:16",NA,10,NA,NA,NA,NA,NA,NA,NA
"PDS2014","EX","PDS2014-0018",NA,519,"PDS-FAKEDRUG-111",0,NA,"mg/kg","SUSPENSION","QD","ORAL GAVAGE","ABCD1234",NA,NA,"methocell",NA,NA,NA,"2010-12-21T07:29:16",NA,11,NA,NA,NA,NA,NA,NA,NA
"PDS2014","EX","PDS2014-0018",NA,520,"PDS-FAKEDRUG-111",0,NA,"mg/kg","SUSPENSION","QD","ORAL GAVAGE","ABCD1234",NA,NA,"methocell",NA,NA,NA,"2010-12-22T08:08:35",NA,12,NA,NA,NA,NA,NA,NA,NA
"PDS2014","EX","PDS2014-0018",NA,521,"PDS-FAKEDRUG-111",0,NA,"mg/kg","SUSPENSION","QD","ORAL GAVAGE","ABCD1234",NA,NA,"methocell",NA,NA,NA,"2010-12-23T07:28:54",NA,13,NA,NA,NA,NA,NA,NA,NA
"PDS2014","EX","PDS2014-0018",NA,522,"PDS-FAKEDRUG-111",0,NA,"mg/kg","SUSPENSION","QD","ORAL GAVAGE","ABCD1234",NA,NA,"methocell",NA,NA,NA,"2010-12-24T07:58:23",NA,14,NA,NA,NA,NA,NA,NA,NA
"PDS2014","EX","PDS2014-0018",NA,523,"PDS-FAKEDRUG-111",0,NA,"mg/kg","SUSPENSION","QD","ORAL GAVAGE","ABCD1234",NA,NA,"methocell",NA,NA,NA,"2010-12-25T07:41:55",NA,15,NA,NA,NA,NA,NA,NA,NA
"PDS2014","EX","PDS2014-0018",NA,524,"PDS-FAKEDRUG-111",0,NA,"mg/kg","SUSPENSION","QD","ORAL GAVAGE","ABCD1234",NA,NA,"methocell",NA,NA,NA,"2010-12-26T07:13:11",NA,16,NA,NA,NA,NA,NA,NA,NA
"PDS2014","EX","PDS2014-0018",NA,525,"PDS-FAKEDRUG-111",0,NA,"mg/kg","SUSPENSION","QD","ORAL GAVAGE","ABCD1234",NA,NA,"methocell",NA,NA,NA,"2010-12-27T09:58:47",NA,17,NA,NA,NA,NA,NA,NA,NA
"PDS2014","EX","PDS2014-0018",NA,526,"PDS-FAKEDRUG-111",0,NA,"mg/kg","SUSPENSION","QD","ORAL GAVAGE","ABCD1234",NA,NA,"methocell",NA,NA,NA,"2010-12-28T07:56:26",NA,18,NA,NA,NA,NA,NA,NA,NA
"PDS2014","EX","PDS2014-0018",NA,527,"PDS-FAKEDRUG-111",0,NA,"mg/kg","SUSPENSION","QD","ORAL GAVAGE","ABCD1234",NA,NA,"methocell",NA,NA,NA,"2010-12-29T09:34:05",NA,19,NA,NA,NA,NA,NA,NA,NA
"PDS2014","EX","PDS2014-0018",NA,528,"PDS-FAKEDRUG-111",0,NA,"mg/kg","SUSPENSION","QD","ORAL GAVAGE","ABCD1234",NA,NA,"methocell",NA,NA,NA,"2010-12-30T08:07:43",NA,20,NA,NA,NA,NA,NA,NA,NA
"PDS2014","EX","PDS2014-0018",NA,529,"PDS-FAKEDRUG-111",0,NA,"mg/kg","SUSPENSION","QD","ORAL GAVAGE","ABCD1234",NA,NA,"methocell",NA,NA,NA,"2010-12-31T08:52:35",NA,21,NA,NA,NA,NA,NA,NA,NA
"PDS2014","EX","PDS2014-0018",NA,530,"PDS-FAKEDRUG-111",0,NA,"mg/kg","SUSPENSION","QD","ORAL GAVAGE","ABCD1234",NA,NA,"methocell",NA,NA,NA,"2011-01-01T06:46:14",NA,22,NA,NA,NA,NA,NA,NA,NA
"PDS2014","EX","PDS2014-0018",NA,531,"PDS-FAKEDRUG-111",0,NA,"mg/kg","SUSPENSION","QD","ORAL GAVAGE","ABCD1234",NA,NA,"methocell",NA,NA,NA,"2011-01-02T08:17:37",NA,23,NA,NA,NA,NA,NA,NA,NA
"PDS2014","EX","PDS2014-0018",NA,532,"PDS-FAKEDRUG-111",0,NA,"mg/kg","SUSPENSION","QD","ORAL GAVAGE","ABCD1234",NA,NA,"methocell",NA,NA,NA,"2011-01-03T08:35:47",NA,24,NA,NA,NA,NA,NA,NA,NA
"PDS2014","EX","PDS2014-0018",NA,533,"PDS-FAKEDRUG-111",0,NA,"mg/kg","SUSPENSION","QD","ORAL GAVAGE","ABCD1234",NA,NA,"methocell",NA,NA,NA,"2011-01-04T08:29:17",NA,25,NA,NA,NA,NA,NA,NA,NA
"PDS2014","EX","PDS2014-0018",NA,534,"PDS-FAKEDRUG-111",0,NA,"mg/kg","SUSPENSION","QD","ORAL GAVAGE","ABCD1234",NA,NA,"methocell",NA,NA,NA,"2011-01-05T08:20:04",NA,26,NA,NA,NA,NA,NA,NA,NA
"PDS2014","EX","PDS2014-0018",NA,535,"PDS-FAKEDRUG-111",0,NA,"mg/kg","SUSPENSION","QD","ORAL GAVAGE","ABCD1234",NA,NA,"methocell",NA,NA,NA,"2011-01-06T08:55:50",NA,27,NA,NA,NA,NA,NA,NA,NA
"PDS2014","EX","PDS2014-0018",NA,536,"PDS-FAKEDRUG-111",0,NA,"mg/kg","SUSPENSION","QD","ORAL GAVAGE","ABCD1234",NA,NA,"methocell",NA,NA,NA,"2011-01-07T07:26:22",NA,28,NA,NA,NA,NA,NA,NA,NA
"PDS2014","EX","PDS2014-0018",NA,537,"PDS-FAKEDRUG-111",0,NA,"mg/kg","SUSPENSION","QD","ORAL GAVAGE","ABCD1234",NA,NA,"methocell",NA,NA,NA,"2011-01-08T07:34:17",NA,29,NA,NA,NA,NA,NA,NA,NA
"PDS2014","EX","PDS2014-0021",NA,538,"PDS-FAKEDRUG-111",20,NA,"mg/kg","SUSPENSION","QD","ORAL GAVAGE","ABCD1234",NA,NA,"methocell",NA,NA,NA,"2010-12-11T10:02:45",NA,1,NA,NA,NA,NA,NA,NA,NA
"PDS2014","EX","PDS2014-0021",NA,539,"PDS-FAKEDRUG-111",20,NA,"mg/kg","SUSPENSION","QD","ORAL GAVAGE","ABCD1234",NA,NA,"methocell",NA,NA,NA,"2010-12-12T11:18:18",NA,2,NA,NA,NA,NA,NA,NA,NA
"PDS2014","EX","PDS2014-0021",NA,540,"PDS-FAKEDRUG-111",20,NA,"mg/kg","SUSPENSION","QD","ORAL GAVAGE","ABCD1234",NA,NA,"methocell",NA,NA,NA,"2010-12-13T12:26:44",NA,3,NA,NA,NA,NA,NA,NA,NA
"PDS2014","EX","PDS2014-0021",NA,541,"PDS-FAKEDRUG-111",20,NA,"mg/kg","SUSPENSION","QD","ORAL GAVAGE","ABCD1234",NA,NA,"methocell",NA,NA,NA,"2010-12-14T10:42:00",NA,4,NA,NA,NA,NA,NA,NA,NA
"PDS2014","EX","PDS2014-0021",NA,542,"PDS-FAKEDRUG-111",20,NA,"mg/kg","SUSPENSION","QD","ORAL GAVAGE","ABCD1234",NA,NA,"methocell",NA,NA,NA,"2010-12-15T09:49:23",NA,5,NA,NA,NA,NA,NA,NA,NA
"PDS2014","EX","PDS2014-0021",NA,543,"PDS-FAKEDRUG-111",20,NA,"mg/kg","SUSPENSION","QD","ORAL GAVAGE","ABCD1234",NA,NA,"methocell",NA,NA,NA,"2010-12-16T09:06:44",NA,6,NA,NA,NA,NA,NA,NA,NA
"PDS2014","EX","PDS2014-0021",NA,544,"PDS-FAKEDRUG-111",20,NA,"mg/kg","SUSPENSION","QD","ORAL GAVAGE","ABCD1234",NA,NA,"methocell",NA,NA,NA,"2010-12-17T08:22:44",NA,7,NA,NA,NA,NA,NA,NA,NA
"PDS2014","EX","PDS2014-0021",NA,545,"PDS-FAKEDRUG-111",20,NA,"mg/kg","SUSPENSION","QD","ORAL GAVAGE","ABCD1234",NA,NA,"methocell",NA,NA,NA,"2010-12-18T08:32:49",NA,8,NA,NA,NA,NA,NA,NA,NA
"PDS2014","EX","PDS2014-0021",NA,546,"PDS-FAKEDRUG-111",20,NA,"mg/kg","SUSPENSION","QD","ORAL GAVAGE","ABCD1234",NA,NA,"methocell",NA,NA,NA,"2010-12-19T13:09:41",NA,9,NA,NA,NA,NA,NA,NA,NA
"PDS2014","EX","PDS2014-0021",NA,547,"PDS-FAKEDRUG-111",20,NA,"mg/kg","SUSPENSION","QD","ORAL GAVAGE","ABCD1234",NA,NA,"methocell",NA,NA,NA,"2010-12-20T11:17:19",NA,10,NA,NA,NA,NA,NA,NA,NA
"PDS2014","EX","PDS2014-0021",NA,548,"PDS-FAKEDRUG-111",20,NA,"mg/kg","SUSPENSION","QD","ORAL GAVAGE","ABCD1234",NA,NA,"methocell",NA,NA,NA,"2010-12-21T07:48:54",NA,11,NA,NA,NA,NA,NA,NA,NA
"PDS2014","EX","PDS2014-0021",NA,549,"PDS-FAKEDRUG-111",20,NA,"mg/kg","SUSPENSION","QD","ORAL GAVAGE","ABCD1234",NA,NA,"methocell",NA,NA,NA,"2010-12-22T08:23:31",NA,12,NA,NA,NA,NA,NA,NA,NA
"PDS2014","EX","PDS2014-0021",NA,550,"PDS-FAKEDRUG-111",20,NA,"mg/kg","SUSPENSION","QD","ORAL GAVAGE","ABCD1234",NA,NA,"methocell",NA,NA,NA,"2010-12-23T07:41:47",NA,13,NA,NA,NA,NA,NA,NA,NA
"PDS2014","EX","PDS2014-0021",NA,551,"PDS-FAKEDRUG-111",20,NA,"mg/kg","SUSPENSION","QD","ORAL GAVAGE","ABCD1234",NA,NA,"methocell",NA,NA,NA,"2010-12-24T08:12:20",NA,14,NA,NA,NA,NA,NA,NA,NA
"PDS2014","EX","PDS2014-0021",NA,552,"PDS-FAKEDRUG-111",20,NA,"mg/kg","SUSPENSION","QD","ORAL GAVAGE","ABCD1234",NA,NA,"methocell",NA,NA,NA,"2010-12-25T08:04:17",NA,15,NA,NA,NA,NA,NA,NA,NA
"PDS2014","EX","PDS2014-0021",NA,553,"PDS-FAKEDRUG-111",20,NA,"mg/kg","SUSPENSION","QD","ORAL GAVAGE","ABCD1234",NA,NA,"methocell",NA,NA,NA,"2010-12-26T07:27:00",NA,16,NA,NA,NA,NA,NA,NA,NA
"PDS2014","EX","PDS2014-0021",NA,554,"PDS-FAKEDRUG-111",20,NA,"mg/kg","SUSPENSION","QD","ORAL GAVAGE","ABCD1234",NA,NA,"methocell",NA,NA,NA,"2010-12-27T10:10:18",NA,17,NA,NA,NA,NA,NA,NA,NA
"PDS2014","EX","PDS2014-0021",NA,555,"PDS-FAKEDRUG-111",20,NA,"mg/kg","SUSPENSION","QD","ORAL GAVAGE","ABCD1234",NA,NA,"methocell",NA,NA,NA,"2010-12-28T08:11:05",NA,18,NA,NA,NA,NA,NA,NA,NA
"PDS2014","EX","PDS2014-0021",NA,556,"PDS-FAKEDRUG-111",20,NA,"mg/kg","SUSPENSION","QD","ORAL GAVAGE","ABCD1234",NA,NA,"methocell",NA,NA,NA,"2010-12-29T09:48:54",NA,19,NA,NA,NA,NA,NA,NA,NA
"PDS2014","EX","PDS2014-0021",NA,557,"PDS-FAKEDRUG-111",20,NA,"mg/kg","SUSPENSION","QD","ORAL GAVAGE","ABCD1234",NA,NA,"methocell",NA,NA,NA,"2010-12-30T09:07:20",NA,20,NA,NA,NA,NA,NA,NA,NA
"PDS2014","EX","PDS2014-0021",NA,558,"PDS-FAKEDRUG-111",20,NA,"mg/kg","SUSPENSION","QD","ORAL GAVAGE","ABCD1234",NA,NA,"methocell",NA,NA,NA,"2010-12-31T09:03:44",NA,21,NA,NA,NA,NA,NA,NA,NA
"PDS2014","EX","PDS2014-0021",NA,559,"PDS-FAKEDRUG-111",20,NA,"mg/kg","SUSPENSION","QD","ORAL GAVAGE","ABCD1234",NA,NA,"methocell",NA,NA,NA,"2011-01-01T07:00:02",NA,22,NA,NA,NA,NA,NA,NA,NA
"PDS2014","EX","PDS2014-0021",NA,560,"PDS-FAKEDRUG-111",20,NA,"mg/kg","SUSPENSION","QD","ORAL GAVAGE","ABCD1234",NA,NA,"methocell",NA,NA,NA,"2011-01-02T08:38:30",NA,23,NA,NA,NA,NA,NA,NA,NA
"PDS2014","EX","PDS2014-0021",NA,561,"PDS-FAKEDRUG-111",20,NA,"mg/kg","SUSPENSION","QD","ORAL GAVAGE","ABCD1234",NA,NA,"methocell",NA,NA,NA,"2011-01-03T08:47:02",NA,24,NA,NA,NA,NA,NA,NA,NA
"PDS2014","EX","PDS2014-0021",NA,562,"PDS-FAKEDRUG-111",20,NA,"mg/kg","SUSPENSION","QD","ORAL GAVAGE","ABCD1234",NA,NA,"methocell",NA,NA,NA,"2011-01-04T08:43:02",NA,25,NA,NA,NA,NA,NA,NA,NA
"PDS2014","EX","PDS2014-0021",NA,563,"PDS-FAKEDRUG-111",20,NA,"mg/kg","SUSPENSION","QD","ORAL GAVAGE","ABCD1234",NA,NA,"methocell",NA,NA,NA,"2011-01-05T09:22:37",NA,26,NA,NA,NA,NA,NA,NA,NA
"PDS2014","EX","PDS2014-0021",NA,564,"PDS-FAKEDRUG-111",20,NA,"mg/kg","SUSPENSION","QD","ORAL GAVAGE","ABCD1234",NA,NA,"methocell",NA,NA,NA,"2011-01-06T09:14:37",NA,27,NA,NA,NA,NA,NA,NA,NA
"PDS2014","EX","PDS2014-0021",NA,565,"PDS-FAKEDRUG-111",20,NA,"mg/kg","SUSPENSION","QD","ORAL GAVAGE","ABCD1234",NA,NA,"methocell",NA,NA,NA,"2011-01-07T08:13:17",NA,28,NA,NA,NA,NA,NA,NA,NA
"PDS2014","EX","PDS2014-0021",NA,566,"PDS-FAKEDRUG-111",20,NA,"mg/kg","SUSPENSION","QD","ORAL GAVAGE","ABCD1234",NA,NA,"methocell",NA,NA,NA,"2011-01-08T08:28:22",NA,29,NA,NA,NA,NA,NA,NA,NA
"PDS2014","EX","PDS2014-0021",NA,567,"PDS-FAKEDRUG-111",20,NA,"mg/kg","SUSPENSION","QD","ORAL GAVAGE","ABCD1234",NA,NA,"methocell",NA,NA,NA,"2011-01-09T08:07:43",NA,30,NA,NA,NA,NA,NA,NA,NA
"PDS2014","EX","PDS2014-0022",NA,568,"PDS-FAKEDRUG-111",20,NA,"mg/kg","SUSPENSION","QD","ORAL GAVAGE","ABCD1234",NA,NA,"methocell",NA,NA,NA,"2010-12-11T10:03:15",NA,1,NA,NA,NA,NA,NA,NA,NA
"PDS2014","EX","PDS2014-0022",NA,569,"PDS-FAKEDRUG-111",20,NA,"mg/kg","SUSPENSION","QD","ORAL GAVAGE","ABCD1234",NA,NA,"methocell",NA,NA,NA,"2010-12-12T11:19:08",NA,2,NA,NA,NA,NA,NA,NA,NA
"PDS2014","EX","PDS2014-0022",NA,570,"PDS-FAKEDRUG-111",20,NA,"mg/kg","SUSPENSION","QD","ORAL GAVAGE","ABCD1234",NA,NA,"methocell",NA,NA,NA,"2010-12-13T12:26:27",NA,3,NA,NA,NA,NA,NA,NA,NA
"PDS2014","EX","PDS2014-0022",NA,571,"PDS-FAKEDRUG-111",20,NA,"mg/kg","SUSPENSION","QD","ORAL GAVAGE","ABCD1234",NA,NA,"methocell",NA,NA,NA,"2010-12-14T10:41:09",NA,4,NA,NA,NA,NA,NA,NA,NA
"PDS2014","EX","PDS2014-0022",NA,572,"PDS-FAKEDRUG-111",20,NA,"mg/kg","SUSPENSION","QD","ORAL GAVAGE","ABCD1234",NA,NA,"methocell",NA,NA,NA,"2010-12-15T09:48:47",NA,5,NA,NA,NA,NA,NA,NA,NA
"PDS2014","EX","PDS2014-0022",NA,573,"PDS-FAKEDRUG-111",20,NA,"mg/kg","SUSPENSION","QD","ORAL GAVAGE","ABCD1234",NA,NA,"methocell",NA,NA,NA,"2010-12-16T09:06:14",NA,6,NA,NA,NA,NA,NA,NA,NA
"PDS2014","EX","PDS2014-0022",NA,574,"PDS-FAKEDRUG-111",20,NA,"mg/kg","SUSPENSION","QD","ORAL GAVAGE","ABCD1234",NA,NA,"methocell",NA,NA,NA,"2010-12-17T08:21:57",NA,7,NA,NA,NA,NA,NA,NA,NA
"PDS2014","EX","PDS2014-0022",NA,575,"PDS-FAKEDRUG-111",20,NA,"mg/kg","SUSPENSION","QD","ORAL GAVAGE","ABCD1234",NA,NA,"methocell",NA,NA,NA,"2010-12-18T08:33:25",NA,8,NA,NA,NA,NA,NA,NA,NA
"PDS2014","EX","PDS2014-0022",NA,576,"PDS-FAKEDRUG-111",20,NA,"mg/kg","SUSPENSION","QD","ORAL GAVAGE","ABCD1234",NA,NA,"methocell",NA,NA,NA,"2010-12-19T13:10:17",NA,9,NA,NA,NA,NA,NA,NA,NA
"PDS2014","EX","PDS2014-0022",NA,577,"PDS-FAKEDRUG-111",20,NA,"mg/kg","SUSPENSION","QD","ORAL GAVAGE","ABCD1234",NA,NA,"methocell",NA,NA,NA,"2010-12-20T11:16:39",NA,10,NA,NA,NA,NA,NA,NA,NA
"PDS2014","EX","PDS2014-0022",NA,578,"PDS-FAKEDRUG-111",20,NA,"mg/kg","SUSPENSION","QD","ORAL GAVAGE","ABCD1234",NA,NA,"methocell",NA,NA,NA,"2010-12-21T07:47:18",NA,11,NA,NA,NA,NA,NA,NA,NA
"PDS2014","EX","PDS2014-0022",NA,579,"PDS-FAKEDRUG-111",20,NA,"mg/kg","SUSPENSION","QD","ORAL GAVAGE","ABCD1234",NA,NA,"methocell",NA,NA,NA,"2010-12-22T08:23:00",NA,12,NA,NA,NA,NA,NA,NA,NA
"PDS2014","EX","PDS2014-0022",NA,580,"PDS-FAKEDRUG-111",20,NA,"mg/kg","SUSPENSION","QD","ORAL GAVAGE","ABCD1234",NA,NA,"methocell",NA,NA,NA,"2010-12-23T07:41:22",NA,13,NA,NA,NA,NA,NA,NA,NA
"PDS2014","EX","PDS2014-0022",NA,581,"PDS-FAKEDRUG-111",20,NA,"mg/kg","SUSPENSION","QD","ORAL GAVAGE","ABCD1234",NA,NA,"methocell",NA,NA,NA,"2010-12-24T08:11:35",NA,14,NA,NA,NA,NA,NA,NA,NA
"PDS2014","EX","PDS2014-0022",NA,582,"PDS-FAKEDRUG-111",20,NA,"mg/kg","SUSPENSION","QD","ORAL GAVAGE","ABCD1234",NA,NA,"methocell",NA,NA,NA,"2010-12-25T08:03:36",NA,15,NA,NA,NA,NA,NA,NA,NA
"PDS2014","EX","PDS2014-0022",NA,583,"PDS-FAKEDRUG-111",20,NA,"mg/kg","SUSPENSION","QD","ORAL GAVAGE","ABCD1234",NA,NA,"methocell",NA,NA,NA,"2010-12-26T07:27:25",NA,16,NA,NA,NA,NA,NA,NA,NA
"PDS2014","EX","PDS2014-0022",NA,584,"PDS-FAKEDRUG-111",20,NA,"mg/kg","SUSPENSION","QD","ORAL GAVAGE","ABCD1234",NA,NA,"methocell",NA,NA,NA,"2010-12-27T10:10:57",NA,17,NA,NA,NA,NA,NA,NA,NA
"PDS2014","EX","PDS2014-0022",NA,585,"PDS-FAKEDRUG-111",20,NA,"mg/kg","SUSPENSION","QD","ORAL GAVAGE","ABCD1234",NA,NA,"methocell",NA,NA,NA,"2010-12-28T08:10:46",NA,18,NA,NA,NA,NA,NA,NA,NA
"PDS2014","EX","PDS2014-0022",NA,586,"PDS-FAKEDRUG-111",20,NA,"mg/kg","SUSPENSION","QD","ORAL GAVAGE","ABCD1234",NA,NA,"methocell",NA,NA,NA,"2010-12-29T09:49:38",NA,19,NA,NA,NA,NA,NA,NA,NA
"PDS2014","EX","PDS2014-0022",NA,587,"PDS-FAKEDRUG-111",20,NA,"mg/kg","SUSPENSION","QD","ORAL GAVAGE","ABCD1234",NA,NA,"methocell",NA,NA,NA,"2010-12-30T09:05:58",NA,20,NA,NA,NA,NA,NA,NA,NA
"PDS2014","EX","PDS2014-0022",NA,588,"PDS-FAKEDRUG-111",20,NA,"mg/kg","SUSPENSION","QD","ORAL GAVAGE","ABCD1234",NA,NA,"methocell",NA,NA,NA,"2010-12-31T09:04:20",NA,21,NA,NA,NA,NA,NA,NA,NA
"PDS2014","EX","PDS2014-0022",NA,589,"PDS-FAKEDRUG-111",20,NA,"mg/kg","SUSPENSION","QD","ORAL GAVAGE","ABCD1234",NA,NA,"methocell",NA,NA,NA,"2011-01-01T07:01:48",NA,22,NA,NA,NA,NA,NA,NA,NA
"PDS2014","EX","PDS2014-0022",NA,590,"PDS-FAKEDRUG-111",20,NA,"mg/kg","SUSPENSION","QD","ORAL GAVAGE","ABCD1234",NA,NA,"methocell",NA,NA,NA,"2011-01-02T08:38:08",NA,23,NA,NA,NA,NA,NA,NA,NA
"PDS2014","EX","PDS2014-0022",NA,591,"PDS-FAKEDRUG-111",20,NA,"mg/kg","SUSPENSION","QD","ORAL GAVAGE","ABCD1234",NA,NA,"methocell",NA,NA,NA,"2011-01-03T08:46:29",NA,24,NA,NA,NA,NA,NA,NA,NA
"PDS2014","EX","PDS2014-0022",NA,592,"PDS-FAKEDRUG-111",20,NA,"mg/kg","SUSPENSION","QD","ORAL GAVAGE","ABCD1234",NA,NA,"methocell",NA,NA,NA,"2011-01-04T08:42:31",NA,25,NA,NA,NA,NA,NA,NA,NA
"PDS2014","EX","PDS2014-0022",NA,593,"PDS-FAKEDRUG-111",20,NA,"mg/kg","SUSPENSION","QD","ORAL GAVAGE","ABCD1234",NA,NA,"methocell",NA,NA,NA,"2011-01-05T09:21:29",NA,26,NA,NA,NA,NA,NA,NA,NA
"PDS2014","EX","PDS2014-0022",NA,594,"PDS-FAKEDRUG-111",20,NA,"mg/kg","SUSPENSION","QD","ORAL GAVAGE","ABCD1234",NA,NA,"methocell",NA,NA,NA,"2011-01-06T09:14:04",NA,27,NA,NA,NA,NA,NA,NA,NA
"PDS2014","EX","PDS2014-0022",NA,595,"PDS-FAKEDRUG-111",20,NA,"mg/kg","SUSPENSION","QD","ORAL GAVAGE","ABCD1234",NA,NA,"methocell",NA,NA,NA,"2011-01-07T08:13:39",NA,28,NA,NA,NA,NA,NA,NA,NA
"PDS2014","EX","PDS2014-0022",NA,596,"PDS-FAKEDRUG-111",20,NA,"mg/kg","SUSPENSION","QD","ORAL GAVAGE","ABCD1234",NA,NA,"methocell",NA,NA,NA,"2011-01-08T08:27:38",NA,29,NA,NA,NA,NA,NA,NA,NA
"PDS2014","EX","PDS2014-0022",NA,597,"PDS-FAKEDRUG-111",20,NA,"mg/kg","SUSPENSION","QD","ORAL GAVAGE","ABCD1234",NA,NA,"methocell",NA,NA,NA,"2011-01-09T08:08:48",NA,30,NA,NA,NA,NA,NA,NA,NA
"PDS2014","EX","PDS2014-0023",NA,598,"PDS-FAKEDRUG-111",20,NA,"mg/kg","SUSPENSION","QD","ORAL GAVAGE","ABCD1234",NA,NA,"methocell",NA,NA,NA,"2010-12-11T10:03:39",NA,1,NA,NA,NA,NA,NA,NA,NA
"PDS2014","EX","PDS2014-0023",NA,599,"PDS-FAKEDRUG-111",20,NA,"mg/kg","SUSPENSION","QD","ORAL GAVAGE","ABCD1234",NA,NA,"methocell",NA,NA,NA,"2010-12-12T11:17:54",NA,2,NA,NA,NA,NA,NA,NA,NA
"PDS2014","EX","PDS2014-0023",NA,600,"PDS-FAKEDRUG-111",20,NA,"mg/kg","SUSPENSION","QD","ORAL GAVAGE","ABCD1234",NA,NA,"methocell",NA,NA,NA,"2010-12-13T12:26:10",NA,3,NA,NA,NA,NA,NA,NA,NA
"PDS2014","EX","PDS2014-0023",NA,601,"PDS-FAKEDRUG-111",20,NA,"mg/kg","SUSPENSION","QD","ORAL GAVAGE","ABCD1234",NA,NA,"methocell",NA,NA,NA,"2010-12-14T10:42:48",NA,4,NA,NA,NA,NA,NA,NA,NA
"PDS2014","EX","PDS2014-0023",NA,602,"PDS-FAKEDRUG-111",20,NA,"mg/kg","SUSPENSION","QD","ORAL GAVAGE","ABCD1234",NA,NA,"methocell",NA,NA,NA,"2010-12-15T09:48:24",NA,5,NA,NA,NA,NA,NA,NA,NA
"PDS2014","EX","PDS2014-0023",NA,603,"PDS-FAKEDRUG-111",20,NA,"mg/kg","SUSPENSION","QD","ORAL GAVAGE","ABCD1234",NA,NA,"methocell",NA,NA,NA,"2010-12-16T09:07:00",NA,6,NA,NA,NA,NA,NA,NA,NA
"PDS2014","EX","PDS2014-0023",NA,604,"PDS-FAKEDRUG-111",20,NA,"mg/kg","SUSPENSION","QD","ORAL GAVAGE","ABCD1234",NA,NA,"methocell",NA,NA,NA,"2010-12-17T08:22:18",NA,7,NA,NA,NA,NA,NA,NA,NA
"PDS2014","EX","PDS2014-0023",NA,605,"PDS-FAKEDRUG-111",20,NA,"mg/kg","SUSPENSION","QD","ORAL GAVAGE","ABCD1234",NA,NA,"methocell",NA,NA,NA,"2010-12-18T08:32:15",NA,8,NA,NA,NA,NA,NA,NA,NA
"PDS2014","EX","PDS2014-0023",NA,606,"PDS-FAKEDRUG-111",20,NA,"mg/kg","SUSPENSION","QD","ORAL GAVAGE","ABCD1234",NA,NA,"methocell",NA,NA,NA,"2010-12-19T13:09:20",NA,9,NA,NA,NA,NA,NA,NA,NA
"PDS2014","EX","PDS2014-0023",NA,607,"PDS-FAKEDRUG-111",20,NA,"mg/kg","SUSPENSION","QD","ORAL GAVAGE","ABCD1234",NA,NA,"methocell",NA,NA,NA,"2010-12-20T11:16:01",NA,10,NA,NA,NA,NA,NA,NA,NA
"PDS2014","EX","PDS2014-0023",NA,608,"PDS-FAKEDRUG-111",20,NA,"mg/kg","SUSPENSION","QD","ORAL GAVAGE","ABCD1234",NA,NA,"methocell",NA,NA,NA,"2010-12-21T07:48:29",NA,11,NA,NA,NA,NA,NA,NA,NA
"PDS2014","EX","PDS2014-0023",NA,609,"PDS-FAKEDRUG-111",20,NA,"mg/kg","SUSPENSION","QD","ORAL GAVAGE","ABCD1234",NA,NA,"methocell",NA,NA,NA,"2010-12-22T08:22:26",NA,12,NA,NA,NA,NA,NA,NA,NA
"PDS2014","EX","PDS2014-0023",NA,610,"PDS-FAKEDRUG-111",20,NA,"mg/kg","SUSPENSION","QD","ORAL GAVAGE","ABCD1234",NA,NA,"methocell",NA,NA,NA,"2010-12-23T07:41:05",NA,13,NA,NA,NA,NA,NA,NA,NA
"PDS2014","EX","PDS2014-0023",NA,611,"PDS-FAKEDRUG-111",20,NA,"mg/kg","SUSPENSION","QD","ORAL GAVAGE","ABCD1234",NA,NA,"methocell",NA,NA,NA,"2010-12-24T08:10:59",NA,14,NA,NA,NA,NA,NA,NA,NA
"PDS2014","EX","PDS2014-0023",NA,612,"PDS-FAKEDRUG-111",20,NA,"mg/kg","SUSPENSION","QD","ORAL GAVAGE","ABCD1234",NA,NA,"methocell",NA,NA,NA,"2010-12-25T08:01:28",NA,15,NA,NA,NA,NA,NA,NA,NA
"PDS2014","EX","PDS2014-0023",NA,613,"PDS-FAKEDRUG-111",20,NA,"mg/kg","SUSPENSION","QD","ORAL GAVAGE","ABCD1234",NA,NA,"methocell",NA,NA,NA,"2010-12-26T07:28:23",NA,16,NA,NA,NA,NA,NA,NA,NA
"PDS2014","EX","PDS2014-0023",NA,614,"PDS-FAKEDRUG-111",20,NA,"mg/kg","SUSPENSION","QD","ORAL GAVAGE","ABCD1234",NA,NA,"methocell",NA,NA,NA,"2010-12-27T10:10:38",NA,17,NA,NA,NA,NA,NA,NA,NA
"PDS2014","EX","PDS2014-0023",NA,615,"PDS-FAKEDRUG-111",20,NA,"mg/kg","SUSPENSION","QD","ORAL GAVAGE","ABCD1234",NA,NA,"methocell",NA,NA,NA,"2010-12-28T08:10:29",NA,18,NA,NA,NA,NA,NA,NA,NA
"PDS2014","EX","PDS2014-0023",NA,616,"PDS-FAKEDRUG-111",20,NA,"mg/kg","SUSPENSION","QD","ORAL GAVAGE","ABCD1234",NA,NA,"methocell",NA,NA,NA,"2010-12-29T09:49:17",NA,19,NA,NA,NA,NA,NA,NA,NA
"PDS2014","EX","PDS2014-0023",NA,617,"PDS-FAKEDRUG-111",20,NA,"mg/kg","SUSPENSION","QD","ORAL GAVAGE","ABCD1234",NA,NA,"methocell",NA,NA,NA,"2010-12-30T09:06:54",NA,20,NA,NA,NA,NA,NA,NA,NA
"PDS2014","EX","PDS2014-0023",NA,618,"PDS-FAKEDRUG-111",20,NA,"mg/kg","SUSPENSION","QD","ORAL GAVAGE","ABCD1234",NA,NA,"methocell",NA,NA,NA,"2010-12-31T09:04:02",NA,21,NA,NA,NA,NA,NA,NA,NA
"PDS2014","EX","PDS2014-0023",NA,619,"PDS-FAKEDRUG-111",20,NA,"mg/kg","SUSPENSION","QD","ORAL GAVAGE","ABCD1234",NA,NA,"methocell",NA,NA,NA,"2011-01-01T07:01:26",NA,22,NA,NA,NA,NA,NA,NA,NA
"PDS2014","EX","PDS2014-0023",NA,620,"PDS-FAKEDRUG-111",20,NA,"mg/kg","SUSPENSION","QD","ORAL GAVAGE","ABCD1234",NA,NA,"methocell",NA,NA,NA,"2011-01-02T08:37:09",NA,23,NA,NA,NA,NA,NA,NA,NA
"PDS2014","EX","PDS2014-0023",NA,621,"PDS-FAKEDRUG-111",20,NA,"mg/kg","SUSPENSION","QD","ORAL GAVAGE","ABCD1234",NA,NA,"methocell",NA,NA,NA,"2011-01-03T08:46:43",NA,24,NA,NA,NA,NA,NA,NA,NA
"PDS2014","EX","PDS2014-0023",NA,622,"PDS-FAKEDRUG-111",20,NA,"mg/kg","SUSPENSION","QD","ORAL GAVAGE","ABCD1234",NA,NA,"methocell",NA,NA,NA,"2011-01-04T08:41:39",NA,25,NA,NA,NA,NA,NA,NA,NA
"PDS2014","EX","PDS2014-0023",NA,623,"PDS-FAKEDRUG-111",20,NA,"mg/kg","SUSPENSION","QD","ORAL GAVAGE","ABCD1234",NA,NA,"methocell",NA,NA,NA,"2011-01-05T09:21:52",NA,26,NA,NA,NA,NA,NA,NA,NA
"PDS2014","EX","PDS2014-0023",NA,624,"PDS-FAKEDRUG-111",20,NA,"mg/kg","SUSPENSION","QD","ORAL GAVAGE","ABCD1234",NA,NA,"methocell",NA,NA,NA,"2011-01-06T09:13:47",NA,27,NA,NA,NA,NA,NA,NA,NA
"PDS2014","EX","PDS2014-0023",NA,625,"PDS-FAKEDRUG-111",20,NA,"mg/kg","SUSPENSION","QD","ORAL GAVAGE","ABCD1234",NA,NA,"methocell",NA,NA,NA,"2011-01-07T08:14:01",NA,28,NA,NA,NA,NA,NA,NA,NA
"PDS2014","EX","PDS2014-0023",NA,626,"PDS-FAKEDRUG-111",20,NA,"mg/kg","SUSPENSION","QD","ORAL GAVAGE","ABCD1234",NA,NA,"methocell",NA,NA,NA,"2011-01-08T08:27:18",NA,29,NA,NA,NA,NA,NA,NA,NA
"PDS2014","EX","PDS2014-0023",NA,627,"PDS-FAKEDRUG-111",20,NA,"mg/kg","SUSPENSION","QD","ORAL GAVAGE","ABCD1234",NA,NA,"methocell",NA,NA,NA,"2011-01-09T08:11:35",NA,30,NA,NA,NA,NA,NA,NA,NA
"PDS2014","EX","PDS2014-0024",NA,628,"PDS-FAKEDRUG-111",20,NA,"mg/kg","SUSPENSION","QD","ORAL GAVAGE","ABCD1234",NA,NA,"methocell",NA,NA,NA,"2010-12-11T10:01:27",NA,1,NA,NA,NA,NA,NA,NA,NA
"PDS2014","EX","PDS2014-0024",NA,629,"PDS-FAKEDRUG-111",20,NA,"mg/kg","SUSPENSION","QD","ORAL GAVAGE","ABCD1234",NA,NA,"methocell",NA,NA,NA,"2010-12-12T11:19:33",NA,2,NA,NA,NA,NA,NA,NA,NA
"PDS2014","EX","PDS2014-0024",NA,630,"PDS-FAKEDRUG-111",20,NA,"mg/kg","SUSPENSION","QD","ORAL GAVAGE","ABCD1234",NA,NA,"methocell",NA,NA,NA,"2010-12-13T12:25:18",NA,3,NA,NA,NA,NA,NA,NA,NA
"PDS2014","EX","PDS2014-0024",NA,631,"PDS-FAKEDRUG-111",20,NA,"mg/kg","SUSPENSION","QD","ORAL GAVAGE","ABCD1234",NA,NA,"methocell",NA,NA,NA,"2010-12-14T10:41:40",NA,4,NA,NA,NA,NA,NA,NA,NA
"PDS2014","EX","PDS2014-0024",NA,632,"PDS-FAKEDRUG-111",20,NA,"mg/kg","SUSPENSION","QD","ORAL GAVAGE","ABCD1234",NA,NA,"methocell",NA,NA,NA,"2010-12-15T09:49:03",NA,5,NA,NA,NA,NA,NA,NA,NA
"PDS2014","EX","PDS2014-0024",NA,633,"PDS-FAKEDRUG-111",20,NA,"mg/kg","SUSPENSION","QD","ORAL GAVAGE","ABCD1234",NA,NA,"methocell",NA,NA,NA,"2010-12-16T09:05:59",NA,6,NA,NA,NA,NA,NA,NA,NA
"PDS2014","EX","PDS2014-0024",NA,634,"PDS-FAKEDRUG-111",20,NA,"mg/kg","SUSPENSION","QD","ORAL GAVAGE","ABCD1234",NA,NA,"methocell",NA,NA,NA,"2010-12-17T08:21:15",NA,7,NA,NA,NA,NA,NA,NA,NA
"PDS2014","EX","PDS2014-0024",NA,635,"PDS-FAKEDRUG-111",20,NA,"mg/kg","SUSPENSION","QD","ORAL GAVAGE","ABCD1234",NA,NA,"methocell",NA,NA,NA,"2010-12-18T08:33:51",NA,8,NA,NA,NA,NA,NA,NA,NA
"PDS2014","EX","PDS2014-0024",NA,636,"PDS-FAKEDRUG-111",20,NA,"mg/kg","SUSPENSION","QD","ORAL GAVAGE","ABCD1234",NA,NA,"methocell",NA,NA,NA,"2010-12-19T13:09:02",NA,9,NA,NA,NA,NA,NA,NA,NA
"PDS2014","EX","PDS2014-0024",NA,637,"PDS-FAKEDRUG-111",20,NA,"mg/kg","SUSPENSION","QD","ORAL GAVAGE","ABCD1234",NA,NA,"methocell",NA,NA,NA,"2010-12-20T11:17:00",NA,10,NA,NA,NA,NA,NA,NA,NA
"PDS2014","EX","PDS2014-0024",NA,638,"PDS-FAKEDRUG-111",20,NA,"mg/kg","SUSPENSION","QD","ORAL GAVAGE","ABCD1234",NA,NA,"methocell",NA,NA,NA,"2010-12-21T07:48:02",NA,11,NA,NA,NA,NA,NA,NA,NA
"PDS2014","EX","PDS2014-0024",NA,639,"PDS-FAKEDRUG-111",20,NA,"mg/kg","SUSPENSION","QD","ORAL GAVAGE","ABCD1234",NA,NA,"methocell",NA,NA,NA,"2010-12-22T08:23:16",NA,12,NA,NA,NA,NA,NA,NA,NA
"PDS2014","EX","PDS2014-0024",NA,640,"PDS-FAKEDRUG-111",20,NA,"mg/kg","SUSPENSION","QD","ORAL GAVAGE","ABCD1234",NA,NA,"methocell",NA,NA,NA,"2010-12-23T07:40:42",NA,13,NA,NA,NA,NA,NA,NA,NA
"PDS2014","EX","PDS2014-0024",NA,641,"PDS-FAKEDRUG-111",20,NA,"mg/kg","SUSPENSION","QD","ORAL GAVAGE","ABCD1234",NA,NA,"methocell",NA,NA,NA,"2010-12-24T08:12:00",NA,14,NA,NA,NA,NA,NA,NA,NA
"PDS2014","EX","PDS2014-0024",NA,642,"PDS-FAKEDRUG-111",20,NA,"mg/kg","SUSPENSION","QD","ORAL GAVAGE","ABCD1234",NA,NA,"methocell",NA,NA,NA,"2010-12-25T08:04:36",NA,15,NA,NA,NA,NA,NA,NA,NA
"PDS2014","EX","PDS2014-0024",NA,643,"PDS-FAKEDRUG-111",20,NA,"mg/kg","SUSPENSION","QD","ORAL GAVAGE","ABCD1234",NA,NA,"methocell",NA,NA,NA,"2010-12-26T07:28:47",NA,16,NA,NA,NA,NA,NA,NA,NA
"PDS2014","EX","PDS2014-0024",NA,644,"PDS-FAKEDRUG-111",20,NA,"mg/kg","SUSPENSION","QD","ORAL GAVAGE","ABCD1234",NA,NA,"methocell",NA,NA,NA,"2010-12-27T10:11:13",NA,17,NA,NA,NA,NA,NA,NA,NA
"PDS2014","EX","PDS2014-0024",NA,645,"PDS-FAKEDRUG-111",20,NA,"mg/kg","SUSPENSION","QD","ORAL GAVAGE","ABCD1234",NA,NA,"methocell",NA,NA,NA,"2010-12-28T08:11:22",NA,18,NA,NA,NA,NA,NA,NA,NA
"PDS2014","EX","PDS2014-0024",NA,646,"PDS-FAKEDRUG-111",20,NA,"mg/kg","SUSPENSION","QD","ORAL GAVAGE","ABCD1234",NA,NA,"methocell",NA,NA,NA,"2010-12-29T09:50:03",NA,19,NA,NA,NA,NA,NA,NA,NA
"PDS2014","EX","PDS2014-0024",NA,647,"PDS-FAKEDRUG-111",20,NA,"mg/kg","SUSPENSION","QD","ORAL GAVAGE","ABCD1234",NA,NA,"methocell",NA,NA,NA,"2010-12-30T09:07:41",NA,20,NA,NA,NA,NA,NA,NA,NA
"PDS2014","EX","PDS2014-0024",NA,648,"PDS-FAKEDRUG-111",20,NA,"mg/kg","SUSPENSION","QD","ORAL GAVAGE","ABCD1234",NA,NA,"methocell",NA,NA,NA,"2010-12-31T09:04:37",NA,21,NA,NA,NA,NA,NA,NA,NA
"PDS2014","EX","PDS2014-0024",NA,649,"PDS-FAKEDRUG-111",20,NA,"mg/kg","SUSPENSION","QD","ORAL GAVAGE","ABCD1234",NA,NA,"methocell",NA,NA,NA,"2011-01-01T07:02:09",NA,22,NA,NA,NA,NA,NA,NA,NA
"PDS2014","EX","PDS2014-0024",NA,650,"PDS-FAKEDRUG-111",20,NA,"mg/kg","SUSPENSION","QD","ORAL GAVAGE","ABCD1234",NA,NA,"methocell",NA,NA,NA,"2011-01-02T08:37:49",NA,23,NA,NA,NA,NA,NA,NA,NA
"PDS2014","EX","PDS2014-0024",NA,651,"PDS-FAKEDRUG-111",20,NA,"mg/kg","SUSPENSION","QD","ORAL GAVAGE","ABCD1234",NA,NA,"methocell",NA,NA,NA,"2011-01-03T08:46:15",NA,24,NA,NA,NA,NA,NA,NA,NA
"PDS2014","EX","PDS2014-0024",NA,652,"PDS-FAKEDRUG-111",20,NA,"mg/kg","SUSPENSION","QD","ORAL GAVAGE","ABCD1234",NA,NA,"methocell",NA,NA,NA,"2011-01-04T08:43:27",NA,25,NA,NA,NA,NA,NA,NA,NA
"PDS2014","EX","PDS2014-0024",NA,653,"PDS-FAKEDRUG-111",20,NA,"mg/kg","SUSPENSION","QD","ORAL GAVAGE","ABCD1234",NA,NA,"methocell",NA,NA,NA,"2011-01-05T09:22:17",NA,26,NA,NA,NA,NA,NA,NA,NA
"PDS2014","EX","PDS2014-0024",NA,654,"PDS-FAKEDRUG-111",20,NA,"mg/kg","SUSPENSION","QD","ORAL GAVAGE","ABCD1234",NA,NA,"methocell",NA,NA,NA,"2011-01-06T09:13:20",NA,27,NA,NA,NA,NA,NA,NA,NA
"PDS2014","EX","PDS2014-0024",NA,655,"PDS-FAKEDRUG-111",20,NA,"mg/kg","SUSPENSION","QD","ORAL GAVAGE","ABCD1234",NA,NA,"methocell",NA,NA,NA,"2011-01-07T08:14:25",NA,28,NA,NA,NA,NA,NA,NA,NA
"PDS2014","EX","PDS2014-0024",NA,656,"PDS-FAKEDRUG-111",20,NA,"mg/kg","SUSPENSION","QD","ORAL GAVAGE","ABCD1234",NA,NA,"methocell",NA,NA,NA,"2011-01-08T08:26:13",NA,29,NA,NA,NA,NA,NA,NA,NA
"PDS2014","EX","PDS2014-0024",NA,657,"PDS-FAKEDRUG-111",20,NA,"mg/kg","SUSPENSION","QD","ORAL GAVAGE","ABCD1234",NA,NA,"methocell",NA,NA,NA,"2011-01-09T08:12:33",NA,30,NA,NA,NA,NA,NA,NA,NA
"PDS2014","EX","PDS2014-0025",NA,658,"PDS-FAKEDRUG-111",20,NA,"mg/kg","SUSPENSION","QD","ORAL GAVAGE","ABCD1234",NA,NA,"methocell",NA,NA,NA,"2010-12-11T10:04:10",NA,1,NA,NA,NA,NA,NA,NA,NA
"PDS2014","EX","PDS2014-0025",NA,659,"PDS-FAKEDRUG-111",20,NA,"mg/kg","SUSPENSION","QD","ORAL GAVAGE","ABCD1234",NA,NA,"methocell",NA,NA,NA,"2010-12-12T11:18:47",NA,2,NA,NA,NA,NA,NA,NA,NA
"PDS2014","EX","PDS2014-0025",NA,660,"PDS-FAKEDRUG-111",20,NA,"mg/kg","SUSPENSION","QD","ORAL GAVAGE","ABCD1234",NA,NA,"methocell",NA,NA,NA,"2010-12-13T12:24:47",NA,3,NA,NA,NA,NA,NA,NA,NA
"PDS2014","EX","PDS2014-0025",NA,661,"PDS-FAKEDRUG-111",20,NA,"mg/kg","SUSPENSION","QD","ORAL GAVAGE","ABCD1234",NA,NA,"methocell",NA,NA,NA,"2010-12-14T10:42:27",NA,4,NA,NA,NA,NA,NA,NA,NA
"PDS2014","EX","PDS2014-0025",NA,662,"PDS-FAKEDRUG-111",20,NA,"mg/kg","SUSPENSION","QD","ORAL GAVAGE","ABCD1234",NA,NA,"methocell",NA,NA,NA,"2010-12-15T09:48:10",NA,5,NA,NA,NA,NA,NA,NA,NA
"PDS2014","EX","PDS2014-0025",NA,663,"PDS-FAKEDRUG-111",20,NA,"mg/kg","SUSPENSION","QD","ORAL GAVAGE","ABCD1234",NA,NA,"methocell",NA,NA,NA,"2010-12-16T09:06:30",NA,6,NA,NA,NA,NA,NA,NA,NA
"PDS2014","EX","PDS2014-0025",NA,664,"PDS-FAKEDRUG-111",20,NA,"mg/kg","SUSPENSION","QD","ORAL GAVAGE","ABCD1234",NA,NA,"methocell",NA,NA,NA,"2010-12-17T08:21:34",NA,7,NA,NA,NA,NA,NA,NA,NA
"PDS2014","EX","PDS2014-0025",NA,665,"PDS-FAKEDRUG-111",20,NA,"mg/kg","SUSPENSION","QD","ORAL GAVAGE","ABCD1234",NA,NA,"methocell",NA,NA,NA,"2010-12-18T08:31:24",NA,8,NA,NA,NA,NA,NA,NA,NA
"PDS2014","EX","PDS2014-0025",NA,666,"PDS-FAKEDRUG-111",20,NA,"mg/kg","SUSPENSION","QD","ORAL GAVAGE","ABCD1234",NA,NA,"methocell",NA,NA,NA,"2010-12-19T13:10:02",NA,9,NA,NA,NA,NA,NA,NA,NA
"PDS2014","EX","PDS2014-0025",NA,667,"PDS-FAKEDRUG-111",20,NA,"mg/kg","SUSPENSION","QD","ORAL GAVAGE","ABCD1234",NA,NA,"methocell",NA,NA,NA,"2010-12-20T11:16:21",NA,10,NA,NA,NA,NA,NA,NA,NA
"PDS2014","EX","PDS2014-0025",NA,668,"PDS-FAKEDRUG-111",20,NA,"mg/kg","SUSPENSION","QD","ORAL GAVAGE","ABCD1234",NA,NA,"methocell",NA,NA,NA,"2010-12-21T07:47:40",NA,11,NA,NA,NA,NA,NA,NA,NA
"PDS2014","EX","PDS2014-0025",NA,669,"PDS-FAKEDRUG-111",20,NA,"mg/kg","SUSPENSION","QD","ORAL GAVAGE","ABCD1234",NA,NA,"methocell",NA,NA,NA,"2010-12-22T08:22:43",NA,12,NA,NA,NA,NA,NA,NA,NA
"PDS2014","EX","PDS2014-0025",NA,670,"PDS-FAKEDRUG-111",20,NA,"mg/kg","SUSPENSION","QD","ORAL GAVAGE","ABCD1234",NA,NA,"methocell",NA,NA,NA,"2010-12-23T07:40:22",NA,13,NA,NA,NA,NA,NA,NA,NA
"PDS2014","EX","PDS2014-0025",NA,671,"PDS-FAKEDRUG-111",20,NA,"mg/kg","SUSPENSION","QD","ORAL GAVAGE","ABCD1234",NA,NA,"methocell",NA,NA,NA,"2010-12-24T08:11:18",NA,14,NA,NA,NA,NA,NA,NA,NA
"PDS2014","EX","PDS2014-0025",NA,672,"PDS-FAKEDRUG-111",20,NA,"mg/kg","SUSPENSION","QD","ORAL GAVAGE","ABCD1234",NA,NA,"methocell",NA,NA,NA,"2010-12-25T08:03:54",NA,15,NA,NA,NA,NA,NA,NA,NA
"PDS2014","EX","PDS2014-0025",NA,673,"PDS-FAKEDRUG-111",20,NA,"mg/kg","SUSPENSION","QD","ORAL GAVAGE","ABCD1234",NA,NA,"methocell",NA,NA,NA,"2010-12-26T07:27:46",NA,16,NA,NA,NA,NA,NA,NA,NA
"PDS2014","EX","PDS2014-0025",NA,674,"PDS-FAKEDRUG-111",20,NA,"mg/kg","SUSPENSION","QD","ORAL GAVAGE","ABCD1234",NA,NA,"methocell",NA,NA,NA,"2010-12-27T10:09:59",NA,17,NA,NA,NA,NA,NA,NA,NA
"PDS2014","EX","PDS2014-0025",NA,675,"PDS-FAKEDRUG-111",20,NA,"mg/kg","SUSPENSION","QD","ORAL GAVAGE","ABCD1234",NA,NA,"methocell",NA,NA,NA,"2010-12-28T08:10:10",NA,18,NA,NA,NA,NA,NA,NA,NA
"PDS2014","EX","PDS2014-0025",NA,676,"PDS-FAKEDRUG-111",20,NA,"mg/kg","SUSPENSION","QD","ORAL GAVAGE","ABCD1234",NA,NA,"methocell",NA,NA,NA,"2010-12-29T09:48:29",NA,19,NA,NA,NA,NA,NA,NA,NA
"PDS2014","EX","PDS2014-0025",NA,677,"PDS-FAKEDRUG-111",20,NA,"mg/kg","SUSPENSION","QD","ORAL GAVAGE","ABCD1234",NA,NA,"methocell",NA,NA,NA,"2010-12-30T09:06:25",NA,20,NA,NA,NA,NA,NA,NA,NA
"PDS2014","EX","PDS2014-0025",NA,678,"PDS-FAKEDRUG-111",20,NA,"mg/kg","SUSPENSION","QD","ORAL GAVAGE","ABCD1234",NA,NA,"methocell",NA,NA,NA,"2010-12-31T09:03:24",NA,21,NA,NA,NA,NA,NA,NA,NA
"PDS2014","EX","PDS2014-0025",NA,679,"PDS-FAKEDRUG-111",20,NA,"mg/kg","SUSPENSION","QD","ORAL GAVAGE","ABCD1234",NA,NA,"methocell",NA,NA,NA,"2011-01-01T07:01:00",NA,22,NA,NA,NA,NA,NA,NA,NA
"PDS2014","EX","PDS2014-0025",NA,680,"PDS-FAKEDRUG-111",20,NA,"mg/kg","SUSPENSION","QD","ORAL GAVAGE","ABCD1234",NA,NA,"methocell",NA,NA,NA,"2011-01-02T08:37:26",NA,23,NA,NA,NA,NA,NA,NA,NA
"PDS2014","EX","PDS2014-0025",NA,681,"PDS-FAKEDRUG-111",20,NA,"mg/kg","SUSPENSION","QD","ORAL GAVAGE","ABCD1234",NA,NA,"methocell",NA,NA,NA,"2011-01-03T08:46:02",NA,24,NA,NA,NA,NA,NA,NA,NA
"PDS2014","EX","PDS2014-0025",NA,682,"PDS-FAKEDRUG-111",20,NA,"mg/kg","SUSPENSION","QD","ORAL GAVAGE","ABCD1234",NA,NA,"methocell",NA,NA,NA,"2011-01-04T08:42:02",NA,25,NA,NA,NA,NA,NA,NA,NA
"PDS2014","EX","PDS2014-0025",NA,683,"PDS-FAKEDRUG-111",20,NA,"mg/kg","SUSPENSION","QD","ORAL GAVAGE","ABCD1234",NA,NA,"methocell",NA,NA,NA,"2011-01-05T09:23:03",NA,26,NA,NA,NA,NA,NA,NA,NA
"PDS2014","EX","PDS2014-0025",NA,684,"PDS-FAKEDRUG-111",20,NA,"mg/kg","SUSPENSION","QD","ORAL GAVAGE","ABCD1234",NA,NA,"methocell",NA,NA,NA,"2011-01-06T09:14:57",NA,27,NA,NA,NA,NA,NA,NA,NA
"PDS2014","EX","PDS2014-0025",NA,685,"PDS-FAKEDRUG-111",20,NA,"mg/kg","SUSPENSION","QD","ORAL GAVAGE","ABCD1234",NA,NA,"methocell",NA,NA,NA,"2011-01-07T08:12:48",NA,28,NA,NA,NA,NA,NA,NA,NA
"PDS2014","EX","PDS2014-0025",NA,686,"PDS-FAKEDRUG-111",20,NA,"mg/kg","SUSPENSION","QD","ORAL GAVAGE","ABCD1234",NA,NA,"methocell",NA,NA,NA,"2011-01-08T08:27:57",NA,29,NA,NA,NA,NA,NA,NA,NA
"PDS2014","EX","PDS2014-0025",NA,687,"PDS-FAKEDRUG-111",20,NA,"mg/kg","SUSPENSION","QD","ORAL GAVAGE","ABCD1234",NA,NA,"methocell",NA,NA,NA,"2011-01-09T08:13:26",NA,30,NA,NA,NA,NA,NA,NA,NA
"PDS2014","EX","PDS2014-0026",NA,688,"PDS-FAKEDRUG-111",20,NA,"mg/kg","SUSPENSION","QD","ORAL GAVAGE","ABCD1234",NA,NA,"methocell",NA,NA,NA,"2010-12-11T10:04:44",NA,1,NA,NA,NA,NA,NA,NA,NA
"PDS2014","EX","PDS2014-0026",NA,689,"PDS-FAKEDRUG-111",20,NA,"mg/kg","SUSPENSION","QD","ORAL GAVAGE","ABCD1234",NA,NA,"methocell",NA,NA,NA,"2010-12-12T11:20:02",NA,2,NA,NA,NA,NA,NA,NA,NA
"PDS2014","EX","PDS2014-0026",NA,690,"PDS-FAKEDRUG-111",20,NA,"mg/kg","SUSPENSION","QD","ORAL GAVAGE","ABCD1234",NA,NA,"methocell",NA,NA,NA,"2010-12-13T12:27:48",NA,3,NA,NA,NA,NA,NA,NA,NA
"PDS2014","EX","PDS2014-0026",NA,691,"PDS-FAKEDRUG-111",20,NA,"mg/kg","SUSPENSION","QD","ORAL GAVAGE","ABCD1234",NA,NA,"methocell",NA,NA,NA,"2010-12-14T10:44:22",NA,4,NA,NA,NA,NA,NA,NA,NA
"PDS2014","EX","PDS2014-0026",NA,692,"PDS-FAKEDRUG-111",20,NA,"mg/kg","SUSPENSION","QD","ORAL GAVAGE","ABCD1234",NA,NA,"methocell",NA,NA,NA,"2010-12-15T09:49:38",NA,5,NA,NA,NA,NA,NA,NA,NA
"PDS2014","EX","PDS2014-0026",NA,693,"PDS-FAKEDRUG-111",20,NA,"mg/kg","SUSPENSION","QD","ORAL GAVAGE","ABCD1234",NA,NA,"methocell",NA,NA,NA,"2010-12-16T09:07:40",NA,6,NA,NA,NA,NA,NA,NA,NA
"PDS2014","EX","PDS2014-0026",NA,694,"PDS-FAKEDRUG-111",20,NA,"mg/kg","SUSPENSION","QD","ORAL GAVAGE","ABCD1234",NA,NA,"methocell",NA,NA,NA,"2010-12-17T08:25:05",NA,7,NA,NA,NA,NA,NA,NA,NA
"PDS2014","EX","PDS2014-0026",NA,695,"PDS-FAKEDRUG-111",20,NA,"mg/kg","SUSPENSION","QD","ORAL GAVAGE","ABCD1234",NA,NA,"methocell",NA,NA,NA,"2010-12-18T08:36:01",NA,8,NA,NA,NA,NA,NA,NA,NA
"PDS2014","EX","PDS2014-0026",NA,696,"PDS-FAKEDRUG-111",20,NA,"mg/kg","SUSPENSION","QD","ORAL GAVAGE","ABCD1234",NA,NA,"methocell",NA,NA,NA,"2010-12-19T13:10:43",NA,9,NA,NA,NA,NA,NA,NA,NA
"PDS2014","EX","PDS2014-0026",NA,697,"PDS-FAKEDRUG-111",20,NA,"mg/kg","SUSPENSION","QD","ORAL GAVAGE","ABCD1234",NA,NA,"methocell",NA,NA,NA,"2010-12-20T11:18:43",NA,10,NA,NA,NA,NA,NA,NA,NA
"PDS2014","EX","PDS2014-0026",NA,698,"PDS-FAKEDRUG-111",20,NA,"mg/kg","SUSPENSION","QD","ORAL GAVAGE","ABCD1234",NA,NA,"methocell",NA,NA,NA,"2010-12-21T07:51:16",NA,11,NA,NA,NA,NA,NA,NA,NA
"PDS2014","EX","PDS2014-0026",NA,699,"PDS-FAKEDRUG-111",20,NA,"mg/kg","SUSPENSION","QD","ORAL GAVAGE","ABCD1234",NA,NA,"methocell",NA,NA,NA,"2010-12-22T08:24:33",NA,12,NA,NA,NA,NA,NA,NA,NA
"PDS2014","EX","PDS2014-0026",NA,700,"PDS-FAKEDRUG-111",20,NA,"mg/kg","SUSPENSION","QD","ORAL GAVAGE","ABCD1234",NA,NA,"methocell",NA,NA,NA,"2010-12-23T07:42:51",NA,13,NA,NA,NA,NA,NA,NA,NA
"PDS2014","EX","PDS2014-0026",NA,701,"PDS-FAKEDRUG-111",20,NA,"mg/kg","SUSPENSION","QD","ORAL GAVAGE","ABCD1234",NA,NA,"methocell",NA,NA,NA,"2010-12-24T08:13:45",NA,14,NA,NA,NA,NA,NA,NA,NA
"PDS2014","EX","PDS2014-0026",NA,702,"PDS-FAKEDRUG-111",20,NA,"mg/kg","SUSPENSION","QD","ORAL GAVAGE","ABCD1234",NA,NA,"methocell",NA,NA,NA,"2010-12-25T08:07:09",NA,15,NA,NA,NA,NA,NA,NA,NA
"PDS2014","EX","PDS2014-0026",NA,703,"PDS-FAKEDRUG-111",20,NA,"mg/kg","SUSPENSION","QD","ORAL GAVAGE","ABCD1234",NA,NA,"methocell",NA,NA,NA,"2010-12-26T07:30:26",NA,16,NA,NA,NA,NA,NA,NA,NA
"PDS2014","EX","PDS2014-0026",NA,704,"PDS-FAKEDRUG-111",20,NA,"mg/kg","SUSPENSION","QD","ORAL GAVAGE","ABCD1234",NA,NA,"methocell",NA,NA,NA,"2010-12-27T10:29:59",NA,17,NA,NA,NA,NA,NA,NA,NA
"PDS2014","EX","PDS2014-0026",NA,705,"PDS-FAKEDRUG-111",20,NA,"mg/kg","SUSPENSION","QD","ORAL GAVAGE","ABCD1234",NA,NA,"methocell",NA,NA,NA,"2010-12-28T08:12:41",NA,18,NA,NA,NA,NA,NA,NA,NA
"PDS2014","EX","PDS2014-0026",NA,706,"PDS-FAKEDRUG-111",20,NA,"mg/kg","SUSPENSION","QD","ORAL GAVAGE","ABCD1234",NA,NA,"methocell",NA,NA,NA,"2010-12-29T09:51:17",NA,19,NA,NA,NA,NA,NA,NA,NA
"PDS2014","EX","PDS2014-0026",NA,707,"PDS-FAKEDRUG-111",20,NA,"mg/kg","SUSPENSION","QD","ORAL GAVAGE","ABCD1234",NA,NA,"methocell",NA,NA,NA,"2010-12-30T09:09:27",NA,20,NA,NA,NA,NA,NA,NA,NA
"PDS2014","EX","PDS2014-0026",NA,708,"PDS-FAKEDRUG-111",20,NA,"mg/kg","SUSPENSION","QD","ORAL GAVAGE","ABCD1234",NA,NA,"methocell",NA,NA,NA,"2010-12-31T09:06:12",NA,21,NA,NA,NA,NA,NA,NA,NA
"PDS2014","EX","PDS2014-0026",NA,709,"PDS-FAKEDRUG-111",20,NA,"mg/kg","SUSPENSION","QD","ORAL GAVAGE","ABCD1234",NA,NA,"methocell",NA,NA,NA,"2011-01-01T07:04:30",NA,22,NA,NA,NA,NA,NA,NA,NA
"PDS2014","EX","PDS2014-0026",NA,710,"PDS-FAKEDRUG-111",20,NA,"mg/kg","SUSPENSION","QD","ORAL GAVAGE","ABCD1234",NA,NA,"methocell",NA,NA,NA,"2011-01-02T08:39:34",NA,23,NA,NA,NA,NA,NA,NA,NA
"PDS2014","EX","PDS2014-0026",NA,711,"PDS-FAKEDRUG-111",20,NA,"mg/kg","SUSPENSION","QD","ORAL GAVAGE","ABCD1234",NA,NA,"methocell",NA,NA,NA,"2011-01-03T08:48:12",NA,24,NA,NA,NA,NA,NA,NA,NA
"PDS2014","EX","PDS2014-0026",NA,712,"PDS-FAKEDRUG-111",20,NA,"mg/kg","SUSPENSION","QD","ORAL GAVAGE","ABCD1234",NA,NA,"methocell",NA,NA,NA,"2011-01-04T08:45:30",NA,25,NA,NA,NA,NA,NA,NA,NA
"PDS2014","EX","PDS2014-0026",NA,713,"PDS-FAKEDRUG-111",20,NA,"mg/kg","SUSPENSION","QD","ORAL GAVAGE","ABCD1234",NA,NA,"methocell",NA,NA,NA,"2011-01-05T09:24:52",NA,26,NA,NA,NA,NA,NA,NA,NA
"PDS2014","EX","PDS2014-0026",NA,714,"PDS-FAKEDRUG-111",20,NA,"mg/kg","SUSPENSION","QD","ORAL GAVAGE","ABCD1234",NA,NA,"methocell",NA,NA,NA,"2011-01-06T09:16:38",NA,27,NA,NA,NA,NA,NA,NA,NA
"PDS2014","EX","PDS2014-0026",NA,715,"PDS-FAKEDRUG-111",20,NA,"mg/kg","SUSPENSION","QD","ORAL GAVAGE","ABCD1234",NA,NA,"methocell",NA,NA,NA,"2011-01-07T08:15:51",NA,28,NA,NA,NA,NA,NA,NA,NA
"PDS2014","EX","PDS2014-0026",NA,716,"PDS-FAKEDRUG-111",20,NA,"mg/kg","SUSPENSION","QD","ORAL GAVAGE","ABCD1234",NA,NA,"methocell",NA,NA,NA,"2011-01-08T08:30:17",NA,29,NA,NA,NA,NA,NA,NA,NA
"PDS2014","EX","PDS2014-0026",NA,717,"PDS-FAKEDRUG-111",20,NA,"mg/kg","SUSPENSION","QD","ORAL GAVAGE","ABCD1234",NA,NA,"methocell",NA,NA,NA,"2011-01-09T11:13:32",NA,30,NA,NA,NA,NA,NA,NA,NA
"PDS2014","EX","PDS2014-0027",NA,718,"PDS-FAKEDRUG-111",20,NA,"mg/kg","SUSPENSION","QD","ORAL GAVAGE","ABCD1234",NA,NA,"methocell",NA,NA,NA,"2010-12-11T10:05:39",NA,1,NA,NA,NA,NA,NA,NA,NA
"PDS2014","EX","PDS2014-0027",NA,719,"PDS-FAKEDRUG-111",20,NA,"mg/kg","SUSPENSION","QD","ORAL GAVAGE","ABCD1234",NA,NA,"methocell",NA,NA,NA,"2010-12-12T11:21:08",NA,2,NA,NA,NA,NA,NA,NA,NA
"PDS2014","EX","PDS2014-0027",NA,720,"PDS-FAKEDRUG-111",20,NA,"mg/kg","SUSPENSION","QD","ORAL GAVAGE","ABCD1234",NA,NA,"methocell",NA,NA,NA,"2010-12-13T12:27:30",NA,3,NA,NA,NA,NA,NA,NA,NA
"PDS2014","EX","PDS2014-0027",NA,721,"PDS-FAKEDRUG-111",20,NA,"mg/kg","SUSPENSION","QD","ORAL GAVAGE","ABCD1234",NA,NA,"methocell",NA,NA,NA,"2010-12-14T10:43:18",NA,4,NA,NA,NA,NA,NA,NA,NA
"PDS2014","EX","PDS2014-0027",NA,722,"PDS-FAKEDRUG-111",20,NA,"mg/kg","SUSPENSION","QD","ORAL GAVAGE","ABCD1234",NA,NA,"methocell",NA,NA,NA,"2010-12-15T09:49:52",NA,5,NA,NA,NA,NA,NA,NA,NA
"PDS2014","EX","PDS2014-0027",NA,723,"PDS-FAKEDRUG-111",20,NA,"mg/kg","SUSPENSION","QD","ORAL GAVAGE","ABCD1234",NA,NA,"methocell",NA,NA,NA,"2010-12-16T09:07:27",NA,6,NA,NA,NA,NA,NA,NA,NA
"PDS2014","EX","PDS2014-0027",NA,724,"PDS-FAKEDRUG-111",20,NA,"mg/kg","SUSPENSION","QD","ORAL GAVAGE","ABCD1234",NA,NA,"methocell",NA,NA,NA,"2010-12-17T08:24:07",NA,7,NA,NA,NA,NA,NA,NA,NA
"PDS2014","EX","PDS2014-0027",NA,725,"PDS-FAKEDRUG-111",20,NA,"mg/kg","SUSPENSION","QD","ORAL GAVAGE","ABCD1234",NA,NA,"methocell",NA,NA,NA,"2010-12-18T08:36:30",NA,8,NA,NA,NA,NA,NA,NA,NA
"PDS2014","EX","PDS2014-0027",NA,726,"PDS-FAKEDRUG-111",20,NA,"mg/kg","SUSPENSION","QD","ORAL GAVAGE","ABCD1234",NA,NA,"methocell",NA,NA,NA,"2010-12-19T13:11:31",NA,9,NA,NA,NA,NA,NA,NA,NA
"PDS2014","EX","PDS2014-0027",NA,727,"PDS-FAKEDRUG-111",20,NA,"mg/kg","SUSPENSION","QD","ORAL GAVAGE","ABCD1234",NA,NA,"methocell",NA,NA,NA,"2010-12-20T11:18:25",NA,10,NA,NA,NA,NA,NA,NA,NA
"PDS2014","EX","PDS2014-0027",NA,728,"PDS-FAKEDRUG-111",20,NA,"mg/kg","SUSPENSION","QD","ORAL GAVAGE","ABCD1234",NA,NA,"methocell",NA,NA,NA,"2010-12-21T07:50:54",NA,11,NA,NA,NA,NA,NA,NA,NA
"PDS2014","EX","PDS2014-0027",NA,729,"PDS-FAKEDRUG-111",20,NA,"mg/kg","SUSPENSION","QD","ORAL GAVAGE","ABCD1234",NA,NA,"methocell",NA,NA,NA,"2010-12-22T08:25:13",NA,12,NA,NA,NA,NA,NA,NA,NA
"PDS2014","EX","PDS2014-0027",NA,730,"PDS-FAKEDRUG-111",20,NA,"mg/kg","SUSPENSION","QD","ORAL GAVAGE","ABCD1234",NA,NA,"methocell",NA,NA,NA,"2010-12-23T07:43:11",NA,13,NA,NA,NA,NA,NA,NA,NA
"PDS2014","EX","PDS2014-0027",NA,731,"PDS-FAKEDRUG-111",20,NA,"mg/kg","SUSPENSION","QD","ORAL GAVAGE","ABCD1234",NA,NA,"methocell",NA,NA,NA,"2010-12-24T08:14:01",NA,14,NA,NA,NA,NA,NA,NA,NA
"PDS2014","EX","PDS2014-0027",NA,732,"PDS-FAKEDRUG-111",20,NA,"mg/kg","SUSPENSION","QD","ORAL GAVAGE","ABCD1234",NA,NA,"methocell",NA,NA,NA,"2010-12-25T08:07:30",NA,15,NA,NA,NA,NA,NA,NA,NA
"PDS2014","EX","PDS2014-0027",NA,733,"PDS-FAKEDRUG-111",20,NA,"mg/kg","SUSPENSION","QD","ORAL GAVAGE","ABCD1234",NA,NA,"methocell",NA,NA,NA,"2010-12-26T07:30:58",NA,16,NA,NA,NA,NA,NA,NA,NA
"PDS2014","EX","PDS2014-0027",NA,734,"PDS-FAKEDRUG-111",20,NA,"mg/kg","SUSPENSION","QD","ORAL GAVAGE","ABCD1234",NA,NA,"methocell",NA,NA,NA,"2010-12-27T10:31:10",NA,17,NA,NA,NA,NA,NA,NA,NA
"PDS2014","EX","PDS2014-0027",NA,735,"PDS-FAKEDRUG-111",20,NA,"mg/kg","SUSPENSION","QD","ORAL GAVAGE","ABCD1234",NA,NA,"methocell",NA,NA,NA,"2010-12-28T08:12:58",NA,18,NA,NA,NA,NA,NA,NA,NA
"PDS2014","EX","PDS2014-0027",NA,736,"PDS-FAKEDRUG-111",20,NA,"mg/kg","SUSPENSION","QD","ORAL GAVAGE","ABCD1234",NA,NA,"methocell",NA,NA,NA,"2010-12-29T09:51:40",NA,19,NA,NA,NA,NA,NA,NA,NA
"PDS2014","EX","PDS2014-0027",NA,737,"PDS-FAKEDRUG-111",20,NA,"mg/kg","SUSPENSION","QD","ORAL GAVAGE","ABCD1234",NA,NA,"methocell",NA,NA,NA,"2010-12-30T09:09:49",NA,20,NA,NA,NA,NA,NA,NA,NA
"PDS2014","EX","PDS2014-0027",NA,738,"PDS-FAKEDRUG-111",20,NA,"mg/kg","SUSPENSION","QD","ORAL GAVAGE","ABCD1234",NA,NA,"methocell",NA,NA,NA,"2010-12-31T09:05:54",NA,21,NA,NA,NA,NA,NA,NA,NA
"PDS2014","EX","PDS2014-0027",NA,739,"PDS-FAKEDRUG-111",20,NA,"mg/kg","SUSPENSION","QD","ORAL GAVAGE","ABCD1234",NA,NA,"methocell",NA,NA,NA,"2011-01-01T07:04:02",NA,22,NA,NA,NA,NA,NA,NA,NA
"PDS2014","EX","PDS2014-0027",NA,740,"PDS-FAKEDRUG-111",20,NA,"mg/kg","SUSPENSION","QD","ORAL GAVAGE","ABCD1234",NA,NA,"methocell",NA,NA,NA,"2011-01-02T08:39:53",NA,23,NA,NA,NA,NA,NA,NA,NA
"PDS2014","EX","PDS2014-0027",NA,741,"PDS-FAKEDRUG-111",20,NA,"mg/kg","SUSPENSION","QD","ORAL GAVAGE","ABCD1234",NA,NA,"methocell",NA,NA,NA,"2011-01-03T08:48:26",NA,24,NA,NA,NA,NA,NA,NA,NA
"PDS2014","EX","PDS2014-0027",NA,742,"PDS-FAKEDRUG-111",20,NA,"mg/kg","SUSPENSION","QD","ORAL GAVAGE","ABCD1234",NA,NA,"methocell",NA,NA,NA,"2011-01-04T08:45:07",NA,25,NA,NA,NA,NA,NA,NA,NA
"PDS2014","EX","PDS2014-0027",NA,743,"PDS-FAKEDRUG-111",20,NA,"mg/kg","SUSPENSION","QD","ORAL GAVAGE","ABCD1234",NA,NA,"methocell",NA,NA,NA,"2011-01-05T09:24:15",NA,26,NA,NA,NA,NA,NA,NA,NA
"PDS2014","EX","PDS2014-0027",NA,744,"PDS-FAKEDRUG-111",20,NA,"mg/kg","SUSPENSION","QD","ORAL GAVAGE","ABCD1234",NA,NA,"methocell",NA,NA,NA,"2011-01-06T09:17:05",NA,27,NA,NA,NA,NA,NA,NA,NA
"PDS2014","EX","PDS2014-0027",NA,745,"PDS-FAKEDRUG-111",20,NA,"mg/kg","SUSPENSION","QD","ORAL GAVAGE","ABCD1234",NA,NA,"methocell",NA,NA,NA,"2011-01-07T08:16:16",NA,28,NA,NA,NA,NA,NA,NA,NA
"PDS2014","EX","PDS2014-0027",NA,746,"PDS-FAKEDRUG-111",20,NA,"mg/kg","SUSPENSION","QD","ORAL GAVAGE","ABCD1234",NA,NA,"methocell",NA,NA,NA,"2011-01-08T08:29:55",NA,29,NA,NA,NA,NA,NA,NA,NA
"PDS2014","EX","PDS2014-0027",NA,747,"PDS-FAKEDRUG-111",20,NA,"mg/kg","SUSPENSION","QD","ORAL GAVAGE","ABCD1234",NA,NA,"methocell",NA,NA,NA,"2011-01-09T11:14:01",NA,30,NA,NA,NA,NA,NA,NA,NA
"PDS2014","EX","PDS2014-0028",NA,748,"PDS-FAKEDRUG-111",20,NA,"mg/kg","SUSPENSION","QD","ORAL GAVAGE","ABCD1234",NA,NA,"methocell",NA,NA,NA,"2010-12-11T10:06:09",NA,1,NA,NA,NA,NA,NA,NA,NA
"PDS2014","EX","PDS2014-0028",NA,749,"PDS-FAKEDRUG-111",20,NA,"mg/kg","SUSPENSION","QD","ORAL GAVAGE","ABCD1234",NA,NA,"methocell",NA,NA,NA,"2010-12-12T11:20:46",NA,2,NA,NA,NA,NA,NA,NA,NA
"PDS2014","EX","PDS2014-0028",NA,750,"PDS-FAKEDRUG-111",20,NA,"mg/kg","SUSPENSION","QD","ORAL GAVAGE","ABCD1234",NA,NA,"methocell",NA,NA,NA,"2010-12-13T12:28:23",NA,3,NA,NA,NA,NA,NA,NA,NA
"PDS2014","EX","PDS2014-0028",NA,751,"PDS-FAKEDRUG-111",20,NA,"mg/kg","SUSPENSION","QD","ORAL GAVAGE","ABCD1234",NA,NA,"methocell",NA,NA,NA,"2010-12-14T10:44:41",NA,4,NA,NA,NA,NA,NA,NA,NA
"PDS2014","EX","PDS2014-0028",NA,752,"PDS-FAKEDRUG-111",20,NA,"mg/kg","SUSPENSION","QD","ORAL GAVAGE","ABCD1234",NA,NA,"methocell",NA,NA,NA,"2010-12-15T09:50:23",NA,5,NA,NA,NA,NA,NA,NA,NA
"PDS2014","EX","PDS2014-0028",NA,753,"PDS-FAKEDRUG-111",20,NA,"mg/kg","SUSPENSION","QD","ORAL GAVAGE","ABCD1234",NA,NA,"methocell",NA,NA,NA,"2010-12-16T09:07:13",NA,6,NA,NA,NA,NA,NA,NA,NA
"PDS2014","EX","PDS2014-0028",NA,754,"PDS-FAKEDRUG-111",20,NA,"mg/kg","SUSPENSION","QD","ORAL GAVAGE","ABCD1234",NA,NA,"methocell",NA,NA,NA,"2010-12-17T08:23:47",NA,7,NA,NA,NA,NA,NA,NA,NA
"PDS2014","EX","PDS2014-0028",NA,755,"PDS-FAKEDRUG-111",20,NA,"mg/kg","SUSPENSION","QD","ORAL GAVAGE","ABCD1234",NA,NA,"methocell",NA,NA,NA,"2010-12-18T08:35:12",NA,8,NA,NA,NA,NA,NA,NA,NA
"PDS2014","EX","PDS2014-0028",NA,756,"PDS-FAKEDRUG-111",20,NA,"mg/kg","SUSPENSION","QD","ORAL GAVAGE","ABCD1234",NA,NA,"methocell",NA,NA,NA,"2010-12-19T13:12:09",NA,9,NA,NA,NA,NA,NA,NA,NA
"PDS2014","EX","PDS2014-0028",NA,757,"PDS-FAKEDRUG-111",20,NA,"mg/kg","SUSPENSION","QD","ORAL GAVAGE","ABCD1234",NA,NA,"methocell",NA,NA,NA,"2010-12-20T11:17:46",NA,10,NA,NA,NA,NA,NA,NA,NA
"PDS2014","EX","PDS2014-0028",NA,758,"PDS-FAKEDRUG-111",20,NA,"mg/kg","SUSPENSION","QD","ORAL GAVAGE","ABCD1234",NA,NA,"methocell",NA,NA,NA,"2010-12-21T07:50:05",NA,11,NA,NA,NA,NA,NA,NA,NA
"PDS2014","EX","PDS2014-0028",NA,759,"PDS-FAKEDRUG-111",20,NA,"mg/kg","SUSPENSION","QD","ORAL GAVAGE","ABCD1234",NA,NA,"methocell",NA,NA,NA,"2010-12-22T08:23:59",NA,12,NA,NA,NA,NA,NA,NA,NA
"PDS2014","EX","PDS2014-0028",NA,760,"PDS-FAKEDRUG-111",20,NA,"mg/kg","SUSPENSION","QD","ORAL GAVAGE","ABCD1234",NA,NA,"methocell",NA,NA,NA,"2010-12-23T07:43:24",NA,13,NA,NA,NA,NA,NA,NA,NA
"PDS2014","EX","PDS2014-0028",NA,761,"PDS-FAKEDRUG-111",20,NA,"mg/kg","SUSPENSION","QD","ORAL GAVAGE","ABCD1234",NA,NA,"methocell",NA,NA,NA,"2010-12-24T08:12:51",NA,14,NA,NA,NA,NA,NA,NA,NA
"PDS2014","EX","PDS2014-0028",NA,762,"PDS-FAKEDRUG-111",20,NA,"mg/kg","SUSPENSION","QD","ORAL GAVAGE","ABCD1234",NA,NA,"methocell",NA,NA,NA,"2010-12-25T08:06:37",NA,15,NA,NA,NA,NA,NA,NA,NA
"PDS2014","EX","PDS2014-0028",NA,763,"PDS-FAKEDRUG-111",20,NA,"mg/kg","SUSPENSION","QD","ORAL GAVAGE","ABCD1234",NA,NA,"methocell",NA,NA,NA,"2010-12-26T07:29:21",NA,16,NA,NA,NA,NA,NA,NA,NA
"PDS2014","EX","PDS2014-0028",NA,764,"PDS-FAKEDRUG-111",20,NA,"mg/kg","SUSPENSION","QD","ORAL GAVAGE","ABCD1234",NA,NA,"methocell",NA,NA,NA,"2010-12-27T10:11:43",NA,17,NA,NA,NA,NA,NA,NA,NA
"PDS2014","EX","PDS2014-0028",NA,765,"PDS-FAKEDRUG-111",20,NA,"mg/kg","SUSPENSION","QD","ORAL GAVAGE","ABCD1234",NA,NA,"methocell",NA,NA,NA,"2010-12-28T08:12:26",NA,18,NA,NA,NA,NA,NA,NA,NA
"PDS2014","EX","PDS2014-0028",NA,766,"PDS-FAKEDRUG-111",20,NA,"mg/kg","SUSPENSION","QD","ORAL GAVAGE","ABCD1234",NA,NA,"methocell",NA,NA,NA,"2010-12-29T09:50:55",NA,19,NA,NA,NA,NA,NA,NA,NA
"PDS2014","EX","PDS2014-0028",NA,767,"PDS-FAKEDRUG-111",20,NA,"mg/kg","SUSPENSION","QD","ORAL GAVAGE","ABCD1234",NA,NA,"methocell",NA,NA,NA,"2010-12-30T09:09:01",NA,20,NA,NA,NA,NA,NA,NA,NA
"PDS2014","EX","PDS2014-0028",NA,768,"PDS-FAKEDRUG-111",20,NA,"mg/kg","SUSPENSION","QD","ORAL GAVAGE","ABCD1234",NA,NA,"methocell",NA,NA,NA,"2010-12-31T09:05:01",NA,21,NA,NA,NA,NA,NA,NA,NA
"PDS2014","EX","PDS2014-0028",NA,769,"PDS-FAKEDRUG-111",20,NA,"mg/kg","SUSPENSION","QD","ORAL GAVAGE","ABCD1234",NA,NA,"methocell",NA,NA,NA,"2011-01-01T07:02:35",NA,22,NA,NA,NA,NA,NA,NA,NA
"PDS2014","EX","PDS2014-0028",NA,770,"PDS-FAKEDRUG-111",20,NA,"mg/kg","SUSPENSION","QD","ORAL GAVAGE","ABCD1234",NA,NA,"methocell",NA,NA,NA,"2011-01-02T08:40:12",NA,23,NA,NA,NA,NA,NA,NA,NA
"PDS2014","EX","PDS2014-0028",NA,771,"PDS-FAKEDRUG-111",20,NA,"mg/kg","SUSPENSION","QD","ORAL GAVAGE","ABCD1234",NA,NA,"methocell",NA,NA,NA,"2011-01-03T08:47:51",NA,24,NA,NA,NA,NA,NA,NA,NA
"PDS2014","EX","PDS2014-0028",NA,772,"PDS-FAKEDRUG-111",20,NA,"mg/kg","SUSPENSION","QD","ORAL GAVAGE","ABCD1234",NA,NA,"methocell",NA,NA,NA,"2011-01-04T08:44:41",NA,25,NA,NA,NA,NA,NA,NA,NA
"PDS2014","EX","PDS2014-0028",NA,773,"PDS-FAKEDRUG-111",20,NA,"mg/kg","SUSPENSION","QD","ORAL GAVAGE","ABCD1234",NA,NA,"methocell",NA,NA,NA,"2011-01-05T09:24:00",NA,26,NA,NA,NA,NA,NA,NA,NA
"PDS2014","EX","PDS2014-0028",NA,774,"PDS-FAKEDRUG-111",20,NA,"mg/kg","SUSPENSION","QD","ORAL GAVAGE","ABCD1234",NA,NA,"methocell",NA,NA,NA,"2011-01-06T09:15:35",NA,27,NA,NA,NA,NA,NA,NA,NA
"PDS2014","EX","PDS2014-0028",NA,775,"PDS-FAKEDRUG-111",20,NA,"mg/kg","SUSPENSION","QD","ORAL GAVAGE","ABCD1234",NA,NA,"methocell",NA,NA,NA,"2011-01-07T08:15:30",NA,28,NA,NA,NA,NA,NA,NA,NA
"PDS2014","EX","PDS2014-0028",NA,776,"PDS-FAKEDRUG-111",20,NA,"mg/kg","SUSPENSION","QD","ORAL GAVAGE","ABCD1234",NA,NA,"methocell",NA,NA,NA,"2011-01-08T08:29:16",NA,29,NA,NA,NA,NA,NA,NA,NA
"PDS2014","EX","PDS2014-0028",NA,777,"PDS-FAKEDRUG-111",20,NA,"mg/kg","SUSPENSION","QD","ORAL GAVAGE","ABCD1234",NA,NA,"methocell",NA,NA,NA,"2011-01-09T11:13:02",NA,30,NA,NA,NA,NA,NA,NA,NA
"PDS2014","EX","PDS2014-0029",NA,778,"PDS-FAKEDRUG-111",20,NA,"mg/kg","SUSPENSION","QD","ORAL GAVAGE","ABCD1234",NA,NA,"methocell",NA,NA,NA,"2010-12-11T10:06:42",NA,1,NA,NA,NA,NA,NA,NA,NA
"PDS2014","EX","PDS2014-0029",NA,779,"PDS-FAKEDRUG-111",20,NA,"mg/kg","SUSPENSION","QD","ORAL GAVAGE","ABCD1234",NA,NA,"methocell",NA,NA,NA,"2010-12-12T11:21:34",NA,2,NA,NA,NA,NA,NA,NA,NA
"PDS2014","EX","PDS2014-0029",NA,780,"PDS-FAKEDRUG-111",20,NA,"mg/kg","SUSPENSION","QD","ORAL GAVAGE","ABCD1234",NA,NA,"methocell",NA,NA,NA,"2010-12-13T12:28:07",NA,3,NA,NA,NA,NA,NA,NA,NA
"PDS2014","EX","PDS2014-0029",NA,781,"PDS-FAKEDRUG-111",20,NA,"mg/kg","SUSPENSION","QD","ORAL GAVAGE","ABCD1234",NA,NA,"methocell",NA,NA,NA,"2010-12-14T10:43:39",NA,4,NA,NA,NA,NA,NA,NA,NA
"PDS2014","EX","PDS2014-0029",NA,782,"PDS-FAKEDRUG-111",20,NA,"mg/kg","SUSPENSION","QD","ORAL GAVAGE","ABCD1234",NA,NA,"methocell",NA,NA,NA,"2010-12-15T09:50:07",NA,5,NA,NA,NA,NA,NA,NA,NA
"PDS2014","EX","PDS2014-0029",NA,783,"PDS-FAKEDRUG-111",20,NA,"mg/kg","SUSPENSION","QD","ORAL GAVAGE","ABCD1234",NA,NA,"methocell",NA,NA,NA,"2010-12-16T09:07:53",NA,6,NA,NA,NA,NA,NA,NA,NA
"PDS2014","EX","PDS2014-0029",NA,784,"PDS-FAKEDRUG-111",20,NA,"mg/kg","SUSPENSION","QD","ORAL GAVAGE","ABCD1234",NA,NA,"methocell",NA,NA,NA,"2010-12-17T08:24:29",NA,7,NA,NA,NA,NA,NA,NA,NA
"PDS2014","EX","PDS2014-0029",NA,785,"PDS-FAKEDRUG-111",20,NA,"mg/kg","SUSPENSION","QD","ORAL GAVAGE","ABCD1234",NA,NA,"methocell",NA,NA,NA,"2010-12-18T08:35:36",NA,8,NA,NA,NA,NA,NA,NA,NA
"PDS2014","EX","PDS2014-0029",NA,786,"PDS-FAKEDRUG-111",20,NA,"mg/kg","SUSPENSION","QD","ORAL GAVAGE","ABCD1234",NA,NA,"methocell",NA,NA,NA,"2010-12-19T13:11:53",NA,9,NA,NA,NA,NA,NA,NA,NA
"PDS2014","EX","PDS2014-0029",NA,787,"PDS-FAKEDRUG-111",20,NA,"mg/kg","SUSPENSION","QD","ORAL GAVAGE","ABCD1234",NA,NA,"methocell",NA,NA,NA,"2010-12-20T11:18:05",NA,10,NA,NA,NA,NA,NA,NA,NA
"PDS2014","EX","PDS2014-0029",NA,788,"PDS-FAKEDRUG-111",20,NA,"mg/kg","SUSPENSION","QD","ORAL GAVAGE","ABCD1234",NA,NA,"methocell",NA,NA,NA,"2010-12-21T07:49:30",NA,11,NA,NA,NA,NA,NA,NA,NA
"PDS2014","EX","PDS2014-0029",NA,789,"PDS-FAKEDRUG-111",20,NA,"mg/kg","SUSPENSION","QD","ORAL GAVAGE","ABCD1234",NA,NA,"methocell",NA,NA,NA,"2010-12-22T08:24:16",NA,12,NA,NA,NA,NA,NA,NA,NA
"PDS2014","EX","PDS2014-0029",NA,790,"PDS-FAKEDRUG-111",20,NA,"mg/kg","SUSPENSION","QD","ORAL GAVAGE","ABCD1234",NA,NA,"methocell",NA,NA,NA,"2010-12-23T07:42:17",NA,13,NA,NA,NA,NA,NA,NA,NA
"PDS2014","EX","PDS2014-0029",NA,791,"PDS-FAKEDRUG-111",20,NA,"mg/kg","SUSPENSION","QD","ORAL GAVAGE","ABCD1234",NA,NA,"methocell",NA,NA,NA,"2010-12-24T08:13:26",NA,14,NA,NA,NA,NA,NA,NA,NA
"PDS2014","EX","PDS2014-0029",NA,792,"PDS-FAKEDRUG-111",20,NA,"mg/kg","SUSPENSION","QD","ORAL GAVAGE","ABCD1234",NA,NA,"methocell",NA,NA,NA,"2010-12-25T08:05:28",NA,15,NA,NA,NA,NA,NA,NA,NA
"PDS2014","EX","PDS2014-0029",NA,793,"PDS-FAKEDRUG-111",20,NA,"mg/kg","SUSPENSION","QD","ORAL GAVAGE","ABCD1234",NA,NA,"methocell",NA,NA,NA,"2010-12-26T07:29:44",NA,16,NA,NA,NA,NA,NA,NA,NA
"PDS2014","EX","PDS2014-0029",NA,794,"PDS-FAKEDRUG-111",20,NA,"mg/kg","SUSPENSION","QD","ORAL GAVAGE","ABCD1234",NA,NA,"methocell",NA,NA,NA,"2010-12-27T10:30:25",NA,17,NA,NA,NA,NA,NA,NA,NA
"PDS2014","EX","PDS2014-0029",NA,795,"PDS-FAKEDRUG-111",20,NA,"mg/kg","SUSPENSION","QD","ORAL GAVAGE","ABCD1234",NA,NA,"methocell",NA,NA,NA,"2010-12-28T08:12:08",NA,18,NA,NA,NA,NA,NA,NA,NA
"PDS2014","EX","PDS2014-0029",NA,796,"PDS-FAKEDRUG-111",20,NA,"mg/kg","SUSPENSION","QD","ORAL GAVAGE","ABCD1234",NA,NA,"methocell",NA,NA,NA,"2010-12-29T09:52:06",NA,19,NA,NA,NA,NA,NA,NA,NA
"PDS2014","EX","PDS2014-0029",NA,797,"PDS-FAKEDRUG-111",20,NA,"mg/kg","SUSPENSION","QD","ORAL GAVAGE","ABCD1234",NA,NA,"methocell",NA,NA,NA,"2010-12-30T09:08:40",NA,20,NA,NA,NA,NA,NA,NA,NA
"PDS2014","EX","PDS2014-0029",NA,798,"PDS-FAKEDRUG-111",20,NA,"mg/kg","SUSPENSION","QD","ORAL GAVAGE","ABCD1234",NA,NA,"methocell",NA,NA,NA,"2010-12-31T09:05:20",NA,21,NA,NA,NA,NA,NA,NA,NA
"PDS2014","EX","PDS2014-0029",NA,799,"PDS-FAKEDRUG-111",20,NA,"mg/kg","SUSPENSION","QD","ORAL GAVAGE","ABCD1234",NA,NA,"methocell",NA,NA,NA,"2011-01-01T07:03:17",NA,22,NA,NA,NA,NA,NA,NA,NA
"PDS2014","EX","PDS2014-0029",NA,800,"PDS-FAKEDRUG-111",20,NA,"mg/kg","SUSPENSION","QD","ORAL GAVAGE","ABCD1234",NA,NA,"methocell",NA,NA,NA,"2011-01-02T08:39:15",NA,23,NA,NA,NA,NA,NA,NA,NA
"PDS2014","EX","PDS2014-0029",NA,801,"PDS-FAKEDRUG-111",20,NA,"mg/kg","SUSPENSION","QD","ORAL GAVAGE","ABCD1234",NA,NA,"methocell",NA,NA,NA,"2011-01-03T08:47:23",NA,24,NA,NA,NA,NA,NA,NA,NA
"PDS2014","EX","PDS2014-0029",NA,802,"PDS-FAKEDRUG-111",20,NA,"mg/kg","SUSPENSION","QD","ORAL GAVAGE","ABCD1234",NA,NA,"methocell",NA,NA,NA,"2011-01-04T08:43:56",NA,25,NA,NA,NA,NA,NA,NA,NA
"PDS2014","EX","PDS2014-0029",NA,803,"PDS-FAKEDRUG-111",20,NA,"mg/kg","SUSPENSION","QD","ORAL GAVAGE","ABCD1234",NA,NA,"methocell",NA,NA,NA,"2011-01-05T09:23:42",NA,26,NA,NA,NA,NA,NA,NA,NA
"PDS2014","EX","PDS2014-0029",NA,804,"PDS-FAKEDRUG-111",20,NA,"mg/kg","SUSPENSION","QD","ORAL GAVAGE","ABCD1234",NA,NA,"methocell",NA,NA,NA,"2011-01-06T09:16:19",NA,27,NA,NA,NA,NA,NA,NA,NA
"PDS2014","EX","PDS2014-0029",NA,805,"PDS-FAKEDRUG-111",20,NA,"mg/kg","SUSPENSION","QD","ORAL GAVAGE","ABCD1234",NA,NA,"methocell",NA,NA,NA,"2011-01-07T08:15:09",NA,28,NA,NA,NA,NA,NA,NA,NA
"PDS2014","EX","PDS2014-0029",NA,806,"PDS-FAKEDRUG-111",20,NA,"mg/kg","SUSPENSION","QD","ORAL GAVAGE","ABCD1234",NA,NA,"methocell",NA,NA,NA,"2011-01-08T08:29:36",NA,29,NA,NA,NA,NA,NA,NA,NA
"PDS2014","EX","PDS2014-0029",NA,807,"PDS-FAKEDRUG-111",20,NA,"mg/kg","SUSPENSION","QD","ORAL GAVAGE","ABCD1234",NA,NA,"methocell",NA,NA,NA,"2011-01-09T11:12:29",NA,30,NA,NA,NA,NA,NA,NA,NA
"PDS2014","EX","PDS2014-0030",NA,808,"PDS-FAKEDRUG-111",20,NA,"mg/kg","SUSPENSION","QD","ORAL GAVAGE","ABCD1234",NA,NA,"methocell",NA,NA,NA,"2010-12-11T10:05:08",NA,1,NA,NA,NA,NA,NA,NA,NA
"PDS2014","EX","PDS2014-0030",NA,809,"PDS-FAKEDRUG-111",20,NA,"mg/kg","SUSPENSION","QD","ORAL GAVAGE","ABCD1234",NA,NA,"methocell",NA,NA,NA,"2010-12-12T11:20:25",NA,2,NA,NA,NA,NA,NA,NA,NA
"PDS2014","EX","PDS2014-0030",NA,810,"PDS-FAKEDRUG-111",20,NA,"mg/kg","SUSPENSION","QD","ORAL GAVAGE","ABCD1234",NA,NA,"methocell",NA,NA,NA,"2010-12-13T12:27:14",NA,3,NA,NA,NA,NA,NA,NA,NA
"PDS2014","EX","PDS2014-0030",NA,811,"PDS-FAKEDRUG-111",20,NA,"mg/kg","SUSPENSION","QD","ORAL GAVAGE","ABCD1234",NA,NA,"methocell",NA,NA,NA,"2010-12-14T10:44:00",NA,4,NA,NA,NA,NA,NA,NA,NA
"PDS2014","EX","PDS2014-0030",NA,812,"PDS-FAKEDRUG-111",20,NA,"mg/kg","SUSPENSION","QD","ORAL GAVAGE","ABCD1234",NA,NA,"methocell",NA,NA,NA,"2010-12-15T09:51:35",NA,5,NA,NA,NA,NA,NA,NA,NA
"PDS2014","EX","PDS2014-0030",NA,813,"PDS-FAKEDRUG-111",20,NA,"mg/kg","SUSPENSION","QD","ORAL GAVAGE","ABCD1234",NA,NA,"methocell",NA,NA,NA,"2010-12-16T09:08:12",NA,6,NA,NA,NA,NA,NA,NA,NA
"PDS2014","EX","PDS2014-0030",NA,814,"PDS-FAKEDRUG-111",20,NA,"mg/kg","SUSPENSION","QD","ORAL GAVAGE","ABCD1234",NA,NA,"methocell",NA,NA,NA,"2010-12-17T08:23:19",NA,7,NA,NA,NA,NA,NA,NA,NA
"PDS2014","EX","PDS2014-0030",NA,815,"PDS-FAKEDRUG-111",20,NA,"mg/kg","SUSPENSION","QD","ORAL GAVAGE","ABCD1234",NA,NA,"methocell",NA,NA,NA,"2010-12-18T08:34:31",NA,8,NA,NA,NA,NA,NA,NA,NA
"PDS2014","EX","PDS2014-0030",NA,816,"PDS-FAKEDRUG-111",20,NA,"mg/kg","SUSPENSION","QD","ORAL GAVAGE","ABCD1234",NA,NA,"methocell",NA,NA,NA,"2010-12-19T13:11:04",NA,9,NA,NA,NA,NA,NA,NA,NA
"PDS2014","EX","PDS2014-0030",NA,817,"PDS-FAKEDRUG-111",20,NA,"mg/kg","SUSPENSION","QD","ORAL GAVAGE","ABCD1234",NA,NA,"methocell",NA,NA,NA,"2010-12-20T11:19:07",NA,10,NA,NA,NA,NA,NA,NA,NA
"PDS2014","EX","PDS2014-0030",NA,818,"PDS-FAKEDRUG-111",20,NA,"mg/kg","SUSPENSION","QD","ORAL GAVAGE","ABCD1234",NA,NA,"methocell",NA,NA,NA,"2010-12-21T07:50:31",NA,11,NA,NA,NA,NA,NA,NA,NA
"PDS2014","EX","PDS2014-0030",NA,819,"PDS-FAKEDRUG-111",20,NA,"mg/kg","SUSPENSION","QD","ORAL GAVAGE","ABCD1234",NA,NA,"methocell",NA,NA,NA,"2010-12-22T08:24:51",NA,12,NA,NA,NA,NA,NA,NA,NA
"PDS2014","EX","PDS2014-0030",NA,820,"PDS-FAKEDRUG-111",20,NA,"mg/kg","SUSPENSION","QD","ORAL GAVAGE","ABCD1234",NA,NA,"methocell",NA,NA,NA,"2010-12-23T07:42:34",NA,13,NA,NA,NA,NA,NA,NA,NA
"PDS2014","EX","PDS2014-0030",NA,821,"PDS-FAKEDRUG-111",20,NA,"mg/kg","SUSPENSION","QD","ORAL GAVAGE","ABCD1234",NA,NA,"methocell",NA,NA,NA,"2010-12-24T08:13:10",NA,14,NA,NA,NA,NA,NA,NA,NA
"PDS2014","EX","PDS2014-0030",NA,822,"PDS-FAKEDRUG-111",20,NA,"mg/kg","SUSPENSION","QD","ORAL GAVAGE","ABCD1234",NA,NA,"methocell",NA,NA,NA,"2010-12-25T08:06:51",NA,15,NA,NA,NA,NA,NA,NA,NA
"PDS2014","EX","PDS2014-0030",NA,823,"PDS-FAKEDRUG-111",20,NA,"mg/kg","SUSPENSION","QD","ORAL GAVAGE","ABCD1234",NA,NA,"methocell",NA,NA,NA,"2010-12-26T07:30:06",NA,16,NA,NA,NA,NA,NA,NA,NA
"PDS2014","EX","PDS2014-0030",NA,824,"PDS-FAKEDRUG-111",20,NA,"mg/kg","SUSPENSION","QD","ORAL GAVAGE","ABCD1234",NA,NA,"methocell",NA,NA,NA,"2010-12-27T10:29:40",NA,17,NA,NA,NA,NA,NA,NA,NA
"PDS2014","EX","PDS2014-0030",NA,825,"PDS-FAKEDRUG-111",20,NA,"mg/kg","SUSPENSION","QD","ORAL GAVAGE","ABCD1234",NA,NA,"methocell",NA,NA,NA,"2010-12-28T08:11:48",NA,18,NA,NA,NA,NA,NA,NA,NA
"PDS2014","EX","PDS2014-0030",NA,826,"PDS-FAKEDRUG-111",20,NA,"mg/kg","SUSPENSION","QD","ORAL GAVAGE","ABCD1234",NA,NA,"methocell",NA,NA,NA,"2010-12-29T09:50:34",NA,19,NA,NA,NA,NA,NA,NA,NA
"PDS2014","EX","PDS2014-0030",NA,827,"PDS-FAKEDRUG-111",20,NA,"mg/kg","SUSPENSION","QD","ORAL GAVAGE","ABCD1234",NA,NA,"methocell",NA,NA,NA,"2010-12-30T09:08:13",NA,20,NA,NA,NA,NA,NA,NA,NA
"PDS2014","EX","PDS2014-0030",NA,828,"PDS-FAKEDRUG-111",20,NA,"mg/kg","SUSPENSION","QD","ORAL GAVAGE","ABCD1234",NA,NA,"methocell",NA,NA,NA,"2010-12-31T09:05:36",NA,21,NA,NA,NA,NA,NA,NA,NA
"PDS2014","EX","PDS2014-0030",NA,829,"PDS-FAKEDRUG-111",20,NA,"mg/kg","SUSPENSION","QD","ORAL GAVAGE","ABCD1234",NA,NA,"methocell",NA,NA,NA,"2011-01-01T07:03:39",NA,22,NA,NA,NA,NA,NA,NA,NA
"PDS2014","EX","PDS2014-0030",NA,830,"PDS-FAKEDRUG-111",20,NA,"mg/kg","SUSPENSION","QD","ORAL GAVAGE","ABCD1234",NA,NA,"methocell",NA,NA,NA,"2011-01-02T08:38:56",NA,23,NA,NA,NA,NA,NA,NA,NA
"PDS2014","EX","PDS2014-0030",NA,831,"PDS-FAKEDRUG-111",20,NA,"mg/kg","SUSPENSION","QD","ORAL GAVAGE","ABCD1234",NA,NA,"methocell",NA,NA,NA,"2011-01-03T08:47:37",NA,24,NA,NA,NA,NA,NA,NA,NA
"PDS2014","EX","PDS2014-0030",NA,832,"PDS-FAKEDRUG-111",20,NA,"mg/kg","SUSPENSION","QD","ORAL GAVAGE","ABCD1234",NA,NA,"methocell",NA,NA,NA,"2011-01-04T08:44:20",NA,25,NA,NA,NA,NA,NA,NA,NA
"PDS2014","EX","PDS2014-0030",NA,833,"PDS-FAKEDRUG-111",20,NA,"mg/kg","SUSPENSION","QD","ORAL GAVAGE","ABCD1234",NA,NA,"methocell",NA,NA,NA,"2011-01-05T09:23:24",NA,26,NA,NA,NA,NA,NA,NA,NA
"PDS2014","EX","PDS2014-0030",NA,834,"PDS-FAKEDRUG-111",20,NA,"mg/kg","SUSPENSION","QD","ORAL GAVAGE","ABCD1234",NA,NA,"methocell",NA,NA,NA,"2011-01-06T09:15:59",NA,27,NA,NA,NA,NA,NA,NA,NA
"PDS2014","EX","PDS2014-0030",NA,835,"PDS-FAKEDRUG-111",20,NA,"mg/kg","SUSPENSION","QD","ORAL GAVAGE","ABCD1234",NA,NA,"methocell",NA,NA,NA,"2011-01-07T08:14:50",NA,28,NA,NA,NA,NA,NA,NA,NA
"PDS2014","EX","PDS2014-0030",NA,836,"PDS-FAKEDRUG-111",20,NA,"mg/kg","SUSPENSION","QD","ORAL GAVAGE","ABCD1234",NA,NA,"methocell",NA,NA,NA,"2011-01-08T08:28:50",NA,29,NA,NA,NA,NA,NA,NA,NA
"PDS2014","EX","PDS2014-0030",NA,837,"PDS-FAKEDRUG-111",20,NA,"mg/kg","SUSPENSION","QD","ORAL GAVAGE","ABCD1234",NA,NA,"methocell",NA,NA,NA,"2011-01-09T11:11:47",NA,30,NA,NA,NA,NA,NA,NA,NA
"PDS2014","EX","PDS2014-0031",NA,838,"PDS-FAKEDRUG-111",20,NA,"mg/kg","SUSPENSION","QD","ORAL GAVAGE","ABCD1234",NA,NA,"methocell",NA,NA,NA,"2010-12-11T08:38:22",NA,1,NA,NA,NA,NA,NA,NA,NA
"PDS2014","EX","PDS2014-0031",NA,839,"PDS-FAKEDRUG-111",20,NA,"mg/kg","SUSPENSION","QD","ORAL GAVAGE","ABCD1234",NA,NA,"methocell",NA,NA,NA,"2010-12-12T11:22:30",NA,2,NA,NA,NA,NA,NA,NA,NA
"PDS2014","EX","PDS2014-0031",NA,840,"PDS-FAKEDRUG-111",20,NA,"mg/kg","SUSPENSION","QD","ORAL GAVAGE","ABCD1234",NA,NA,"methocell",NA,NA,NA,"2010-12-13T12:29:37",NA,3,NA,NA,NA,NA,NA,NA,NA
"PDS2014","EX","PDS2014-0031",NA,841,"PDS-FAKEDRUG-111",20,NA,"mg/kg","SUSPENSION","QD","ORAL GAVAGE","ABCD1234",NA,NA,"methocell",NA,NA,NA,"2010-12-14T10:46:01",NA,4,NA,NA,NA,NA,NA,NA,NA
"PDS2014","EX","PDS2014-0031",NA,842,"PDS-FAKEDRUG-111",20,NA,"mg/kg","SUSPENSION","QD","ORAL GAVAGE","ABCD1234",NA,NA,"methocell",NA,NA,NA,"2010-12-15T09:52:00",NA,5,NA,NA,NA,NA,NA,NA,NA
"PDS2014","EX","PDS2014-0031",NA,843,"PDS-FAKEDRUG-111",20,NA,"mg/kg","SUSPENSION","QD","ORAL GAVAGE","ABCD1234",NA,NA,"methocell",NA,NA,NA,"2010-12-16T09:09:10",NA,6,NA,NA,NA,NA,NA,NA,NA
"PDS2014","EX","PDS2014-0031",NA,844,"PDS-FAKEDRUG-111",20,NA,"mg/kg","SUSPENSION","QD","ORAL GAVAGE","ABCD1234",NA,NA,"methocell",NA,NA,NA,"2010-12-17T08:25:43",NA,7,NA,NA,NA,NA,NA,NA,NA
"PDS2014","EX","PDS2014-0031",NA,845,"PDS-FAKEDRUG-111",20,NA,"mg/kg","SUSPENSION","QD","ORAL GAVAGE","ABCD1234",NA,NA,"methocell",NA,NA,NA,"2010-12-18T08:37:36",NA,8,NA,NA,NA,NA,NA,NA,NA
"PDS2014","EX","PDS2014-0031",NA,846,"PDS-FAKEDRUG-111",20,NA,"mg/kg","SUSPENSION","QD","ORAL GAVAGE","ABCD1234",NA,NA,"methocell",NA,NA,NA,"2010-12-19T13:14:45",NA,9,NA,NA,NA,NA,NA,NA,NA
"PDS2014","EX","PDS2014-0031",NA,847,"PDS-FAKEDRUG-111",20,NA,"mg/kg","SUSPENSION","QD","ORAL GAVAGE","ABCD1234",NA,NA,"methocell",NA,NA,NA,"2010-12-20T11:19:54",NA,10,NA,NA,NA,NA,NA,NA,NA
"PDS2014","EX","PDS2014-0031",NA,848,"PDS-FAKEDRUG-111",20,NA,"mg/kg","SUSPENSION","QD","ORAL GAVAGE","ABCD1234",NA,NA,"methocell",NA,NA,NA,"2010-12-21T07:51:55",NA,11,NA,NA,NA,NA,NA,NA,NA
"PDS2014","EX","PDS2014-0031",NA,849,"PDS-FAKEDRUG-111",20,NA,"mg/kg","SUSPENSION","QD","ORAL GAVAGE","ABCD1234",NA,NA,"methocell",NA,NA,NA,"2010-12-22T08:26:18",NA,12,NA,NA,NA,NA,NA,NA,NA
"PDS2014","EX","PDS2014-0031",NA,850,"PDS-FAKEDRUG-111",20,NA,"mg/kg","SUSPENSION","QD","ORAL GAVAGE","ABCD1234",NA,NA,"methocell",NA,NA,NA,"2010-12-23T07:43:52",NA,13,NA,NA,NA,NA,NA,NA,NA
"PDS2014","EX","PDS2014-0031",NA,851,"PDS-FAKEDRUG-111",20,NA,"mg/kg","SUSPENSION","QD","ORAL GAVAGE","ABCD1234",NA,NA,"methocell",NA,NA,NA,"2010-12-24T08:14:48",NA,14,NA,NA,NA,NA,NA,NA,NA
"PDS2014","EX","PDS2014-0031",NA,852,"PDS-FAKEDRUG-111",20,NA,"mg/kg","SUSPENSION","QD","ORAL GAVAGE","ABCD1234",NA,NA,"methocell",NA,NA,NA,"2010-12-25T08:09:25",NA,15,NA,NA,NA,NA,NA,NA,NA
"PDS2014","EX","PDS2014-0031",NA,853,"PDS-FAKEDRUG-111",20,NA,"mg/kg","SUSPENSION","QD","ORAL GAVAGE","ABCD1234",NA,NA,"methocell",NA,NA,NA,"2010-12-26T07:31:55",NA,16,NA,NA,NA,NA,NA,NA,NA
"PDS2014","EX","PDS2014-0031",NA,854,"PDS-FAKEDRUG-111",20,NA,"mg/kg","SUSPENSION","QD","ORAL GAVAGE","ABCD1234",NA,NA,"methocell",NA,NA,NA,"2010-12-27T10:31:59",NA,17,NA,NA,NA,NA,NA,NA,NA
"PDS2014","EX","PDS2014-0031",NA,855,"PDS-FAKEDRUG-111",20,NA,"mg/kg","SUSPENSION","QD","ORAL GAVAGE","ABCD1234",NA,NA,"methocell",NA,NA,NA,"2010-12-28T08:13:29",NA,18,NA,NA,NA,NA,NA,NA,NA
"PDS2014","EX","PDS2014-0031",NA,856,"PDS-FAKEDRUG-111",20,NA,"mg/kg","SUSPENSION","QD","ORAL GAVAGE","ABCD1234",NA,NA,"methocell",NA,NA,NA,"2010-12-29T09:53:27",NA,19,NA,NA,NA,NA,NA,NA,NA
"PDS2014","EX","PDS2014-0031",NA,857,"PDS-FAKEDRUG-111",20,NA,"mg/kg","SUSPENSION","QD","ORAL GAVAGE","ABCD1234",NA,NA,"methocell",NA,NA,NA,"2010-12-30T09:10:19",NA,20,NA,NA,NA,NA,NA,NA,NA
"PDS2014","EX","PDS2014-0031",NA,858,"PDS-FAKEDRUG-111",20,NA,"mg/kg","SUSPENSION","QD","ORAL GAVAGE","ABCD1234",NA,NA,"methocell",NA,NA,NA,"2010-12-31T09:06:55",NA,21,NA,NA,NA,NA,NA,NA,NA
"PDS2014","EX","PDS2014-0031",NA,859,"PDS-FAKEDRUG-111",20,NA,"mg/kg","SUSPENSION","QD","ORAL GAVAGE","ABCD1234",NA,NA,"methocell",NA,NA,NA,"2011-01-01T07:05:49",NA,22,NA,NA,NA,NA,NA,NA,NA
"PDS2014","EX","PDS2014-0031",NA,860,"PDS-FAKEDRUG-111",20,NA,"mg/kg","SUSPENSION","QD","ORAL GAVAGE","ABCD1234",NA,NA,"methocell",NA,NA,NA,"2011-01-02T08:40:41",NA,23,NA,NA,NA,NA,NA,NA,NA
"PDS2014","EX","PDS2014-0031",NA,861,"PDS-FAKEDRUG-111",20,NA,"mg/kg","SUSPENSION","QD","ORAL GAVAGE","ABCD1234",NA,NA,"methocell",NA,NA,NA,"2011-01-03T08:49:25",NA,24,NA,NA,NA,NA,NA,NA,NA
"PDS2014","EX","PDS2014-0031",NA,862,"PDS-FAKEDRUG-111",20,NA,"mg/kg","SUSPENSION","QD","ORAL GAVAGE","ABCD1234",NA,NA,"methocell",NA,NA,NA,"2011-01-04T08:46:30",NA,25,NA,NA,NA,NA,NA,NA,NA
"PDS2014","EX","PDS2014-0031",NA,863,"PDS-FAKEDRUG-111",20,NA,"mg/kg","SUSPENSION","QD","ORAL GAVAGE","ABCD1234",NA,NA,"methocell",NA,NA,NA,"2011-01-05T09:25:50",NA,26,NA,NA,NA,NA,NA,NA,NA
"PDS2014","EX","PDS2014-0031",NA,864,"PDS-FAKEDRUG-111",20,NA,"mg/kg","SUSPENSION","QD","ORAL GAVAGE","ABCD1234",NA,NA,"methocell",NA,NA,NA,"2011-01-06T09:18:19",NA,27,NA,NA,NA,NA,NA,NA,NA
"PDS2014","EX","PDS2014-0031",NA,865,"PDS-FAKEDRUG-111",20,NA,"mg/kg","SUSPENSION","QD","ORAL GAVAGE","ABCD1234",NA,NA,"methocell",NA,NA,NA,"2011-01-07T07:41:04",NA,28,NA,NA,NA,NA,NA,NA,NA
"PDS2014","EX","PDS2014-0031",NA,866,"PDS-FAKEDRUG-111",20,NA,"mg/kg","SUSPENSION","QD","ORAL GAVAGE","ABCD1234",NA,NA,"methocell",NA,NA,NA,"2011-01-08T07:45:25",NA,29,NA,NA,NA,NA,NA,NA,NA
"PDS2014","EX","PDS2014-0032",NA,867,"PDS-FAKEDRUG-111",20,NA,"mg/kg","SUSPENSION","QD","ORAL GAVAGE","ABCD1234",NA,NA,"methocell",NA,NA,NA,"2010-12-11T08:40:23",NA,1,NA,NA,NA,NA,NA,NA,NA
"PDS2014","EX","PDS2014-0032",NA,868,"PDS-FAKEDRUG-111",20,NA,"mg/kg","SUSPENSION","QD","ORAL GAVAGE","ABCD1234",NA,NA,"methocell",NA,NA,NA,"2010-12-12T11:22:08",NA,2,NA,NA,NA,NA,NA,NA,NA
"PDS2014","EX","PDS2014-0032",NA,869,"PDS-FAKEDRUG-111",20,NA,"mg/kg","SUSPENSION","QD","ORAL GAVAGE","ABCD1234",NA,NA,"methocell",NA,NA,NA,"2010-12-13T12:28:54",NA,3,NA,NA,NA,NA,NA,NA,NA
"PDS2014","EX","PDS2014-0032",NA,870,"PDS-FAKEDRUG-111",20,NA,"mg/kg","SUSPENSION","QD","ORAL GAVAGE","ABCD1234",NA,NA,"methocell",NA,NA,NA,"2010-12-14T10:45:40",NA,4,NA,NA,NA,NA,NA,NA,NA
"PDS2014","EX","PDS2014-0032",NA,871,"PDS-FAKEDRUG-111",20,NA,"mg/kg","SUSPENSION","QD","ORAL GAVAGE","ABCD1234",NA,NA,"methocell",NA,NA,NA,"2010-12-15T09:52:29",NA,5,NA,NA,NA,NA,NA,NA,NA
"PDS2014","EX","PDS2014-0032",NA,872,"PDS-FAKEDRUG-111",20,NA,"mg/kg","SUSPENSION","QD","ORAL GAVAGE","ABCD1234",NA,NA,"methocell",NA,NA,NA,"2010-12-16T09:08:40",NA,6,NA,NA,NA,NA,NA,NA,NA
"PDS2014","EX","PDS2014-0032",NA,873,"PDS-FAKEDRUG-111",20,NA,"mg/kg","SUSPENSION","QD","ORAL GAVAGE","ABCD1234",NA,NA,"methocell",NA,NA,NA,"2010-12-17T08:26:19",NA,7,NA,NA,NA,NA,NA,NA,NA
"PDS2014","EX","PDS2014-0032",NA,874,"PDS-FAKEDRUG-111",20,NA,"mg/kg","SUSPENSION","QD","ORAL GAVAGE","ABCD1234",NA,NA,"methocell",NA,NA,NA,"2010-12-18T08:37:22",NA,8,NA,NA,NA,NA,NA,NA,NA
"PDS2014","EX","PDS2014-0032",NA,875,"PDS-FAKEDRUG-111",20,NA,"mg/kg","SUSPENSION","QD","ORAL GAVAGE","ABCD1234",NA,NA,"methocell",NA,NA,NA,"2010-12-19T13:13:54",NA,9,NA,NA,NA,NA,NA,NA,NA
"PDS2014","EX","PDS2014-0032",NA,876,"PDS-FAKEDRUG-111",20,NA,"mg/kg","SUSPENSION","QD","ORAL GAVAGE","ABCD1234",NA,NA,"methocell",NA,NA,NA,"2010-12-20T11:20:31",NA,10,NA,NA,NA,NA,NA,NA,NA
"PDS2014","EX","PDS2014-0032",NA,877,"PDS-FAKEDRUG-111",20,NA,"mg/kg","SUSPENSION","QD","ORAL GAVAGE","ABCD1234",NA,NA,"methocell",NA,NA,NA,"2010-12-21T07:52:41",NA,11,NA,NA,NA,NA,NA,NA,NA
"PDS2014","EX","PDS2014-0032",NA,878,"PDS-FAKEDRUG-111",20,NA,"mg/kg","SUSPENSION","QD","ORAL GAVAGE","ABCD1234",NA,NA,"methocell",NA,NA,NA,"2010-12-22T08:26:03",NA,12,NA,NA,NA,NA,NA,NA,NA
"PDS2014","EX","PDS2014-0032",NA,879,"PDS-FAKEDRUG-111",20,NA,"mg/kg","SUSPENSION","QD","ORAL GAVAGE","ABCD1234",NA,NA,"methocell",NA,NA,NA,"2010-12-23T07:44:26",NA,13,NA,NA,NA,NA,NA,NA,NA
"PDS2014","EX","PDS2014-0032",NA,880,"PDS-FAKEDRUG-111",20,NA,"mg/kg","SUSPENSION","QD","ORAL GAVAGE","ABCD1234",NA,NA,"methocell",NA,NA,NA,"2010-12-24T08:15:03",NA,14,NA,NA,NA,NA,NA,NA,NA
"PDS2014","EX","PDS2014-0032",NA,881,"PDS-FAKEDRUG-111",20,NA,"mg/kg","SUSPENSION","QD","ORAL GAVAGE","ABCD1234",NA,NA,"methocell",NA,NA,NA,"2010-12-25T08:08:52",NA,15,NA,NA,NA,NA,NA,NA,NA
"PDS2014","EX","PDS2014-0032",NA,882,"PDS-FAKEDRUG-111",20,NA,"mg/kg","SUSPENSION","QD","ORAL GAVAGE","ABCD1234",NA,NA,"methocell",NA,NA,NA,"2010-12-26T07:31:37",NA,16,NA,NA,NA,NA,NA,NA,NA
"PDS2014","EX","PDS2014-0032",NA,883,"PDS-FAKEDRUG-111",20,NA,"mg/kg","SUSPENSION","QD","ORAL GAVAGE","ABCD1234",NA,NA,"methocell",NA,NA,NA,"2010-12-27T10:32:25",NA,17,NA,NA,NA,NA,NA,NA,NA
"PDS2014","EX","PDS2014-0032",NA,884,"PDS-FAKEDRUG-111",20,NA,"mg/kg","SUSPENSION","QD","ORAL GAVAGE","ABCD1234",NA,NA,"methocell",NA,NA,NA,"2010-12-28T08:14:13",NA,18,NA,NA,NA,NA,NA,NA,NA
"PDS2014","EX","PDS2014-0032",NA,885,"PDS-FAKEDRUG-111",20,NA,"mg/kg","SUSPENSION","QD","ORAL GAVAGE","ABCD1234",NA,NA,"methocell",NA,NA,NA,"2010-12-29T09:52:36",NA,19,NA,NA,NA,NA,NA,NA,NA
"PDS2014","EX","PDS2014-0032",NA,886,"PDS-FAKEDRUG-111",20,NA,"mg/kg","SUSPENSION","QD","ORAL GAVAGE","ABCD1234",NA,NA,"methocell",NA,NA,NA,"2010-12-30T09:10:41",NA,20,NA,NA,NA,NA,NA,NA,NA
"PDS2014","EX","PDS2014-0032",NA,887,"PDS-FAKEDRUG-111",20,NA,"mg/kg","SUSPENSION","QD","ORAL GAVAGE","ABCD1234",NA,NA,"methocell",NA,NA,NA,"2010-12-31T09:07:13",NA,21,NA,NA,NA,NA,NA,NA,NA
"PDS2014","EX","PDS2014-0032",NA,888,"PDS-FAKEDRUG-111",20,NA,"mg/kg","SUSPENSION","QD","ORAL GAVAGE","ABCD1234",NA,NA,"methocell",NA,NA,NA,"2011-01-01T07:05:26",NA,22,NA,NA,NA,NA,NA,NA,NA
"PDS2014","EX","PDS2014-0032",NA,889,"PDS-FAKEDRUG-111",20,NA,"mg/kg","SUSPENSION","QD","ORAL GAVAGE","ABCD1234",NA,NA,"methocell",NA,NA,NA,"2011-01-02T08:41:01",NA,23,NA,NA,NA,NA,NA,NA,NA
"PDS2014","EX","PDS2014-0032",NA,890,"PDS-FAKEDRUG-111",20,NA,"mg/kg","SUSPENSION","QD","ORAL GAVAGE","ABCD1234",NA,NA,"methocell",NA,NA,NA,"2011-01-03T08:49:12",NA,24,NA,NA,NA,NA,NA,NA,NA
"PDS2014","EX","PDS2014-0032",NA,891,"PDS-FAKEDRUG-111",20,NA,"mg/kg","SUSPENSION","QD","ORAL GAVAGE","ABCD1234",NA,NA,"methocell",NA,NA,NA,"2011-01-04T08:46:46",NA,25,NA,NA,NA,NA,NA,NA,NA
"PDS2014","EX","PDS2014-0032",NA,892,"PDS-FAKEDRUG-111",20,NA,"mg/kg","SUSPENSION","QD","ORAL GAVAGE","ABCD1234",NA,NA,"methocell",NA,NA,NA,"2011-01-05T09:26:16",NA,26,NA,NA,NA,NA,NA,NA,NA
"PDS2014","EX","PDS2014-0032",NA,893,"PDS-FAKEDRUG-111",20,NA,"mg/kg","SUSPENSION","QD","ORAL GAVAGE","ABCD1234",NA,NA,"methocell",NA,NA,NA,"2011-01-06T09:18:48",NA,27,NA,NA,NA,NA,NA,NA,NA
"PDS2014","EX","PDS2014-0032",NA,894,"PDS-FAKEDRUG-111",20,NA,"mg/kg","SUSPENSION","QD","ORAL GAVAGE","ABCD1234",NA,NA,"methocell",NA,NA,NA,"2011-01-07T07:41:27",NA,28,NA,NA,NA,NA,NA,NA,NA
"PDS2014","EX","PDS2014-0032",NA,895,"PDS-FAKEDRUG-111",20,NA,"mg/kg","SUSPENSION","QD","ORAL GAVAGE","ABCD1234",NA,NA,"methocell",NA,NA,NA,"2011-01-08T07:47:12",NA,29,NA,NA,NA,NA,NA,NA,NA
"PDS2014","EX","PDS2014-0033",NA,896,"PDS-FAKEDRUG-111",20,NA,"mg/kg","SUSPENSION","QD","ORAL GAVAGE","ABCD1234",NA,NA,"methocell",NA,NA,NA,"2010-12-11T08:42:24",NA,1,NA,NA,NA,NA,NA,NA,NA
"PDS2014","EX","PDS2014-0033",NA,897,"PDS-FAKEDRUG-111",20,NA,"mg/kg","SUSPENSION","QD","ORAL GAVAGE","ABCD1234",NA,NA,"methocell",NA,NA,NA,"2010-12-12T11:23:10",NA,2,NA,NA,NA,NA,NA,NA,NA
"PDS2014","EX","PDS2014-0033",NA,898,"PDS-FAKEDRUG-111",20,NA,"mg/kg","SUSPENSION","QD","ORAL GAVAGE","ABCD1234",NA,NA,"methocell",NA,NA,NA,"2010-12-13T12:29:15",NA,3,NA,NA,NA,NA,NA,NA,NA
"PDS2014","EX","PDS2014-0033",NA,899,"PDS-FAKEDRUG-111",20,NA,"mg/kg","SUSPENSION","QD","ORAL GAVAGE","ABCD1234",NA,NA,"methocell",NA,NA,NA,"2010-12-14T10:45:09",NA,4,NA,NA,NA,NA,NA,NA,NA
"PDS2014","EX","PDS2014-0033",NA,900,"PDS-FAKEDRUG-111",20,NA,"mg/kg","SUSPENSION","QD","ORAL GAVAGE","ABCD1234",NA,NA,"methocell",NA,NA,NA,"2010-12-15T09:52:13",NA,5,NA,NA,NA,NA,NA,NA,NA
"PDS2014","EX","PDS2014-0033",NA,901,"PDS-FAKEDRUG-111",20,NA,"mg/kg","SUSPENSION","QD","ORAL GAVAGE","ABCD1234",NA,NA,"methocell",NA,NA,NA,"2010-12-16T09:08:55",NA,6,NA,NA,NA,NA,NA,NA,NA
"PDS2014","EX","PDS2014-0033",NA,902,"PDS-FAKEDRUG-111",20,NA,"mg/kg","SUSPENSION","QD","ORAL GAVAGE","ABCD1234",NA,NA,"methocell",NA,NA,NA,"2010-12-17T08:26:43",NA,7,NA,NA,NA,NA,NA,NA,NA
"PDS2014","EX","PDS2014-0033",NA,903,"PDS-FAKEDRUG-111",20,NA,"mg/kg","SUSPENSION","QD","ORAL GAVAGE","ABCD1234",NA,NA,"methocell",NA,NA,NA,"2010-12-18T08:37:02",NA,8,NA,NA,NA,NA,NA,NA,NA
"PDS2014","EX","PDS2014-0033",NA,904,"PDS-FAKEDRUG-111",20,NA,"mg/kg","SUSPENSION","QD","ORAL GAVAGE","ABCD1234",NA,NA,"methocell",NA,NA,NA,"2010-12-19T13:14:24",NA,9,NA,NA,NA,NA,NA,NA,NA
"PDS2014","EX","PDS2014-0033",NA,905,"PDS-FAKEDRUG-111",20,NA,"mg/kg","SUSPENSION","QD","ORAL GAVAGE","ABCD1234",NA,NA,"methocell",NA,NA,NA,"2010-12-20T11:20:13",NA,10,NA,NA,NA,NA,NA,NA,NA
"PDS2014","EX","PDS2014-0033",NA,906,"PDS-FAKEDRUG-111",20,NA,"mg/kg","SUSPENSION","QD","ORAL GAVAGE","ABCD1234",NA,NA,"methocell",NA,NA,NA,"2010-12-21T07:52:17",NA,11,NA,NA,NA,NA,NA,NA,NA
"PDS2014","EX","PDS2014-0033",NA,907,"PDS-FAKEDRUG-111",20,NA,"mg/kg","SUSPENSION","QD","ORAL GAVAGE","ABCD1234",NA,NA,"methocell",NA,NA,NA,"2010-12-22T08:25:46",NA,12,NA,NA,NA,NA,NA,NA,NA
"PDS2014","EX","PDS2014-0033",NA,908,"PDS-FAKEDRUG-111",20,NA,"mg/kg","SUSPENSION","QD","ORAL GAVAGE","ABCD1234",NA,NA,"methocell",NA,NA,NA,"2010-12-23T07:44:11",NA,13,NA,NA,NA,NA,NA,NA,NA
"PDS2014","EX","PDS2014-0033",NA,909,"PDS-FAKEDRUG-111",20,NA,"mg/kg","SUSPENSION","QD","ORAL GAVAGE","ABCD1234",NA,NA,"methocell",NA,NA,NA,"2010-12-24T08:14:32",NA,14,NA,NA,NA,NA,NA,NA,NA
"PDS2014","EX","PDS2014-0033",NA,910,"PDS-FAKEDRUG-111",20,NA,"mg/kg","SUSPENSION","QD","ORAL GAVAGE","ABCD1234",NA,NA,"methocell",NA,NA,NA,"2010-12-25T08:09:08",NA,15,NA,NA,NA,NA,NA,NA,NA
"PDS2014","EX","PDS2014-0033",NA,911,"PDS-FAKEDRUG-111",20,NA,"mg/kg","SUSPENSION","QD","ORAL GAVAGE","ABCD1234",NA,NA,"methocell",NA,NA,NA,"2010-12-26T07:31:20",NA,16,NA,NA,NA,NA,NA,NA,NA
"PDS2014","EX","PDS2014-0033",NA,912,"PDS-FAKEDRUG-111",20,NA,"mg/kg","SUSPENSION","QD","ORAL GAVAGE","ABCD1234",NA,NA,"methocell",NA,NA,NA,"2010-12-27T10:31:38",NA,17,NA,NA,NA,NA,NA,NA,NA
"PDS2014","EX","PDS2014-0033",NA,913,"PDS-FAKEDRUG-111",20,NA,"mg/kg","SUSPENSION","QD","ORAL GAVAGE","ABCD1234",NA,NA,"methocell",NA,NA,NA,"2010-12-28T08:13:50",NA,18,NA,NA,NA,NA,NA,NA,NA
"PDS2014","EX","PDS2014-0033",NA,914,"PDS-FAKEDRUG-111",20,NA,"mg/kg","SUSPENSION","QD","ORAL GAVAGE","ABCD1234",NA,NA,"methocell",NA,NA,NA,"2010-12-29T09:53:03",NA,19,NA,NA,NA,NA,NA,NA,NA
"PDS2014","EX","PDS2014-0033",NA,915,"PDS-FAKEDRUG-111",20,NA,"mg/kg","SUSPENSION","QD","ORAL GAVAGE","ABCD1234",NA,NA,"methocell",NA,NA,NA,"2010-12-30T09:11:04",NA,20,NA,NA,NA,NA,NA,NA,NA
"PDS2014","EX","PDS2014-0033",NA,916,"PDS-FAKEDRUG-111",20,NA,"mg/kg","SUSPENSION","QD","ORAL GAVAGE","ABCD1234",NA,NA,"methocell",NA,NA,NA,"2010-12-31T09:06:38",NA,21,NA,NA,NA,NA,NA,NA,NA
"PDS2014","EX","PDS2014-0033",NA,917,"PDS-FAKEDRUG-111",20,NA,"mg/kg","SUSPENSION","QD","ORAL GAVAGE","ABCD1234",NA,NA,"methocell",NA,NA,NA,"2011-01-01T07:05:09",NA,22,NA,NA,NA,NA,NA,NA,NA
"PDS2014","EX","PDS2014-0033",NA,918,"PDS-FAKEDRUG-111",20,NA,"mg/kg","SUSPENSION","QD","ORAL GAVAGE","ABCD1234",NA,NA,"methocell",NA,NA,NA,"2011-01-02T08:41:19",NA,23,NA,NA,NA,NA,NA,NA,NA
"PDS2014","EX","PDS2014-0033",NA,919,"PDS-FAKEDRUG-111",20,NA,"mg/kg","SUSPENSION","QD","ORAL GAVAGE","ABCD1234",NA,NA,"methocell",NA,NA,NA,"2011-01-03T08:48:49",NA,24,NA,NA,NA,NA,NA,NA,NA
"PDS2014","EX","PDS2014-0033",NA,920,"PDS-FAKEDRUG-111",20,NA,"mg/kg","SUSPENSION","QD","ORAL GAVAGE","ABCD1234",NA,NA,"methocell",NA,NA,NA,"2011-01-04T08:46:12",NA,25,NA,NA,NA,NA,NA,NA,NA
"PDS2014","EX","PDS2014-0033",NA,921,"PDS-FAKEDRUG-111",20,NA,"mg/kg","SUSPENSION","QD","ORAL GAVAGE","ABCD1234",NA,NA,"methocell",NA,NA,NA,"2011-01-05T09:25:29",NA,26,NA,NA,NA,NA,NA,NA,NA
"PDS2014","EX","PDS2014-0033",NA,922,"PDS-FAKEDRUG-111",20,NA,"mg/kg","SUSPENSION","QD","ORAL GAVAGE","ABCD1234",NA,NA,"methocell",NA,NA,NA,"2011-01-06T09:17:49",NA,27,NA,NA,NA,NA,NA,NA,NA
"PDS2014","EX","PDS2014-0033",NA,923,"PDS-FAKEDRUG-111",20,NA,"mg/kg","SUSPENSION","QD","ORAL GAVAGE","ABCD1234",NA,NA,"methocell",NA,NA,NA,"2011-01-07T07:41:53",NA,28,NA,NA,NA,NA,NA,NA,NA
"PDS2014","EX","PDS2014-0033",NA,924,"PDS-FAKEDRUG-111",20,NA,"mg/kg","SUSPENSION","QD","ORAL GAVAGE","ABCD1234",NA,NA,"methocell",NA,NA,NA,"2011-01-08T07:49:20",NA,29,NA,NA,NA,NA,NA,NA,NA
"PDS2014","EX","PDS2014-0041",NA,925,"PDS-FAKEDRUG-111",200,NA,"mg/kg","SUSPENSION","QD","ORAL GAVAGE","ABCD1234",NA,NA,"methocell",NA,NA,NA,"2010-12-11T10:16:25",NA,1,NA,NA,NA,NA,NA,NA,NA
"PDS2014","EX","PDS2014-0041",NA,926,"PDS-FAKEDRUG-111",200,NA,"mg/kg","SUSPENSION","QD","ORAL GAVAGE","ABCD1234",NA,NA,"methocell",NA,NA,NA,"2010-12-12T11:32:45",NA,2,NA,NA,NA,NA,NA,NA,NA
"PDS2014","EX","PDS2014-0041",NA,927,"PDS-FAKEDRUG-111",200,NA,"mg/kg","SUSPENSION","QD","ORAL GAVAGE","ABCD1234",NA,NA,"methocell",NA,NA,NA,"2010-12-13T12:37:31",NA,3,NA,NA,NA,NA,NA,NA,NA
"PDS2014","EX","PDS2014-0041",NA,928,"PDS-FAKEDRUG-111",200,NA,"mg/kg","SUSPENSION","QD","ORAL GAVAGE","ABCD1234",NA,NA,"methocell",NA,NA,NA,"2010-12-14T10:54:29",NA,4,NA,NA,NA,NA,NA,NA,NA
"PDS2014","EX","PDS2014-0041",NA,929,"PDS-FAKEDRUG-111",200,NA,"mg/kg","SUSPENSION","QD","ORAL GAVAGE","ABCD1234",NA,NA,"methocell",NA,NA,NA,"2010-12-15T09:58:46",NA,5,NA,NA,NA,NA,NA,NA,NA
"PDS2014","EX","PDS2014-0041",NA,930,"PDS-FAKEDRUG-111",200,NA,"mg/kg","SUSPENSION","QD","ORAL GAVAGE","ABCD1234",NA,NA,"methocell",NA,NA,NA,"2010-12-16T09:14:41",NA,6,NA,NA,NA,NA,NA,NA,NA
"PDS2014","EX","PDS2014-0041",NA,931,"PDS-FAKEDRUG-111",200,NA,"mg/kg","SUSPENSION","QD","ORAL GAVAGE","ABCD1234",NA,NA,"methocell",NA,NA,NA,"2010-12-17T08:37:37",NA,7,NA,NA,NA,NA,NA,NA,NA
"PDS2014","EX","PDS2014-0041",NA,932,"PDS-FAKEDRUG-111",200,NA,"mg/kg","SUSPENSION","QD","ORAL GAVAGE","ABCD1234",NA,NA,"methocell",NA,NA,NA,"2010-12-18T08:47:50",NA,8,NA,NA,NA,NA,NA,NA,NA
"PDS2014","EX","PDS2014-0041",NA,933,"PDS-FAKEDRUG-111",200,NA,"mg/kg","SUSPENSION","QD","ORAL GAVAGE","ABCD1234",NA,NA,"methocell",NA,NA,NA,"2010-12-19T13:30:36",NA,9,NA,NA,NA,NA,NA,NA,NA
"PDS2014","EX","PDS2014-0041",NA,934,"PDS-FAKEDRUG-111",200,NA,"mg/kg","SUSPENSION","QD","ORAL GAVAGE","ABCD1234",NA,NA,"methocell",NA,NA,NA,"2010-12-20T11:28:14",NA,10,NA,NA,NA,NA,NA,NA,NA
"PDS2014","EX","PDS2014-0041",NA,935,"PDS-FAKEDRUG-111",200,NA,"mg/kg","SUSPENSION","QD","ORAL GAVAGE","ABCD1234",NA,NA,"methocell",NA,NA,NA,"2010-12-21T08:05:06",NA,11,NA,NA,NA,NA,NA,NA,NA
"PDS2014","EX","PDS2014-0041",NA,936,"PDS-FAKEDRUG-111",200,NA,"mg/kg","SUSPENSION","QD","ORAL GAVAGE","ABCD1234",NA,NA,"methocell",NA,NA,NA,"2010-12-22T08:32:01",NA,12,NA,NA,NA,NA,NA,NA,NA
"PDS2014","EX","PDS2014-0041",NA,937,"PDS-FAKEDRUG-111",200,NA,"mg/kg","SUSPENSION","QD","ORAL GAVAGE","ABCD1234",NA,NA,"methocell",NA,NA,NA,"2010-12-23T08:00:41",NA,13,NA,NA,NA,NA,NA,NA,NA
"PDS2014","EX","PDS2014-0041",NA,938,"PDS-FAKEDRUG-111",200,NA,"mg/kg","SUSPENSION","QD","ORAL GAVAGE","ABCD1234",NA,NA,"methocell",NA,NA,NA,"2010-12-24T08:22:49",NA,14,NA,NA,NA,NA,NA,NA,NA
"PDS2014","EX","PDS2014-0041",NA,939,"PDS-FAKEDRUG-111",200,NA,"mg/kg","SUSPENSION","QD","ORAL GAVAGE","ABCD1234",NA,NA,"methocell",NA,NA,NA,"2010-12-25T08:24:45",NA,15,NA,NA,NA,NA,NA,NA,NA
"PDS2014","EX","PDS2014-0041",NA,940,"PDS-FAKEDRUG-111",200,NA,"mg/kg","SUSPENSION","QD","ORAL GAVAGE","ABCD1234",NA,NA,"methocell",NA,NA,NA,"2010-12-26T07:43:11",NA,16,NA,NA,NA,NA,NA,NA,NA
"PDS2014","EX","PDS2014-0041",NA,941,"PDS-FAKEDRUG-111",200,NA,"mg/kg","SUSPENSION","QD","ORAL GAVAGE","ABCD1234",NA,NA,"methocell",NA,NA,NA,"2010-12-27T10:39:46",NA,17,NA,NA,NA,NA,NA,NA,NA
"PDS2014","EX","PDS2014-0041",NA,942,"PDS-FAKEDRUG-111",200,NA,"mg/kg","SUSPENSION","QD","ORAL GAVAGE","ABCD1234",NA,NA,"methocell",NA,NA,NA,"2010-12-28T08:20:32",NA,18,NA,NA,NA,NA,NA,NA,NA
"PDS2014","EX","PDS2014-0041",NA,943,"PDS-FAKEDRUG-111",200,NA,"mg/kg","SUSPENSION","QD","ORAL GAVAGE","ABCD1234",NA,NA,"methocell",NA,NA,NA,"2010-12-29T10:02:11",NA,19,NA,NA,NA,NA,NA,NA,NA
"PDS2014","EX","PDS2014-0041",NA,944,"PDS-FAKEDRUG-111",200,NA,"mg/kg","SUSPENSION","QD","ORAL GAVAGE","ABCD1234",NA,NA,"methocell",NA,NA,NA,"2010-12-30T09:18:29",NA,20,NA,NA,NA,NA,NA,NA,NA
"PDS2014","EX","PDS2014-0041",NA,945,"PDS-FAKEDRUG-111",200,NA,"mg/kg","SUSPENSION","QD","ORAL GAVAGE","ABCD1234",NA,NA,"methocell",NA,NA,NA,"2010-12-31T09:14:08",NA,21,NA,NA,NA,NA,NA,NA,NA
"PDS2014","EX","PDS2014-0041",NA,946,"PDS-FAKEDRUG-111",200,NA,"mg/kg","SUSPENSION","QD","ORAL GAVAGE","ABCD1234",NA,NA,"methocell",NA,NA,NA,"2011-01-01T07:12:50",NA,22,NA,NA,NA,NA,NA,NA,NA
"PDS2014","EX","PDS2014-0041",NA,947,"PDS-FAKEDRUG-111",200,NA,"mg/kg","SUSPENSION","QD","ORAL GAVAGE","ABCD1234",NA,NA,"methocell",NA,NA,NA,"2011-01-02T10:43:30",NA,23,NA,NA,NA,NA,NA,NA,NA
"PDS2014","EX","PDS2014-0041",NA,948,"PDS-FAKEDRUG-111",200,NA,"mg/kg","SUSPENSION","QD","ORAL GAVAGE","ABCD1234",NA,NA,"methocell",NA,NA,NA,"2011-01-03T09:21:15",NA,24,NA,NA,NA,NA,NA,NA,NA
"PDS2014","EX","PDS2014-0041",NA,949,"PDS-FAKEDRUG-111",200,NA,"mg/kg","SUSPENSION","QD","ORAL GAVAGE","ABCD1234",NA,NA,"methocell",NA,NA,NA,"2011-01-04T08:57:24",NA,25,NA,NA,NA,NA,NA,NA,NA
"PDS2014","EX","PDS2014-0041",NA,950,"PDS-FAKEDRUG-111",200,NA,"mg/kg","SUSPENSION","QD","ORAL GAVAGE","ABCD1234",NA,NA,"methocell",NA,NA,NA,"2011-01-05T09:34:26",NA,26,NA,NA,NA,NA,NA,NA,NA
"PDS2014","EX","PDS2014-0041",NA,951,"PDS-FAKEDRUG-111",200,NA,"mg/kg","SUSPENSION","QD","ORAL GAVAGE","ABCD1234",NA,NA,"methocell",NA,NA,NA,"2011-01-06T09:26:29",NA,27,NA,NA,NA,NA,NA,NA,NA
"PDS2014","EX","PDS2014-0041",NA,952,"PDS-FAKEDRUG-111",200,NA,"mg/kg","SUSPENSION","QD","ORAL GAVAGE","ABCD1234",NA,NA,"methocell",NA,NA,NA,"2011-01-07T08:24:38",NA,28,NA,NA,NA,NA,NA,NA,NA
"PDS2014","EX","PDS2014-0041",NA,953,"PDS-FAKEDRUG-111",200,NA,"mg/kg","SUSPENSION","QD","ORAL GAVAGE","ABCD1234",NA,NA,"methocell",NA,NA,NA,"2011-01-08T08:37:33",NA,29,NA,NA,NA,NA,NA,NA,NA
"PDS2014","EX","PDS2014-0041",NA,954,"PDS-FAKEDRUG-111",200,NA,"mg/kg","SUSPENSION","QD","ORAL GAVAGE","ABCD1234",NA,NA,"methocell",NA,NA,NA,"2011-01-09T08:21:36",NA,30,NA,NA,NA,NA,NA,NA,NA
"PDS2014","EX","PDS2014-0042",NA,955,"PDS-FAKEDRUG-111",200,NA,"mg/kg","SUSPENSION","QD","ORAL GAVAGE","ABCD1234",NA,NA,"methocell",NA,NA,NA,"2010-12-11T10:18:06",NA,1,NA,NA,NA,NA,NA,NA,NA
"PDS2014","EX","PDS2014-0042",NA,956,"PDS-FAKEDRUG-111",200,NA,"mg/kg","SUSPENSION","QD","ORAL GAVAGE","ABCD1234",NA,NA,"methocell",NA,NA,NA,"2010-12-12T11:33:45",NA,2,NA,NA,NA,NA,NA,NA,NA
"PDS2014","EX","PDS2014-0042",NA,957,"PDS-FAKEDRUG-111",200,NA,"mg/kg","SUSPENSION","QD","ORAL GAVAGE","ABCD1234",NA,NA,"methocell",NA,NA,NA,"2010-12-13T12:37:51",NA,3,NA,NA,NA,NA,NA,NA,NA
"PDS2014","EX","PDS2014-0042",NA,958,"PDS-FAKEDRUG-111",200,NA,"mg/kg","SUSPENSION","QD","ORAL GAVAGE","ABCD1234",NA,NA,"methocell",NA,NA,NA,"2010-12-14T10:55:08",NA,4,NA,NA,NA,NA,NA,NA,NA
"PDS2014","EX","PDS2014-0042",NA,959,"PDS-FAKEDRUG-111",200,NA,"mg/kg","SUSPENSION","QD","ORAL GAVAGE","ABCD1234",NA,NA,"methocell",NA,NA,NA,"2010-12-15T09:57:53",NA,5,NA,NA,NA,NA,NA,NA,NA
"PDS2014","EX","PDS2014-0042",NA,960,"PDS-FAKEDRUG-111",200,NA,"mg/kg","SUSPENSION","QD","ORAL GAVAGE","ABCD1234",NA,NA,"methocell",NA,NA,NA,"2010-12-16T09:15:28",NA,6,NA,NA,NA,NA,NA,NA,NA
"PDS2014","EX","PDS2014-0042",NA,961,"PDS-FAKEDRUG-111",200,NA,"mg/kg","SUSPENSION","QD","ORAL GAVAGE","ABCD1234",NA,NA,"methocell",NA,NA,NA,"2010-12-17T08:36:48",NA,7,NA,NA,NA,NA,NA,NA,NA
"PDS2014","EX","PDS2014-0042",NA,962,"PDS-FAKEDRUG-111",200,NA,"mg/kg","SUSPENSION","QD","ORAL GAVAGE","ABCD1234",NA,NA,"methocell",NA,NA,NA,"2010-12-18T08:46:34",NA,8,NA,NA,NA,NA,NA,NA,NA
"PDS2014","EX","PDS2014-0042",NA,963,"PDS-FAKEDRUG-111",200,NA,"mg/kg","SUSPENSION","QD","ORAL GAVAGE","ABCD1234",NA,NA,"methocell",NA,NA,NA,"2010-12-19T13:30:17",NA,9,NA,NA,NA,NA,NA,NA,NA
"PDS2014","EX","PDS2014-0042",NA,964,"PDS-FAKEDRUG-111",200,NA,"mg/kg","SUSPENSION","QD","ORAL GAVAGE","ABCD1234",NA,NA,"methocell",NA,NA,NA,"2010-12-20T11:28:33",NA,10,NA,NA,NA,NA,NA,NA,NA
"PDS2014","EX","PDS2014-0042",NA,965,"PDS-FAKEDRUG-111",200,NA,"mg/kg","SUSPENSION","QD","ORAL GAVAGE","ABCD1234",NA,NA,"methocell",NA,NA,NA,"2010-12-21T08:05:56",NA,11,NA,NA,NA,NA,NA,NA,NA
"PDS2014","EX","PDS2014-0042",NA,966,"PDS-FAKEDRUG-111",200,NA,"mg/kg","SUSPENSION","QD","ORAL GAVAGE","ABCD1234",NA,NA,"methocell",NA,NA,NA,"2010-12-22T08:32:33",NA,12,NA,NA,NA,NA,NA,NA,NA
"PDS2014","EX","PDS2014-0042",NA,967,"PDS-FAKEDRUG-111",200,NA,"mg/kg","SUSPENSION","QD","ORAL GAVAGE","ABCD1234",NA,NA,"methocell",NA,NA,NA,"2010-12-23T08:00:59",NA,13,NA,NA,NA,NA,NA,NA,NA
"PDS2014","EX","PDS2014-0042",NA,968,"PDS-FAKEDRUG-111",200,NA,"mg/kg","SUSPENSION","QD","ORAL GAVAGE","ABCD1234",NA,NA,"methocell",NA,NA,NA,"2010-12-24T08:22:28",NA,14,NA,NA,NA,NA,NA,NA,NA
"PDS2014","EX","PDS2014-0042",NA,969,"PDS-FAKEDRUG-111",200,NA,"mg/kg","SUSPENSION","QD","ORAL GAVAGE","ABCD1234",NA,NA,"methocell",NA,NA,NA,"2010-12-25T08:23:15",NA,15,NA,NA,NA,NA,NA,NA,NA
"PDS2014","EX","PDS2014-0042",NA,970,"PDS-FAKEDRUG-111",200,NA,"mg/kg","SUSPENSION","QD","ORAL GAVAGE","ABCD1234",NA,NA,"methocell",NA,NA,NA,"2010-12-26T07:39:12",NA,16,NA,NA,NA,NA,NA,NA,NA
"PDS2014","EX","PDS2014-0042",NA,971,"PDS-FAKEDRUG-111",200,NA,"mg/kg","SUSPENSION","QD","ORAL GAVAGE","ABCD1234",NA,NA,"methocell",NA,NA,NA,"2010-12-27T10:39:08",NA,17,NA,NA,NA,NA,NA,NA,NA
"PDS2014","EX","PDS2014-0042",NA,972,"PDS-FAKEDRUG-111",200,NA,"mg/kg","SUSPENSION","QD","ORAL GAVAGE","ABCD1234",NA,NA,"methocell",NA,NA,NA,"2010-12-28T08:21:25",NA,18,NA,NA,NA,NA,NA,NA,NA
"PDS2014","EX","PDS2014-0042",NA,973,"PDS-FAKEDRUG-111",200,NA,"mg/kg","SUSPENSION","QD","ORAL GAVAGE","ABCD1234",NA,NA,"methocell",NA,NA,NA,"2010-12-29T10:02:51",NA,19,NA,NA,NA,NA,NA,NA,NA
"PDS2014","EX","PDS2014-0042",NA,974,"PDS-FAKEDRUG-111",200,NA,"mg/kg","SUSPENSION","QD","ORAL GAVAGE","ABCD1234",NA,NA,"methocell",NA,NA,NA,"2010-12-30T09:17:46",NA,20,NA,NA,NA,NA,NA,NA,NA
"PDS2014","EX","PDS2014-0042",NA,975,"PDS-FAKEDRUG-111",200,NA,"mg/kg","SUSPENSION","QD","ORAL GAVAGE","ABCD1234",NA,NA,"methocell",NA,NA,NA,"2010-12-31T09:12:35",NA,21,NA,NA,NA,NA,NA,NA,NA
"PDS2014","EX","PDS2014-0042",NA,976,"PDS-FAKEDRUG-111",200,NA,"mg/kg","SUSPENSION","QD","ORAL GAVAGE","ABCD1234",NA,NA,"methocell",NA,NA,NA,"2011-01-01T07:12:16",NA,22,NA,NA,NA,NA,NA,NA,NA
"PDS2014","EX","PDS2014-0042",NA,977,"PDS-FAKEDRUG-111",200,NA,"mg/kg","SUSPENSION","QD","ORAL GAVAGE","ABCD1234",NA,NA,"methocell",NA,NA,NA,"2011-01-02T10:43:08",NA,23,NA,NA,NA,NA,NA,NA,NA
"PDS2014","EX","PDS2014-0042",NA,978,"PDS-FAKEDRUG-111",200,NA,"mg/kg","SUSPENSION","QD","ORAL GAVAGE","ABCD1234",NA,NA,"methocell",NA,NA,NA,"2011-01-03T09:20:15",NA,24,NA,NA,NA,NA,NA,NA,NA
"PDS2014","EX","PDS2014-0042",NA,979,"PDS-FAKEDRUG-111",200,NA,"mg/kg","SUSPENSION","QD","ORAL GAVAGE","ABCD1234",NA,NA,"methocell",NA,NA,NA,"2011-01-04T08:56:13",NA,25,NA,NA,NA,NA,NA,NA,NA
"PDS2014","EX","PDS2014-0042",NA,980,"PDS-FAKEDRUG-111",200,NA,"mg/kg","SUSPENSION","QD","ORAL GAVAGE","ABCD1234",NA,NA,"methocell",NA,NA,NA,"2011-01-05T09:33:19",NA,26,NA,NA,NA,NA,NA,NA,NA
"PDS2014","EX","PDS2014-0042",NA,981,"PDS-FAKEDRUG-111",200,NA,"mg/kg","SUSPENSION","QD","ORAL GAVAGE","ABCD1234",NA,NA,"methocell",NA,NA,NA,"2011-01-06T09:25:50",NA,27,NA,NA,NA,NA,NA,NA,NA
"PDS2014","EX","PDS2014-0042",NA,982,"PDS-FAKEDRUG-111",200,NA,"mg/kg","SUSPENSION","QD","ORAL GAVAGE","ABCD1234",NA,NA,"methocell",NA,NA,NA,"2011-01-07T08:23:09",NA,28,NA,NA,NA,NA,NA,NA,NA
"PDS2014","EX","PDS2014-0042",NA,983,"PDS-FAKEDRUG-111",200,NA,"mg/kg","SUSPENSION","QD","ORAL GAVAGE","ABCD1234",NA,NA,"methocell",NA,NA,NA,"2011-01-08T08:36:19",NA,29,NA,NA,NA,NA,NA,NA,NA
"PDS2014","EX","PDS2014-0042",NA,984,"PDS-FAKEDRUG-111",200,NA,"mg/kg","SUSPENSION","QD","ORAL GAVAGE","ABCD1234",NA,NA,"methocell",NA,NA,NA,"2011-01-09T08:22:40",NA,30,NA,NA,NA,NA,NA,NA,NA
"PDS2014","EX","PDS2014-0043",NA,985,"PDS-FAKEDRUG-111",200,NA,"mg/kg","SUSPENSION","QD","ORAL GAVAGE","ABCD1234",NA,NA,"methocell",NA,NA,NA,"2010-12-11T10:17:20",NA,1,NA,NA,NA,NA,NA,NA,NA
"PDS2014","EX","PDS2014-0043",NA,986,"PDS-FAKEDRUG-111",200,NA,"mg/kg","SUSPENSION","QD","ORAL GAVAGE","ABCD1234",NA,NA,"methocell",NA,NA,NA,"2010-12-12T11:32:22",NA,2,NA,NA,NA,NA,NA,NA,NA
"PDS2014","EX","PDS2014-0043",NA,987,"PDS-FAKEDRUG-111",200,NA,"mg/kg","SUSPENSION","QD","ORAL GAVAGE","ABCD1234",NA,NA,"methocell",NA,NA,NA,"2010-12-13T12:36:29",NA,3,NA,NA,NA,NA,NA,NA,NA
"PDS2014","EX","PDS2014-0043",NA,988,"PDS-FAKEDRUG-111",200,NA,"mg/kg","SUSPENSION","QD","ORAL GAVAGE","ABCD1234",NA,NA,"methocell",NA,NA,NA,"2010-12-14T10:55:31",NA,4,NA,NA,NA,NA,NA,NA,NA
"PDS2014","EX","PDS2014-0043",NA,989,"PDS-FAKEDRUG-111",200,NA,"mg/kg","SUSPENSION","QD","ORAL GAVAGE","ABCD1234",NA,NA,"methocell",NA,NA,NA,"2010-12-15T09:58:30",NA,5,NA,NA,NA,NA,NA,NA,NA
"PDS2014","EX","PDS2014-0043",NA,990,"PDS-FAKEDRUG-111",200,NA,"mg/kg","SUSPENSION","QD","ORAL GAVAGE","ABCD1234",NA,NA,"methocell",NA,NA,NA,"2010-12-16T09:14:21",NA,6,NA,NA,NA,NA,NA,NA,NA
"PDS2014","EX","PDS2014-0043",NA,991,"PDS-FAKEDRUG-111",200,NA,"mg/kg","SUSPENSION","QD","ORAL GAVAGE","ABCD1234",NA,NA,"methocell",NA,NA,NA,"2010-12-17T08:36:29",NA,7,NA,NA,NA,NA,NA,NA,NA
"PDS2014","EX","PDS2014-0043",NA,992,"PDS-FAKEDRUG-111",200,NA,"mg/kg","SUSPENSION","QD","ORAL GAVAGE","ABCD1234",NA,NA,"methocell",NA,NA,NA,"2010-12-18T08:48:46",NA,8,NA,NA,NA,NA,NA,NA,NA
"PDS2014","EX","PDS2014-0043",NA,993,"PDS-FAKEDRUG-111",200,NA,"mg/kg","SUSPENSION","QD","ORAL GAVAGE","ABCD1234",NA,NA,"methocell",NA,NA,NA,"2010-12-19T13:29:58",NA,9,NA,NA,NA,NA,NA,NA,NA
"PDS2014","EX","PDS2014-0043",NA,994,"PDS-FAKEDRUG-111",200,NA,"mg/kg","SUSPENSION","QD","ORAL GAVAGE","ABCD1234",NA,NA,"methocell",NA,NA,NA,"2010-12-20T11:29:13",NA,10,NA,NA,NA,NA,NA,NA,NA
"PDS2014","EX","PDS2014-0043",NA,995,"PDS-FAKEDRUG-111",200,NA,"mg/kg","SUSPENSION","QD","ORAL GAVAGE","ABCD1234",NA,NA,"methocell",NA,NA,NA,"2010-12-21T08:05:30",NA,11,NA,NA,NA,NA,NA,NA,NA
"PDS2014","EX","PDS2014-0043",NA,996,"PDS-FAKEDRUG-111",200,NA,"mg/kg","SUSPENSION","QD","ORAL GAVAGE","ABCD1234",NA,NA,"methocell",NA,NA,NA,"2010-12-22T08:32:17",NA,12,NA,NA,NA,NA,NA,NA,NA
"PDS2014","EX","PDS2014-0043",NA,997,"PDS-FAKEDRUG-111",200,NA,"mg/kg","SUSPENSION","QD","ORAL GAVAGE","ABCD1234",NA,NA,"methocell",NA,NA,NA,"2010-12-23T08:01:23",NA,13,NA,NA,NA,NA,NA,NA,NA
"PDS2014","EX","PDS2014-0043",NA,998,"PDS-FAKEDRUG-111",200,NA,"mg/kg","SUSPENSION","QD","ORAL GAVAGE","ABCD1234",NA,NA,"methocell",NA,NA,NA,"2010-12-24T08:23:28",NA,14,NA,NA,NA,NA,NA,NA,NA
"PDS2014","EX","PDS2014-0043",NA,999,"PDS-FAKEDRUG-111",200,NA,"mg/kg","SUSPENSION","QD","ORAL GAVAGE","ABCD1234",NA,NA,"methocell",NA,NA,NA,"2010-12-25T08:25:29",NA,15,NA,NA,NA,NA,NA,NA,NA
"PDS2014","EX","PDS2014-0043",NA,1000,"PDS-FAKEDRUG-111",200,NA,"mg/kg","SUSPENSION","QD","ORAL GAVAGE","ABCD1234",NA,NA,"methocell",NA,NA,NA,"2010-12-26T07:42:47",NA,16,NA,NA,NA,NA,NA,NA,NA
"PDS2014","EX","PDS2014-0043",NA,1001,"PDS-FAKEDRUG-111",200,NA,"mg/kg","SUSPENSION","QD","ORAL GAVAGE","ABCD1234",NA,NA,"methocell",NA,NA,NA,"2010-12-27T10:40:06",NA,17,NA,NA,NA,NA,NA,NA,NA
"PDS2014","EX","PDS2014-0043",NA,1002,"PDS-FAKEDRUG-111",200,NA,"mg/kg","SUSPENSION","QD","ORAL GAVAGE","ABCD1234",NA,NA,"methocell",NA,NA,NA,"2010-12-28T08:21:08",NA,18,NA,NA,NA,NA,NA,NA,NA
"PDS2014","EX","PDS2014-0043",NA,1003,"PDS-FAKEDRUG-111",200,NA,"mg/kg","SUSPENSION","QD","ORAL GAVAGE","ABCD1234",NA,NA,"methocell",NA,NA,NA,"2010-12-29T10:01:52",NA,19,NA,NA,NA,NA,NA,NA,NA
"PDS2014","EX","PDS2014-0043",NA,1004,"PDS-FAKEDRUG-111",200,NA,"mg/kg","SUSPENSION","QD","ORAL GAVAGE","ABCD1234",NA,NA,"methocell",NA,NA,NA,"2010-12-30T09:18:06",NA,20,NA,NA,NA,NA,NA,NA,NA
"PDS2014","EX","PDS2014-0043",NA,1005,"PDS-FAKEDRUG-111",200,NA,"mg/kg","SUSPENSION","QD","ORAL GAVAGE","ABCD1234",NA,NA,"methocell",NA,NA,NA,"2010-12-31T09:13:33",NA,21,NA,NA,NA,NA,NA,NA,NA
"PDS2014","EX","PDS2014-0043",NA,1006,"PDS-FAKEDRUG-111",200,NA,"mg/kg","SUSPENSION","QD","ORAL GAVAGE","ABCD1234",NA,NA,"methocell",NA,NA,NA,"2011-01-01T07:13:11",NA,22,NA,NA,NA,NA,NA,NA,NA
"PDS2014","EX","PDS2014-0043",NA,1007,"PDS-FAKEDRUG-111",200,NA,"mg/kg","SUSPENSION","QD","ORAL GAVAGE","ABCD1234",NA,NA,"methocell",NA,NA,NA,"2011-01-02T10:42:29",NA,23,NA,NA,NA,NA,NA,NA,NA
"PDS2014","EX","PDS2014-0043",NA,1008,"PDS-FAKEDRUG-111",200,NA,"mg/kg","SUSPENSION","QD","ORAL GAVAGE","ABCD1234",NA,NA,"methocell",NA,NA,NA,"2011-01-03T09:20:30",NA,24,NA,NA,NA,NA,NA,NA,NA
"PDS2014","EX","PDS2014-0043",NA,1009,"PDS-FAKEDRUG-111",200,NA,"mg/kg","SUSPENSION","QD","ORAL GAVAGE","ABCD1234",NA,NA,"methocell",NA,NA,NA,"2011-01-04T08:56:33",NA,25,NA,NA,NA,NA,NA,NA,NA
"PDS2014","EX","PDS2014-0043",NA,1010,"PDS-FAKEDRUG-111",200,NA,"mg/kg","SUSPENSION","QD","ORAL GAVAGE","ABCD1234",NA,NA,"methocell",NA,NA,NA,"2011-01-05T09:33:56",NA,26,NA,NA,NA,NA,NA,NA,NA
"PDS2014","EX","PDS2014-0043",NA,1011,"PDS-FAKEDRUG-111",200,NA,"mg/kg","SUSPENSION","QD","ORAL GAVAGE","ABCD1234",NA,NA,"methocell",NA,NA,NA,"2011-01-06T09:25:32",NA,27,NA,NA,NA,NA,NA,NA,NA
"PDS2014","EX","PDS2014-0043",NA,1012,"PDS-FAKEDRUG-111",200,NA,"mg/kg","SUSPENSION","QD","ORAL GAVAGE","ABCD1234",NA,NA,"methocell",NA,NA,NA,"2011-01-07T08:23:32",NA,28,NA,NA,NA,NA,NA,NA,NA
"PDS2014","EX","PDS2014-0043",NA,1013,"PDS-FAKEDRUG-111",200,NA,"mg/kg","SUSPENSION","QD","ORAL GAVAGE","ABCD1234",NA,NA,"methocell",NA,NA,NA,"2011-01-08T08:37:11",NA,29,NA,NA,NA,NA,NA,NA,NA
"PDS2014","EX","PDS2014-0043",NA,1014,"PDS-FAKEDRUG-111",200,NA,"mg/kg","SUSPENSION","QD","ORAL GAVAGE","ABCD1234",NA,NA,"methocell",NA,NA,NA,"2011-01-09T08:23:44",NA,30,NA,NA,NA,NA,NA,NA,NA
"PDS2014","EX","PDS2014-0044",NA,1015,"PDS-FAKEDRUG-111",200,NA,"mg/kg","SUSPENSION","QD","ORAL GAVAGE","ABCD1234",NA,NA,"methocell",NA,NA,NA,"2010-12-11T10:17:43",NA,1,NA,NA,NA,NA,NA,NA,NA
"PDS2014","EX","PDS2014-0044",NA,1016,"PDS-FAKEDRUG-111",200,NA,"mg/kg","SUSPENSION","QD","ORAL GAVAGE","ABCD1234",NA,NA,"methocell",NA,NA,NA,"2010-12-12T11:32:02",NA,2,NA,NA,NA,NA,NA,NA,NA
"PDS2014","EX","PDS2014-0044",NA,1017,"PDS-FAKEDRUG-111",200,NA,"mg/kg","SUSPENSION","QD","ORAL GAVAGE","ABCD1234",NA,NA,"methocell",NA,NA,NA,"2010-12-13T12:36:47",NA,3,NA,NA,NA,NA,NA,NA,NA
"PDS2014","EX","PDS2014-0044",NA,1018,"PDS-FAKEDRUG-111",200,NA,"mg/kg","SUSPENSION","QD","ORAL GAVAGE","ABCD1234",NA,NA,"methocell",NA,NA,NA,"2010-12-14T10:55:54",NA,4,NA,NA,NA,NA,NA,NA,NA
"PDS2014","EX","PDS2014-0044",NA,1019,"PDS-FAKEDRUG-111",200,NA,"mg/kg","SUSPENSION","QD","ORAL GAVAGE","ABCD1234",NA,NA,"methocell",NA,NA,NA,"2010-12-15T09:59:06",NA,5,NA,NA,NA,NA,NA,NA,NA
"PDS2014","EX","PDS2014-0044",NA,1020,"PDS-FAKEDRUG-111",200,NA,"mg/kg","SUSPENSION","QD","ORAL GAVAGE","ABCD1234",NA,NA,"methocell",NA,NA,NA,"2010-12-16T09:15:10",NA,6,NA,NA,NA,NA,NA,NA,NA
"PDS2014","EX","PDS2014-0044",NA,1021,"PDS-FAKEDRUG-111",200,NA,"mg/kg","SUSPENSION","QD","ORAL GAVAGE","ABCD1234",NA,NA,"methocell",NA,NA,NA,"2010-12-17T08:37:11",NA,7,NA,NA,NA,NA,NA,NA,NA
"PDS2014","EX","PDS2014-0044",NA,1022,"PDS-FAKEDRUG-111",200,NA,"mg/kg","SUSPENSION","QD","ORAL GAVAGE","ABCD1234",NA,NA,"methocell",NA,NA,NA,"2010-12-18T08:49:12",NA,8,NA,NA,NA,NA,NA,NA,NA
"PDS2014","EX","PDS2014-0044",NA,1023,"PDS-FAKEDRUG-111",200,NA,"mg/kg","SUSPENSION","QD","ORAL GAVAGE","ABCD1234",NA,NA,"methocell",NA,NA,NA,"2010-12-19T13:29:27",NA,9,NA,NA,NA,NA,NA,NA,NA
"PDS2014","EX","PDS2014-0044",NA,1024,"PDS-FAKEDRUG-111",200,NA,"mg/kg","SUSPENSION","QD","ORAL GAVAGE","ABCD1234",NA,NA,"methocell",NA,NA,NA,"2010-12-20T11:29:31",NA,10,NA,NA,NA,NA,NA,NA,NA
"PDS2014","EX","PDS2014-0044",NA,1025,"PDS-FAKEDRUG-111",200,NA,"mg/kg","SUSPENSION","QD","ORAL GAVAGE","ABCD1234",NA,NA,"methocell",NA,NA,NA,"2010-12-21T08:06:17",NA,11,NA,NA,NA,NA,NA,NA,NA
"PDS2014","EX","PDS2014-0044",NA,1026,"PDS-FAKEDRUG-111",200,NA,"mg/kg","SUSPENSION","QD","ORAL GAVAGE","ABCD1234",NA,NA,"methocell",NA,NA,NA,"2010-12-22T08:32:53",NA,12,NA,NA,NA,NA,NA,NA,NA
"PDS2014","EX","PDS2014-0044",NA,1027,"PDS-FAKEDRUG-111",200,NA,"mg/kg","SUSPENSION","QD","ORAL GAVAGE","ABCD1234",NA,NA,"methocell",NA,NA,NA,"2010-12-23T08:00:23",NA,13,NA,NA,NA,NA,NA,NA,NA
"PDS2014","EX","PDS2014-0044",NA,1028,"PDS-FAKEDRUG-111",200,NA,"mg/kg","SUSPENSION","QD","ORAL GAVAGE","ABCD1234",NA,NA,"methocell",NA,NA,NA,"2010-12-24T08:23:45",NA,14,NA,NA,NA,NA,NA,NA,NA
"PDS2014","EX","PDS2014-0044",NA,1029,"PDS-FAKEDRUG-111",200,NA,"mg/kg","SUSPENSION","QD","ORAL GAVAGE","ABCD1234",NA,NA,"methocell",NA,NA,NA,"2010-12-25T08:25:46",NA,15,NA,NA,NA,NA,NA,NA,NA
"PDS2014","EX","PDS2014-0044",NA,1030,"PDS-FAKEDRUG-111",200,NA,"mg/kg","SUSPENSION","QD","ORAL GAVAGE","ABCD1234",NA,NA,"methocell",NA,NA,NA,"2010-12-26T07:38:38",NA,16,NA,NA,NA,NA,NA,NA,NA
"PDS2014","EX","PDS2014-0044",NA,1031,"PDS-FAKEDRUG-111",200,NA,"mg/kg","SUSPENSION","QD","ORAL GAVAGE","ABCD1234",NA,NA,"methocell",NA,NA,NA,"2010-12-27T10:40:28",NA,17,NA,NA,NA,NA,NA,NA,NA
"PDS2014","EX","PDS2014-0044",NA,1032,"PDS-FAKEDRUG-111",200,NA,"mg/kg","SUSPENSION","QD","ORAL GAVAGE","ABCD1234",NA,NA,"methocell",NA,NA,NA,"2010-12-28T08:20:50",NA,18,NA,NA,NA,NA,NA,NA,NA
"PDS2014","EX","PDS2014-0044",NA,1033,"PDS-FAKEDRUG-111",200,NA,"mg/kg","SUSPENSION","QD","ORAL GAVAGE","ABCD1234",NA,NA,"methocell",NA,NA,NA,"2010-12-29T10:03:17",NA,19,NA,NA,NA,NA,NA,NA,NA
"PDS2014","EX","PDS2014-0044",NA,1034,"PDS-FAKEDRUG-111",200,NA,"mg/kg","SUSPENSION","QD","ORAL GAVAGE","ABCD1234",NA,NA,"methocell",NA,NA,NA,"2010-12-30T09:18:53",NA,20,NA,NA,NA,NA,NA,NA,NA
"PDS2014","EX","PDS2014-0044",NA,1035,"PDS-FAKEDRUG-111",200,NA,"mg/kg","SUSPENSION","QD","ORAL GAVAGE","ABCD1234",NA,NA,"methocell",NA,NA,NA,"2010-12-31T09:13:51",NA,21,NA,NA,NA,NA,NA,NA,NA
"PDS2014","EX","PDS2014-0044",NA,1036,"PDS-FAKEDRUG-111",200,NA,"mg/kg","SUSPENSION","QD","ORAL GAVAGE","ABCD1234",NA,NA,"methocell",NA,NA,NA,"2011-01-01T07:14:00",NA,22,NA,NA,NA,NA,NA,NA,NA
"PDS2014","EX","PDS2014-0044",NA,1037,"PDS-FAKEDRUG-111",200,NA,"mg/kg","SUSPENSION","QD","ORAL GAVAGE","ABCD1234",NA,NA,"methocell",NA,NA,NA,"2011-01-02T10:43:50",NA,23,NA,NA,NA,NA,NA,NA,NA
"PDS2014","EX","PDS2014-0044",NA,1038,"PDS-FAKEDRUG-111",200,NA,"mg/kg","SUSPENSION","QD","ORAL GAVAGE","ABCD1234",NA,NA,"methocell",NA,NA,NA,"2011-01-03T09:21:00",NA,24,NA,NA,NA,NA,NA,NA,NA
"PDS2014","EX","PDS2014-0044",NA,1039,"PDS-FAKEDRUG-111",200,NA,"mg/kg","SUSPENSION","QD","ORAL GAVAGE","ABCD1234",NA,NA,"methocell",NA,NA,NA,"2011-01-04T08:56:55",NA,25,NA,NA,NA,NA,NA,NA,NA
"PDS2014","EX","PDS2014-0044",NA,1040,"PDS-FAKEDRUG-111",200,NA,"mg/kg","SUSPENSION","QD","ORAL GAVAGE","ABCD1234",NA,NA,"methocell",NA,NA,NA,"2011-01-05T09:33:37",NA,26,NA,NA,NA,NA,NA,NA,NA
"PDS2014","EX","PDS2014-0044",NA,1041,"PDS-FAKEDRUG-111",200,NA,"mg/kg","SUSPENSION","QD","ORAL GAVAGE","ABCD1234",NA,NA,"methocell",NA,NA,NA,"2011-01-06T09:26:53",NA,27,NA,NA,NA,NA,NA,NA,NA
"PDS2014","EX","PDS2014-0044",NA,1042,"PDS-FAKEDRUG-111",200,NA,"mg/kg","SUSPENSION","QD","ORAL GAVAGE","ABCD1234",NA,NA,"methocell",NA,NA,NA,"2011-01-07T08:23:53",NA,28,NA,NA,NA,NA,NA,NA,NA
"PDS2014","EX","PDS2014-0044",NA,1043,"PDS-FAKEDRUG-111",200,NA,"mg/kg","SUSPENSION","QD","ORAL GAVAGE","ABCD1234",NA,NA,"methocell",NA,NA,NA,"2011-01-08T08:36:50",NA,29,NA,NA,NA,NA,NA,NA,NA
"PDS2014","EX","PDS2014-0044",NA,1044,"PDS-FAKEDRUG-111",200,NA,"mg/kg","SUSPENSION","QD","ORAL GAVAGE","ABCD1234",NA,NA,"methocell",NA,NA,NA,"2011-01-09T08:25:43",NA,30,NA,NA,NA,NA,NA,NA,NA
"PDS2014","EX","PDS2014-0045",NA,1045,"PDS-FAKEDRUG-111",200,NA,"mg/kg","SUSPENSION","QD","ORAL GAVAGE","ABCD1234",NA,NA,"methocell",NA,NA,NA,"2010-12-11T10:16:56",NA,1,NA,NA,NA,NA,NA,NA,NA
"PDS2014","EX","PDS2014-0045",NA,1046,"PDS-FAKEDRUG-111",200,NA,"mg/kg","SUSPENSION","QD","ORAL GAVAGE","ABCD1234",NA,NA,"methocell",NA,NA,NA,"2010-12-12T11:33:25",NA,2,NA,NA,NA,NA,NA,NA,NA
"PDS2014","EX","PDS2014-0045",NA,1047,"PDS-FAKEDRUG-111",200,NA,"mg/kg","SUSPENSION","QD","ORAL GAVAGE","ABCD1234",NA,NA,"methocell",NA,NA,NA,"2010-12-13T12:37:12",NA,3,NA,NA,NA,NA,NA,NA,NA
"PDS2014","EX","PDS2014-0045",NA,1048,"PDS-FAKEDRUG-111",200,NA,"mg/kg","SUSPENSION","QD","ORAL GAVAGE","ABCD1234",NA,NA,"methocell",NA,NA,NA,"2010-12-14T10:56:15",NA,4,NA,NA,NA,NA,NA,NA,NA
"PDS2014","EX","PDS2014-0045",NA,1049,"PDS-FAKEDRUG-111",200,NA,"mg/kg","SUSPENSION","QD","ORAL GAVAGE","ABCD1234",NA,NA,"methocell",NA,NA,NA,"2010-12-15T09:58:17",NA,5,NA,NA,NA,NA,NA,NA,NA
"PDS2014","EX","PDS2014-0045",NA,1050,"PDS-FAKEDRUG-111",200,NA,"mg/kg","SUSPENSION","QD","ORAL GAVAGE","ABCD1234",NA,NA,"methocell",NA,NA,NA,"2010-12-16T09:14:56",NA,6,NA,NA,NA,NA,NA,NA,NA
"PDS2014","EX","PDS2014-0045",NA,1051,"PDS-FAKEDRUG-111",200,NA,"mg/kg","SUSPENSION","QD","ORAL GAVAGE","ABCD1234",NA,NA,"methocell",NA,NA,NA,"2010-12-17T08:34:31",NA,7,NA,NA,NA,NA,NA,NA,NA
"PDS2014","EX","PDS2014-0045",NA,1052,"PDS-FAKEDRUG-111",200,NA,"mg/kg","SUSPENSION","QD","ORAL GAVAGE","ABCD1234",NA,NA,"methocell",NA,NA,NA,"2010-12-18T08:48:19",NA,8,NA,NA,NA,NA,NA,NA,NA
"PDS2014","EX","PDS2014-0045",NA,1053,"PDS-FAKEDRUG-111",200,NA,"mg/kg","SUSPENSION","QD","ORAL GAVAGE","ABCD1234",NA,NA,"methocell",NA,NA,NA,"2010-12-19T13:31:08",NA,9,NA,NA,NA,NA,NA,NA,NA
"PDS2014","EX","PDS2014-0045",NA,1054,"PDS-FAKEDRUG-111",200,NA,"mg/kg","SUSPENSION","QD","ORAL GAVAGE","ABCD1234",NA,NA,"methocell",NA,NA,NA,"2010-12-20T11:28:53",NA,10,NA,NA,NA,NA,NA,NA,NA
"PDS2014","EX","PDS2014-0045",NA,1055,"PDS-FAKEDRUG-111",200,NA,"mg/kg","SUSPENSION","QD","ORAL GAVAGE","ABCD1234",NA,NA,"methocell",NA,NA,NA,"2010-12-21T08:06:39",NA,11,NA,NA,NA,NA,NA,NA,NA
