"STUDYID","DOMAIN","USUBJID","POOLID","LBSEQ","LBGRPID","LBREFID","LBSPID","LBTESTCD","LBTEST","LBCAT","LBSCAT","LBORRES","LBORRESU","LBORNRLO","LBORNRHI","LBSTRESC","LBSTRESN","LBSTRESU","LBSTNRLO","LBSTNRHI","LBSTNRC","LBNRIND","LBSTAT","LBREASND","LBNAM","LBSPEC","LBANTREG","LBSPCCND","LBSPCUFL","LBLOC","LBLAT","LBDIR","LBPORTOT","LBMETHOD","LBBLFL","LBFAST","LBDRVFL","LBTOX","LBTOXGR","LBEXCLFL","LBREASEX","VISITDY","LBDTC","LBENDTC","LBDY","LBENDY","LBTPT","LBTPTNUM","LBELTM","LBTPTREF","LBRFTDTC"
"PDS2014","LB","PDS2014-0001",NA,1,NA,NA,NA,"PROT","Protein","URINALYSIS",NA,"25","mg/dL",NA,NA,"25",25,"mg/dL",NA,NA,NA,NA,NA,NA,NA,"URINE",NA,NA,NA,NA,NA,NA,NA,NA,NA,NA,NA,NA,NA,NA,NA,30,"2011-01-09T07:14:04",NA,30,NA,NA,NA,NA,NA,NA
"PDS2014","LB","PDS2014-0001",NA,2,NA,NA,NA,"GLUC","Glucose","URINALYSIS",NA,"NORM",NA,NA,NA,"NORM",NA,NA,NA,NA,NA,NA,NA,NA,NA,"URINE",NA,NA,NA,NA,NA,NA,NA,NA,NA,NA,NA,NA,NA,NA,NA,30,"2011-01-09T07:14:04",NA,30,NA,NA,NA,NA,NA,NA
"PDS2014","LB","PDS2014-0001",NA,3,NA,NA,NA,"OCCBLD","Occult Blood","URINALYSIS",NA,"10","/uL",NA,NA,"10",10,"/uL",NA,NA,NA,NA,NA,NA,NA,"URINE",NA,NA,NA,NA,NA,NA,NA,NA,NA,NA,NA,NA,NA,NA,NA,30,"2011-01-09T07:14:04",NA,30,NA,NA,NA,NA,NA,NA
"PDS2014","LB","PDS2014-0001",NA,4,NA,NA,NA,"CLARITY","Clarity","URINALYSIS",NA,"CLEAR",NA,NA,NA,"CLEAR",NA,NA,NA,NA,NA,NA,NA,NA,NA,"URINE",NA,NA,NA,NA,NA,NA,NA,NA,NA,NA,NA,NA,NA,NA,NA,30,"2011-01-09T07:14:04",NA,30,NA,NA,NA,NA,NA,NA
"PDS2014","LB","PDS2014-0001",NA,5,NA,NA,NA,"SPGRAV","Specific Gravity","URINALYSIS",NA,"1.033","RATIO",NA,NA,"1.033",1.033,"RATIO",NA,NA,NA,NA,NA,NA,NA,"URINE",NA,NA,NA,NA,NA,NA,NA,NA,NA,NA,NA,NA,NA,NA,NA,30,"2011-01-09T07:14:04",NA,30,NA,NA,NA,NA,NA,NA
"PDS2014","LB","PDS2014-0001",NA,6,NA,NA,NA,"PH","pH","URINALYSIS",NA,"6.4",NA,NA,NA,"6.4",6.4,NA,NA,NA,NA,NA,NA,NA,NA,"URINE",NA,NA,NA,NA,NA,NA,NA,NA,NA,NA,NA,NA,NA,NA,NA,30,"2011-01-09T07:14:04",NA,30,NA,NA,NA,NA,NA,NA
"PDS2014","LB","PDS2014-0001",NA,7,NA,NA,NA,"CYTYRO","Tyrosine Crystals","URINALYSIS",NA,"0",NA,NA,NA,"0",0,NA,NA,NA,NA,NA,NA,NA,NA,"URINE",NA,NA,NA,NA,NA,NA,NA,NA,NA,NA,NA,NA,NA,NA,NA,30,"2011-01-09T07:14:04",NA,30,NA,NA,NA,NA,NA,NA
"PDS2014","LB","PDS2014-0001",NA,8,NA,NA,NA,"CYCAPHOS","Calcium Phosphate Crystals","URINALYSIS",NA,"0",NA,NA,NA,"0",0,NA,NA,NA,NA,NA,NA,NA,NA,"URINE",NA,NA,NA,NA,NA,NA,NA,NA,NA,NA,NA,NA,NA,NA,NA,30,"2011-01-09T07:14:04",NA,30,NA,NA,NA,NA,NA,NA
"PDS2014","LB","PDS2014-0001",NA,9,NA,NA,NA,"EPISQCE","Squamous Epithelial Cells","URINALYSIS",NA,"2",NA,NA,NA,"2",2,NA,NA,NA,NA,NA,NA,NA,NA,"URINE",NA,NA,NA,NA,NA,NA,NA,NA,NA,NA,NA,NA,NA,NA,NA,30,"2011-01-09T07:14:04",NA,30,NA,NA,NA,NA,NA,NA
"PDS2014","LB","PDS2014-0001",NA,10,NA,NA,NA,"BACT","Bacteria","URINALYSIS",NA,"2",NA,NA,NA,"2",2,NA,NA,NA,NA,NA,NA,NA,NA,"URINE",NA,NA,NA,NA,NA,NA,NA,NA,NA,NA,NA,NA,NA,NA,NA,30,"2011-01-09T07:14:04",NA,30,NA,NA,NA,NA,NA,NA
"PDS2014","LB","PDS2014-0001",NA,11,NA,NA,NA,"VOLUME","Volume","URINALYSIS",NA,"9","mL",NA,NA,"9",9,"mL",NA,NA,NA,NA,NA,NA,NA,"URINE",NA,NA,NA,NA,NA,NA,NA,NA,NA,NA,NA,NA,NA,NA,NA,30,"2011-01-09T07:14:04",NA,30,NA,NA,NA,NA,NA,NA
"PDS2014","LB","PDS2014-0001",NA,12,NA,NA,NA,"CASULPH","Calcium Sulphate","URINALYSIS",NA,"0",NA,NA,NA,"0",0,NA,NA,NA,NA,NA,NA,NA,NA,"URINE",NA,NA,NA,NA,NA,NA,NA,NA,NA,NA,NA,NA,NA,NA,NA,30,"2011-01-09T07:14:04",NA,30,NA,NA,NA,NA,NA,NA
"PDS2014","LB","PDS2014-0001",NA,13,NA,NA,NA,"ALBGLOB","Albumin/Globulin","URINALYSIS",NA,"1.98","RATIO",NA,NA,"1.98",1.98,"RATIO",NA,NA,NA,NA,NA,NA,NA,"URINE",NA,NA,NA,NA,NA,NA,NA,NA,NA,NA,NA,NA,NA,NA,NA,30,"2011-01-09T07:14:04",NA,30,NA,NA,NA,NA,NA,NA
"PDS2014","LB","PDS2014-0001",NA,14,NA,NA,NA,"COLOR","Color","URINALYSIS",NA,"L-YEL",NA,NA,NA,"L-YEL",NA,NA,NA,NA,NA,NA,NA,NA,NA,"URINE",NA,NA,NA,NA,NA,NA,NA,NA,NA,NA,NA,NA,NA,NA,NA,30,"2011-01-09T07:14:04",NA,30,NA,NA,NA,NA,NA,NA
"PDS2014","LB","PDS2014-0001",NA,15,NA,NA,NA,"KETONES","Ketones","URINALYSIS",NA,"15","mg/dL",NA,NA,"15",15,"mg/dL",NA,NA,NA,NA,NA,NA,NA,"URINE",NA,NA,NA,NA,NA,NA,NA,NA,NA,NA,NA,NA,NA,NA,NA,30,"2011-01-09T07:14:04",NA,30,NA,NA,NA,NA,NA,NA
"PDS2014","LB","PDS2014-0001",NA,16,NA,NA,NA,"SPERM","Spermatozoa","URINALYSIS",NA,"2",NA,NA,NA,"2",2,NA,NA,NA,NA,NA,NA,NA,NA,"URINE",NA,NA,NA,NA,NA,NA,NA,NA,NA,NA,NA,NA,NA,NA,NA,30,"2011-01-09T07:14:04",NA,30,NA,NA,NA,NA,NA,NA
"PDS2014","LB","PDS2014-0001",NA,17,NA,NA,NA,"CSWAX","Waxy Casts","URINALYSIS",NA,"0",NA,NA,NA,"0",0,NA,NA,NA,NA,NA,NA,NA,NA,"URINE",NA,NA,NA,NA,NA,NA,NA,NA,NA,NA,NA,NA,NA,NA,NA,30,"2011-01-09T07:14:04",NA,30,NA,NA,NA,NA,NA,NA
"PDS2014","LB","PDS2014-0001",NA,18,NA,NA,NA,"CYCACAR","Calcium Carbonate Crystals","URINALYSIS",NA,"0",NA,NA,NA,"0",0,NA,NA,NA,NA,NA,NA,NA,NA,"URINE",NA,NA,NA,NA,NA,NA,NA,NA,NA,NA,NA,NA,NA,NA,NA,30,"2011-01-09T07:14:04",NA,30,NA,NA,NA,NA,NA,NA
"PDS2014","LB","PDS2014-0001",NA,19,NA,NA,NA,"CYURIAC","Uric Acid Crystals","URINALYSIS",NA,"0",NA,NA,NA,"0",0,NA,NA,NA,NA,NA,NA,NA,NA,"URINE",NA,NA,NA,NA,NA,NA,NA,NA,NA,NA,NA,NA,NA,NA,NA,30,"2011-01-09T07:14:04",NA,30,NA,NA,NA,NA,NA,NA
"PDS2014","LB","PDS2014-0001",NA,20,NA,NA,NA,"RBC","Erythrocytes","URINALYSIS",NA,"1",NA,NA,NA,"1",1,NA,NA,NA,NA,NA,NA,NA,NA,"URINE",NA,NA,NA,NA,NA,NA,NA,NA,NA,NA,NA,NA,NA,NA,NA,30,"2011-01-09T07:14:04",NA,30,NA,NA,NA,NA,NA,NA
"PDS2014","LB","PDS2014-0001",NA,21,NA,NA,NA,"YEAST","Yeast Cells","URINALYSIS",NA,"0",NA,NA,NA,"0",0,NA,NA,NA,NA,NA,NA,NA,NA,"URINE",NA,NA,NA,NA,NA,NA,NA,NA,NA,NA,NA,NA,NA,NA,NA,30,"2011-01-09T07:14:04",NA,30,NA,NA,NA,NA,NA,NA
"PDS2014","LB","PDS2014-0001",NA,22,NA,NA,NA,"CSEPI","Epithelial Casts","URINALYSIS",NA,"0",NA,NA,NA,"0",0,NA,NA,NA,NA,NA,NA,NA,NA,"URINE",NA,NA,NA,NA,NA,NA,NA,NA,NA,NA,NA,NA,NA,NA,NA,30,"2011-01-09T07:14:04",NA,30,NA,NA,NA,NA,NA,NA
"PDS2014","LB","PDS2014-0001",NA,23,NA,NA,NA,"WBC","Leukocytes","URINALYSIS",NA,"0",NA,NA,NA,"0",0,NA,NA,NA,NA,NA,NA,NA,NA,"URINE",NA,NA,NA,NA,NA,NA,NA,NA,NA,NA,NA,NA,NA,NA,NA,30,"2011-01-09T07:14:04",NA,30,NA,NA,NA,NA,NA,NA
"PDS2014","LB","PDS2014-0001",NA,24,NA,NA,NA,"FATDROP","Fat Droplet","URINALYSIS",NA,"0",NA,NA,NA,"0",0,NA,NA,NA,NA,NA,NA,NA,NA,"URINE",NA,NA,NA,NA,NA,NA,NA,NA,NA,NA,NA,NA,NA,NA,NA,30,"2011-01-09T07:14:04",NA,30,NA,NA,NA,NA,NA,NA
"PDS2014","LB","PDS2014-0001",NA,25,NA,NA,NA,"EPITUCE","Tubular Epithelial Cells","URINALYSIS",NA,"0",NA,NA,NA,"0",0,NA,NA,NA,NA,NA,NA,NA,NA,"URINE",NA,NA,NA,NA,NA,NA,NA,NA,NA,NA,NA,NA,NA,NA,NA,30,"2011-01-09T07:14:04",NA,30,NA,NA,NA,NA,NA,NA
"PDS2014","LB","PDS2014-0001",NA,26,NA,NA,NA,"CSGRAN","Granular Casts","URINALYSIS",NA,"0",NA,NA,NA,"0",0,NA,NA,NA,NA,NA,NA,NA,NA,"URINE",NA,NA,NA,NA,NA,NA,NA,NA,NA,NA,NA,NA,NA,NA,NA,30,"2011-01-09T07:14:04",NA,30,NA,NA,NA,NA,NA,NA
"PDS2014","LB","PDS2014-0001",NA,27,NA,NA,NA,"EPIC","Epithelial Cells","URINALYSIS",NA,"0",NA,NA,NA,"0",0,NA,NA,NA,NA,NA,NA,NA,NA,"URINE",NA,NA,NA,NA,NA,NA,NA,NA,NA,NA,NA,NA,NA,NA,NA,30,"2011-01-09T07:14:04",NA,30,NA,NA,NA,NA,NA,NA
"PDS2014","LB","PDS2014-0001",NA,28,NA,NA,NA,"CYCYSTIN","Cystine Crystals","URINALYSIS",NA,"0",NA,NA,NA,"0",0,NA,NA,NA,NA,NA,NA,NA,NA,"URINE",NA,NA,NA,NA,NA,NA,NA,NA,NA,NA,NA,NA,NA,NA,NA,30,"2011-01-09T07:14:04",NA,30,NA,NA,NA,NA,NA,NA
"PDS2014","LB","PDS2014-0001",NA,29,NA,NA,NA,"CYSTARCH","Starch Crystals","URINALYSIS",NA,"0",NA,NA,NA,"0",0,NA,NA,NA,NA,NA,NA,NA,NA,"URINE",NA,NA,NA,NA,NA,NA,NA,NA,NA,NA,NA,NA,NA,NA,NA,30,"2011-01-09T07:14:04",NA,30,NA,NA,NA,NA,NA,NA
"PDS2014","LB","PDS2014-0001",NA,30,NA,NA,NA,"CYCAOXA","Calcium Oxalate Crystals","URINALYSIS",NA,"0",NA,NA,NA,"0",0,NA,NA,NA,NA,NA,NA,NA,NA,"URINE",NA,NA,NA,NA,NA,NA,NA,NA,NA,NA,NA,NA,NA,NA,NA,30,"2011-01-09T07:14:04",NA,30,NA,NA,NA,NA,NA,NA
"PDS2014","LB","PDS2014-0001",NA,31,NA,NA,NA,"CSFAT","Fatty Casts","URINALYSIS",NA,"0",NA,NA,NA,"0",0,NA,NA,NA,NA,NA,NA,NA,NA,"URINE",NA,NA,NA,NA,NA,NA,NA,NA,NA,NA,NA,NA,NA,NA,NA,30,"2011-01-09T07:14:04",NA,30,NA,NA,NA,NA,NA,NA
"PDS2014","LB","PDS2014-0001",NA,32,NA,NA,NA,"AMORPHSD","Amorphous Sediment","URINALYSIS",NA,"0",NA,NA,NA,"0",0,NA,NA,NA,NA,NA,NA,NA,NA,"URINE",NA,NA,NA,NA,NA,NA,NA,NA,NA,NA,NA,NA,NA,NA,NA,30,"2011-01-09T07:14:04",NA,30,NA,NA,NA,NA,NA,NA
"PDS2014","LB","PDS2014-0001",NA,33,NA,NA,NA,"GLOBUL","Globulin","URINALYSIS",NA,"1.98","g/dL",NA,NA,"1.98",1.98,"g/dL",NA,NA,NA,NA,NA,NA,NA,"URINE",NA,NA,NA,NA,NA,NA,NA,NA,NA,NA,NA,NA,NA,NA,NA,30,"2011-01-09T07:14:04",NA,30,NA,NA,NA,NA,NA,NA
"PDS2014","LB","PDS2014-0001",NA,34,NA,NA,NA,"CSWBC","WBC Casts","URINALYSIS",NA,"0",NA,NA,NA,"0",0,NA,NA,NA,NA,NA,NA,NA,NA,"URINE",NA,NA,NA,NA,NA,NA,NA,NA,NA,NA,NA,NA,NA,NA,NA,30,"2011-01-09T07:14:04",NA,30,NA,NA,NA,NA,NA,NA
"PDS2014","LB","PDS2014-0001",NA,35,NA,NA,NA,"CYCHOL","Cholesterol Crystals","URINALYSIS",NA,"0",NA,NA,NA,"0",0,NA,NA,NA,NA,NA,NA,NA,NA,"URINE",NA,NA,NA,NA,NA,NA,NA,NA,NA,NA,NA,NA,NA,NA,NA,30,"2011-01-09T07:14:04",NA,30,NA,NA,NA,NA,NA,NA
"PDS2014","LB","PDS2014-0001",NA,36,NA,NA,NA,"CSHYAL","Hyaline Casts","URINALYSIS",NA,"0",NA,NA,NA,"0",0,NA,NA,NA,NA,NA,NA,NA,NA,"URINE",NA,NA,NA,NA,NA,NA,NA,NA,NA,NA,NA,NA,NA,NA,NA,30,"2011-01-09T07:14:04",NA,30,NA,NA,NA,NA,NA,NA
"PDS2014","LB","PDS2014-0001",NA,37,NA,NA,NA,"CYBILI","Bilirubin Crystals","URINALYSIS",NA,"0",NA,NA,NA,"0",0,NA,NA,NA,NA,NA,NA,NA,NA,"URINE",NA,NA,NA,NA,NA,NA,NA,NA,NA,NA,NA,NA,NA,NA,NA,30,"2011-01-09T07:14:04",NA,30,NA,NA,NA,NA,NA,NA
"PDS2014","LB","PDS2014-0001",NA,38,NA,NA,NA,"CYTRPHOS","Triple Phosphate Crystals","URINALYSIS",NA,"4",NA,NA,NA,"4",4,NA,NA,NA,NA,NA,NA,NA,NA,"URINE",NA,NA,NA,NA,NA,NA,NA,NA,NA,NA,NA,NA,NA,NA,NA,30,"2011-01-09T07:14:04",NA,30,NA,NA,NA,NA,NA,NA
"PDS2014","LB","PDS2014-0001",NA,39,NA,NA,NA,"CSRBC","RBC Casts","URINALYSIS",NA,"0",NA,NA,NA,"0",0,NA,NA,NA,NA,NA,NA,NA,NA,"URINE",NA,NA,NA,NA,NA,NA,NA,NA,NA,NA,NA,NA,NA,NA,NA,30,"2011-01-09T07:14:04",NA,30,NA,NA,NA,NA,NA,NA
"PDS2014","LB","PDS2014-0001",NA,40,NA,NA,NA,"ALT","Alanine Aminotransferase","CLINICAL CHEMISTRY",NA,"38.4","U/L",NA,NA,"38.4",38.4,"U/L",NA,NA,NA,NA,NA,NA,NA,"SERUM",NA,NA,NA,NA,NA,NA,NA,NA,NA,NA,NA,NA,NA,NA,NA,30,"2011-01-09T07:34:18",NA,30,NA,NA,NA,NA,NA,NA
"PDS2014","LB","PDS2014-0001",NA,41,NA,NA,NA,"GLUC","Glucose","CLINICAL CHEMISTRY",NA,"73","mg/dL",NA,NA,"73",73,"mg/dL",NA,NA,NA,NA,NA,NA,NA,"SERUM",NA,NA,NA,NA,NA,NA,NA,NA,NA,NA,NA,NA,NA,NA,NA,30,"2011-01-09T07:34:18",NA,30,NA,NA,NA,NA,NA,NA
"PDS2014","LB","PDS2014-0001",NA,42,NA,NA,NA,"TRIG","Triglycerides","CLINICAL CHEMISTRY",NA,"23.4","mg/dL",NA,NA,"23.4",23.4,"mg/dL",NA,NA,NA,NA,NA,NA,NA,"SERUM",NA,NA,NA,NA,NA,NA,NA,NA,NA,NA,NA,NA,NA,NA,NA,30,"2011-01-09T07:34:18",NA,30,NA,NA,NA,NA,NA,NA
"PDS2014","LB","PDS2014-0001",NA,43,NA,NA,NA,"BILI","Bilirubin","CLINICAL CHEMISTRY",NA,"0.103","mg/dL",NA,NA,"0.103",0.103,"mg/dL",NA,NA,NA,NA,NA,NA,NA,"SERUM",NA,NA,NA,NA,NA,NA,NA,NA,NA,NA,NA,NA,NA,NA,NA,30,"2011-01-09T07:34:18",NA,30,NA,NA,NA,NA,NA,NA
"PDS2014","LB","PDS2014-0001",NA,44,NA,NA,NA,"K","Potassium","CLINICAL CHEMISTRY",NA,"5.95","mmol/L",NA,NA,"5.95",5.95,"mmol/L",NA,NA,NA,NA,NA,NA,NA,"SERUM",NA,NA,NA,NA,NA,NA,NA,NA,NA,NA,NA,NA,NA,NA,NA,30,"2011-01-09T07:34:18",NA,30,NA,NA,NA,NA,NA,NA
"PDS2014","LB","PDS2014-0001",NA,45,NA,NA,NA,"ALB","Albumin","CLINICAL CHEMISTRY",NA,"3.82","g/dL",NA,NA,"3.82",3.82,"g/dL",NA,NA,NA,NA,NA,NA,NA,"SERUM",NA,NA,NA,NA,NA,NA,NA,NA,NA,NA,NA,NA,NA,NA,NA,30,"2011-01-09T07:34:18",NA,30,NA,NA,NA,NA,NA,NA
"PDS2014","LB","PDS2014-0001",NA,46,NA,NA,NA,"AST","Aspartate Aminotransferase","CLINICAL CHEMISTRY",NA,"136.4","U/L",NA,NA,"136.4",136.4,"U/L",NA,NA,NA,NA,NA,NA,NA,"SERUM",NA,NA,NA,NA,NA,NA,NA,NA,NA,NA,NA,NA,NA,NA,NA,30,"2011-01-09T07:34:18",NA,30,NA,NA,NA,NA,NA,NA
"PDS2014","LB","PDS2014-0001",NA,47,NA,NA,NA,"CL","Chloride","CLINICAL CHEMISTRY",NA,"98.2","mmol/L",NA,NA,"98.2",98.2,"mmol/L",NA,NA,NA,NA,NA,NA,NA,"SERUM",NA,NA,NA,NA,NA,NA,NA,NA,NA,NA,NA,NA,NA,NA,NA,30,"2011-01-09T07:34:18",NA,30,NA,NA,NA,NA,NA,NA
"PDS2014","LB","PDS2014-0001",NA,48,NA,NA,NA,"GLOBUL","Globulin","CLINICAL CHEMISTRY",NA,"1.98","g/dL",NA,NA,"1.98",1.98,"g/dL",NA,NA,NA,NA,NA,NA,NA,"SERUM",NA,NA,NA,NA,NA,NA,NA,NA,NA,NA,NA,NA,NA,NA,NA,30,"2011-01-09T07:34:18",NA,30,NA,NA,NA,NA,NA,NA
"PDS2014","LB","PDS2014-0001",NA,49,NA,NA,NA,"CHOL","Cholesterol","CLINICAL CHEMISTRY",NA,"48","mg/dL",NA,NA,"48",48,"mg/dL",NA,NA,NA,NA,NA,NA,NA,"SERUM",NA,NA,NA,NA,NA,NA,NA,NA,NA,NA,NA,NA,NA,NA,NA,30,"2011-01-09T07:34:18",NA,30,NA,NA,NA,NA,NA,NA
"PDS2014","LB","PDS2014-0001",NA,50,NA,NA,NA,"GGT","Gamma Glutamyl Transferase","CLINICAL CHEMISTRY",NA,"HS","U/L",NA,NA,"HS",NA,"U/L",NA,NA,NA,NA,NA,NA,NA,"SERUM",NA,NA,NA,NA,NA,NA,NA,NA,NA,NA,NA,NA,NA,NA,NA,30,"2011-01-09T07:34:18",NA,30,NA,NA,NA,NA,NA,NA
"PDS2014","LB","PDS2014-0001",NA,51,NA,NA,NA,"PHOS","Phosphate","CLINICAL CHEMISTRY",NA,"7.46","mg/dL",NA,NA,"7.46",7.46,"mg/dL",NA,NA,NA,NA,NA,NA,NA,"SERUM",NA,NA,NA,NA,NA,NA,NA,NA,NA,NA,NA,NA,NA,NA,NA,30,"2011-01-09T07:34:18",NA,30,NA,NA,NA,NA,NA,NA
"PDS2014","LB","PDS2014-0001",NA,52,NA,NA,NA,"ALP","Alkaline Phosphatase","CLINICAL CHEMISTRY",NA,"162.6","U/L",NA,NA,"162.6",162.6,"U/L",NA,NA,NA,NA,NA,NA,NA,"SERUM",NA,NA,NA,NA,NA,NA,NA,NA,NA,NA,NA,NA,NA,NA,NA,30,"2011-01-09T07:34:18",NA,30,NA,NA,NA,NA,NA,NA
"PDS2014","LB","PDS2014-0001",NA,53,NA,NA,NA,"CA","Calcium","CLINICAL CHEMISTRY",NA,"10.03","mg/dL",NA,NA,"10.03",10.03,"mg/dL",NA,NA,NA,NA,NA,NA,NA,"SERUM",NA,NA,NA,NA,NA,NA,NA,NA,NA,NA,NA,NA,NA,NA,NA,30,"2011-01-09T07:34:18",NA,30,NA,NA,NA,NA,NA,NA
"PDS2014","LB","PDS2014-0001",NA,54,NA,NA,NA,"SODIUM","Sodium","CLINICAL CHEMISTRY",NA,"141","mmol/L",NA,NA,"141",141,"mmol/L",NA,NA,NA,NA,NA,NA,NA,"SERUM",NA,NA,NA,NA,NA,NA,NA,NA,NA,NA,NA,NA,NA,NA,NA,30,"2011-01-09T07:34:18",NA,30,NA,NA,NA,NA,NA,NA
"PDS2014","LB","PDS2014-0001",NA,55,NA,NA,NA,"PROT","Protein","CLINICAL CHEMISTRY",NA,"5.75","g/dL",NA,NA,"5.75",5.75,"g/dL",NA,NA,NA,NA,NA,NA,NA,"SERUM",NA,NA,NA,NA,NA,NA,NA,NA,NA,NA,NA,NA,NA,NA,NA,30,"2011-01-09T07:34:18",NA,30,NA,NA,NA,NA,NA,NA
"PDS2014","LB","PDS2014-0001",NA,56,NA,NA,NA,"BUN","Blood Urea Nitrogen","CLINICAL CHEMISTRY",NA,"11.7","mg/dL",NA,NA,"11.7",11.7,"mg/dL",NA,NA,NA,NA,NA,NA,NA,"SERUM",NA,NA,NA,NA,NA,NA,NA,NA,NA,NA,NA,NA,NA,NA,NA,30,"2011-01-09T07:34:18",NA,30,NA,NA,NA,NA,NA,NA
"PDS2014","LB","PDS2014-0001",NA,57,NA,NA,NA,"ALBGLOB","Albumin/Globulin","CLINICAL CHEMISTRY",NA,"1.98","RATIO",NA,NA,"1.98",1.98,"RATIO",NA,NA,NA,NA,NA,NA,NA,"SERUM",NA,NA,NA,NA,NA,NA,NA,NA,NA,NA,NA,NA,NA,NA,NA,30,"2011-01-09T07:34:18",NA,30,NA,NA,NA,NA,NA,NA
"PDS2014","LB","PDS2014-0001",NA,58,NA,NA,NA,"CREAT","Creatinine","CLINICAL CHEMISTRY",NA,"0.27","mg/dL",NA,NA,"0.27",0.27,"mg/dL",NA,NA,NA,NA,NA,NA,NA,"SERUM",NA,NA,NA,NA,NA,NA,NA,NA,NA,NA,NA,NA,NA,NA,NA,30,"2011-01-09T07:34:18",NA,30,NA,NA,NA,NA,NA,NA
"PDS2014","LB","PDS2014-0001",NA,59,NA,NA,NA,"ALBGLOB","Albumin/Globulin","COAGULATION",NA,"1.98","RATIO",NA,NA,"1.98",1.98,"RATIO",NA,NA,NA,NA,NA,NA,NA,"PLASMA",NA,NA,NA,NA,NA,NA,NA,NA,NA,NA,NA,NA,NA,NA,NA,30,"2011-01-09T07:34:21",NA,30,NA,NA,NA,NA,NA,NA
"PDS2014","LB","PDS2014-0001",NA,60,NA,NA,NA,"GLOBUL","Globulin","COAGULATION",NA,"1.98","g/dL",NA,NA,"1.98",1.98,"g/dL",NA,NA,NA,NA,NA,NA,NA,"PLASMA",NA,NA,NA,NA,NA,NA,NA,NA,NA,NA,NA,NA,NA,NA,NA,30,"2011-01-09T07:34:21",NA,30,NA,NA,NA,NA,NA,NA
"PDS2014","LB","PDS2014-0001",NA,61,NA,NA,NA,"APTT","Activated Partial Thromboplastin Time","COAGULATION",NA,"16.1","sec",NA,NA,"16.1",16.1,"sec",NA,NA,NA,NA,NA,NA,NA,"PLASMA",NA,NA,NA,NA,NA,NA,NA,NA,NA,NA,NA,NA,NA,NA,NA,30,"2011-01-09T07:34:21",NA,30,NA,NA,NA,NA,NA,NA
"PDS2014","LB","PDS2014-0001",NA,62,NA,NA,NA,"FIBRINO","Fibrinogen","COAGULATION",NA,"151","mg/dL",NA,NA,"151",151,"mg/dL",NA,NA,NA,NA,NA,NA,NA,"PLASMA",NA,NA,NA,NA,NA,NA,NA,NA,NA,NA,NA,NA,NA,NA,NA,30,"2011-01-09T07:34:21",NA,30,NA,NA,NA,NA,NA,NA
"PDS2014","LB","PDS2014-0001",NA,63,NA,NA,NA,"PT","Prothrombin Time","COAGULATION",NA,"12.5","sec",NA,NA,"12.5",12.5,"sec",NA,NA,NA,NA,NA,NA,NA,"PLASMA",NA,NA,NA,NA,NA,NA,NA,NA,NA,NA,NA,NA,NA,NA,NA,30,"2011-01-09T07:34:21",NA,30,NA,NA,NA,NA,NA,NA
"PDS2014","LB","PDS2014-0001",NA,64,NA,NA,NA,"FATACFR","Free Fatty Acid","CLINICAL CHEMISTRY",NA,"0.44","mmol/L",NA,NA,"0.44",0.44,"mmol/L",NA,NA,NA,NA,NA,NA,NA,"SERUM",NA,NA,NA,NA,NA,NA,NA,NA,NA,NA,NA,NA,NA,NA,NA,30,"2011-01-09T09:40:57",NA,30,NA,NA,NA,NA,NA,NA
"PDS2014","LB","PDS2014-0001",NA,65,NA,NA,NA,"MONOCE","Monocytes/Total Cells","HEMATOLOGY",NA,"1.9","%",NA,NA,"1.9",1.9,"%",NA,NA,NA,NA,NA,NA,NA,"WHOLE BLOOD",NA,NA,NA,NA,NA,NA,NA,NA,NA,NA,NA,NA,NA,NA,NA,30,"2011-01-09T07:33:26",NA,30,NA,NA,NA,NA,NA,NA
"PDS2014","LB","PDS2014-0001",NA,66,NA,NA,NA,"HPOCROM","Hypochromia","HEMATOLOGY",NA,"0",NA,NA,NA,"0",0,NA,NA,NA,NA,NA,NA,NA,NA,"WHOLE BLOOD",NA,NA,NA,NA,NA,NA,NA,NA,NA,NA,NA,NA,NA,NA,NA,30,"2011-01-09T07:33:26",NA,30,NA,NA,NA,NA,NA,NA
"PDS2014","LB","PDS2014-0001",NA,67,NA,NA,NA,"RETI","Reticulocytes","HEMATOLOGY",NA,"133.2","10^9/L",NA,NA,"133.2",133.2,"10^9/L",NA,NA,NA,NA,NA,NA,NA,"WHOLE BLOOD",NA,NA,NA,NA,NA,NA,NA,NA,NA,NA,NA,NA,NA,NA,NA,30,"2011-01-09T07:33:26",NA,30,NA,NA,NA,NA,NA,NA
"PDS2014","LB","PDS2014-0001",NA,68,NA,NA,NA,"GLOBUL","Globulin","HEMATOLOGY",NA,"1.98","g/dL",NA,NA,"1.98",1.98,"g/dL",NA,NA,NA,NA,NA,NA,NA,"WHOLE BLOOD",NA,NA,NA,NA,NA,NA,NA,NA,NA,NA,NA,NA,NA,NA,NA,30,"2011-01-09T07:33:26",NA,30,NA,NA,NA,NA,NA,NA
"PDS2014","LB","PDS2014-0001",NA,69,NA,NA,NA,"LGLUCLE","Large Unstained Cells/Leukocytes","HEMATOLOGY",NA,"0.4","%",NA,NA,"0.4",0.4,"%",NA,NA,NA,NA,NA,NA,NA,"WHOLE BLOOD",NA,NA,NA,NA,NA,NA,NA,NA,NA,NA,NA,NA,NA,NA,NA,30,"2011-01-09T07:33:26",NA,30,NA,NA,NA,NA,NA,NA
"PDS2014","LB","PDS2014-0001",NA,70,NA,NA,NA,"MACROCY","Macrocytes","HEMATOLOGY",NA,"0",NA,NA,NA,"0",0,NA,NA,NA,NA,NA,NA,NA,NA,"WHOLE BLOOD",NA,NA,NA,NA,NA,NA,NA,NA,NA,NA,NA,NA,NA,NA,NA,30,"2011-01-09T07:33:26",NA,30,NA,NA,NA,NA,NA,NA
"PDS2014","LB","PDS2014-0001",NA,71,NA,NA,NA,"NEUTCE","Neutrophils/Total Cells","HEMATOLOGY",NA,"7.2","%",NA,NA,"7.2",7.2,"%",NA,NA,NA,NA,NA,NA,NA,"WHOLE BLOOD",NA,NA,NA,NA,NA,NA,NA,NA,NA,NA,NA,NA,NA,NA,NA,30,"2011-01-09T07:33:26",NA,30,NA,NA,NA,NA,NA,NA
"PDS2014","LB","PDS2014-0001",NA,72,NA,NA,NA,"MONO","Monocytes","HEMATOLOGY",NA,"0.17","10^9/L",NA,NA,"0.17",0.17,"10^9/L",NA,NA,NA,NA,NA,NA,NA,"WHOLE BLOOD",NA,NA,NA,NA,NA,NA,NA,NA,NA,NA,NA,NA,NA,NA,NA,30,"2011-01-09T07:33:26",NA,30,NA,NA,NA,NA,NA,NA
"PDS2014","LB","PDS2014-0001",NA,73,NA,NA,NA,"HYPERCHR","Hyperchromia","HEMATOLOGY",NA,"0",NA,NA,NA,"0",0,NA,NA,NA,NA,NA,NA,NA,NA,"WHOLE BLOOD",NA,NA,NA,NA,NA,NA,NA,NA,NA,NA,NA,NA,NA,NA,NA,30,"2011-01-09T07:33:26",NA,30,NA,NA,NA,NA,NA,NA
"PDS2014","LB","PDS2014-0001",NA,74,NA,NA,NA,"BASOCE","Basophils/Total Cells","HEMATOLOGY",NA,"0.5","%",NA,NA,"0.5",0.5,"%",NA,NA,NA,NA,NA,NA,NA,"WHOLE BLOOD",NA,NA,NA,NA,NA,NA,NA,NA,NA,NA,NA,NA,NA,NA,NA,30,"2011-01-09T07:33:26",NA,30,NA,NA,NA,NA,NA,NA
"PDS2014","LB","PDS2014-0001",NA,75,NA,NA,NA,"MICROCY","Microcytes","HEMATOLOGY",NA,"0",NA,NA,NA,"0",0,NA,NA,NA,NA,NA,NA,NA,NA,"WHOLE BLOOD",NA,NA,NA,NA,NA,NA,NA,NA,NA,NA,NA,NA,NA,NA,NA,30,"2011-01-09T07:33:26",NA,30,NA,NA,NA,NA,NA,NA
"PDS2014","LB","PDS2014-0001",NA,76,NA,NA,NA,"EOSCE","Eosinophils/Total Cells","HEMATOLOGY",NA,"1.1","%",NA,NA,"1.1",1.1,"%",NA,NA,NA,NA,NA,NA,NA,"WHOLE BLOOD",NA,NA,NA,NA,NA,NA,NA,NA,NA,NA,NA,NA,NA,NA,NA,30,"2011-01-09T07:33:26",NA,30,NA,NA,NA,NA,NA,NA
"PDS2014","LB","PDS2014-0001",NA,77,NA,NA,NA,"PLATLRG","Large Platelets","HEMATOLOGY",NA,"0",NA,NA,NA,"0",0,NA,NA,NA,NA,NA,NA,NA,NA,"WHOLE BLOOD",NA,NA,NA,NA,NA,NA,NA,NA,NA,NA,NA,NA,NA,NA,NA,30,"2011-01-09T07:33:26",NA,30,NA,NA,NA,NA,NA,NA
"PDS2014","LB","PDS2014-0001",NA,78,NA,NA,NA,"LYM","Lymphocytes","HEMATOLOGY",NA,"8.03","10^9/L",NA,NA,"8.03",8.03,"10^9/L",NA,NA,NA,NA,NA,NA,NA,"WHOLE BLOOD",NA,NA,NA,NA,NA,NA,NA,NA,NA,NA,NA,NA,NA,NA,NA,30,"2011-01-09T07:33:26",NA,30,NA,NA,NA,NA,NA,NA
"PDS2014","LB","PDS2014-0001",NA,79,NA,NA,NA,"WBC","Leukocytes","HEMATOLOGY",NA,"9.04","10^9/L",NA,NA,"9.04",9.04,"10^9/L",NA,NA,NA,NA,NA,NA,NA,"WHOLE BLOOD",NA,NA,NA,NA,NA,NA,NA,NA,NA,NA,NA,NA,NA,NA,NA,30,"2011-01-09T07:33:26",NA,30,NA,NA,NA,NA,NA,NA
"PDS2014","LB","PDS2014-0001",NA,80,NA,NA,NA,"RBCNUCLE","Nucleated Erythrocytes/Leukocytes","HEMATOLOGY",NA,"NE","%",NA,NA,"NE",NA,"%",NA,NA,NA,NA,NA,NA,NA,"WHOLE BLOOD",NA,NA,NA,NA,NA,NA,NA,NA,NA,NA,NA,NA,NA,NA,NA,30,"2011-01-09T07:33:26",NA,30,NA,NA,NA,NA,NA,NA
"PDS2014","LB","PDS2014-0001",NA,81,NA,NA,NA,"PLATCLMP","Platelet Clumps","HEMATOLOGY",NA,"0",NA,NA,NA,"0",0,NA,NA,NA,NA,NA,NA,NA,NA,"WHOLE BLOOD",NA,NA,NA,NA,NA,NA,NA,NA,NA,NA,NA,NA,NA,NA,NA,30,"2011-01-09T07:33:26",NA,30,NA,NA,NA,NA,NA,NA
"PDS2014","LB","PDS2014-0001",NA,82,NA,NA,NA,"HCT","Hematocrit","HEMATOLOGY",NA,"47.8","%",NA,NA,"47.8",47.8,"%",NA,NA,NA,NA,NA,NA,NA,"WHOLE BLOOD",NA,NA,NA,NA,NA,NA,NA,NA,NA,NA,NA,NA,NA,NA,NA,30,"2011-01-09T07:33:26",NA,30,NA,NA,NA,NA,NA,NA
"PDS2014","LB","PDS2014-0001",NA,83,NA,NA,NA,"HGB","Hemoglobin","HEMATOLOGY",NA,"16.4","g/dL",NA,NA,"16.4",16.4,"g/dL",NA,NA,NA,NA,NA,NA,NA,"WHOLE BLOOD",NA,NA,NA,NA,NA,NA,NA,NA,NA,NA,NA,NA,NA,NA,NA,30,"2011-01-09T07:33:26",NA,30,NA,NA,NA,NA,NA,NA
"PDS2014","LB","PDS2014-0001",NA,84,NA,NA,NA,"PLAT","Platelets","HEMATOLOGY",NA,"1149","10^9/L",NA,NA,"1149",1149,"10^9/L",NA,NA,NA,NA,NA,NA,NA,"WHOLE BLOOD",NA,NA,NA,NA,NA,NA,NA,NA,NA,NA,NA,NA,NA,NA,NA,30,"2011-01-09T07:33:26",NA,30,NA,NA,NA,NA,NA,NA
"PDS2014","LB","PDS2014-0001",NA,85,NA,NA,NA,"LYMCE","Lymphocytes/Total Cells","HEMATOLOGY",NA,"88.8","%",NA,NA,"88.8",88.8,"%",NA,NA,NA,NA,NA,NA,NA,"WHOLE BLOOD",NA,NA,NA,NA,NA,NA,NA,NA,NA,NA,NA,NA,NA,NA,NA,30,"2011-01-09T07:33:26",NA,30,NA,NA,NA,NA,NA,NA
"PDS2014","LB","PDS2014-0001",NA,86,NA,NA,NA,"MCH","Ery. Mean Corpuscular Hemoglobin","HEMATOLOGY",NA,"19.8","pg",NA,NA,"19.8",19.8,"pg",NA,NA,NA,NA,NA,NA,NA,"WHOLE BLOOD",NA,NA,NA,NA,NA,NA,NA,NA,NA,NA,NA,NA,NA,NA,NA,30,"2011-01-09T07:33:26",NA,30,NA,NA,NA,NA,NA,NA
"PDS2014","LB","PDS2014-0001",NA,87,NA,NA,NA,"LGUNSCE","Large Unstained Cells","HEMATOLOGY",NA,"0.04","10^9/L",NA,NA,"0.04",0.04,"10^9/L",NA,NA,NA,NA,NA,NA,NA,"WHOLE BLOOD",NA,NA,NA,NA,NA,NA,NA,NA,NA,NA,NA,NA,NA,NA,NA,30,"2011-01-09T07:33:26",NA,30,NA,NA,NA,NA,NA,NA
"PDS2014","LB","PDS2014-0001",NA,88,NA,NA,NA,"EOS","Eosinophils","HEMATOLOGY",NA,"0.1","10^9/L",NA,NA,"0.1",0.1,"10^9/L",NA,NA,NA,NA,NA,NA,NA,"WHOLE BLOOD",NA,NA,NA,NA,NA,NA,NA,NA,NA,NA,NA,NA,NA,NA,NA,30,"2011-01-09T07:33:26",NA,30,NA,NA,NA,NA,NA,NA
"PDS2014","LB","PDS2014-0001",NA,89,NA,NA,NA,"RETIRBC","Reticulocytes/Erythrocytes","HEMATOLOGY",NA,"1.6","%",NA,NA,"1.6",1.6,"%",NA,NA,NA,NA,NA,NA,NA,"WHOLE BLOOD",NA,NA,NA,NA,NA,NA,NA,NA,NA,NA,NA,NA,NA,NA,NA,30,"2011-01-09T07:33:26",NA,30,NA,NA,NA,NA,NA,NA
"PDS2014","LB","PDS2014-0001",NA,90,NA,NA,NA,"ALBGLOB","Albumin/Globulin","HEMATOLOGY",NA,"1.98","RATIO",NA,NA,"1.98",1.98,"RATIO",NA,NA,NA,NA,NA,NA,NA,"WHOLE BLOOD",NA,NA,NA,NA,NA,NA,NA,NA,NA,NA,NA,NA,NA,NA,NA,30,"2011-01-09T07:33:26",NA,30,NA,NA,NA,NA,NA,NA
"PDS2014","LB","PDS2014-0001",NA,91,NA,NA,NA,"ANISO","Anisocytes","HEMATOLOGY",NA,"0",NA,NA,NA,"0",0,NA,NA,NA,NA,NA,NA,NA,NA,"WHOLE BLOOD",NA,NA,NA,NA,NA,NA,NA,NA,NA,NA,NA,NA,NA,NA,NA,30,"2011-01-09T07:33:26",NA,30,NA,NA,NA,NA,NA,NA
"PDS2014","LB","PDS2014-0001",NA,92,NA,NA,NA,"RBC","Erythrocytes","HEMATOLOGY",NA,"8.34","10^12/L",NA,NA,"8.34",8.34,"10^12/L",NA,NA,NA,NA,NA,NA,NA,"WHOLE BLOOD",NA,NA,NA,NA,NA,NA,NA,NA,NA,NA,NA,NA,NA,NA,NA,30,"2011-01-09T07:33:26",NA,30,NA,NA,NA,NA,NA,NA
"PDS2014","LB","PDS2014-0001",NA,93,NA,NA,NA,"NEUT","Neutrophils","HEMATOLOGY",NA,"0.66","10^9/L",NA,NA,"0.66",0.66,"10^9/L",NA,NA,NA,NA,NA,NA,NA,"WHOLE BLOOD",NA,NA,NA,NA,NA,NA,NA,NA,NA,NA,NA,NA,NA,NA,NA,30,"2011-01-09T07:33:26",NA,30,NA,NA,NA,NA,NA,NA
"PDS2014","LB","PDS2014-0001",NA,94,NA,NA,NA,"MCV","Ery. Mean Corpuscular Volume","HEMATOLOGY",NA,"57.3","fL",NA,NA,"57.3",57.3,"fL",NA,NA,NA,NA,NA,NA,NA,"WHOLE BLOOD",NA,NA,NA,NA,NA,NA,NA,NA,NA,NA,NA,NA,NA,NA,NA,30,"2011-01-09T07:33:26",NA,30,NA,NA,NA,NA,NA,NA
"PDS2014","LB","PDS2014-0001",NA,95,NA,NA,NA,"BASO","Basophils","HEMATOLOGY",NA,"0.05","10^9/L",NA,NA,"0.05",0.05,"10^9/L",NA,NA,NA,NA,NA,NA,NA,"WHOLE BLOOD",NA,NA,NA,NA,NA,NA,NA,NA,NA,NA,NA,NA,NA,NA,NA,30,"2011-01-09T07:33:26",NA,30,NA,NA,NA,NA,NA,NA
"PDS2014","LB","PDS2014-0001",NA,96,NA,NA,NA,"RDW","Erythrocytes Distribution Width","HEMATOLOGY",NA,"11.6","%",NA,NA,"11.6",11.6,"%",NA,NA,NA,NA,NA,NA,NA,"WHOLE BLOOD",NA,NA,NA,NA,NA,NA,NA,NA,NA,NA,NA,NA,NA,NA,NA,30,"2011-01-09T07:33:26",NA,30,NA,NA,NA,NA,NA,NA
"PDS2014","LB","PDS2014-0001",NA,97,NA,NA,NA,"MCHC","Ery. Mean Corpuscular HGB Concentration","HEMATOLOGY",NA,"33.7","g/dL",NA,NA,"33.7",33.7,"g/dL",NA,NA,NA,NA,NA,NA,NA,"WHOLE BLOOD",NA,NA,NA,NA,NA,NA,NA,NA,NA,NA,NA,NA,NA,NA,NA,30,"2011-01-09T07:33:26",NA,30,NA,NA,NA,NA,NA,NA
"PDS2014","LB","PDS2014-0002",NA,98,NA,NA,NA,"SPGRAV","Specific Gravity","URINALYSIS",NA,"1.021","RATIO",NA,NA,"1.021",1.021,"RATIO",NA,NA,NA,NA,NA,NA,NA,"URINE",NA,NA,NA,NA,NA,NA,NA,NA,NA,NA,NA,NA,NA,NA,NA,30,"2011-01-09T07:14:22",NA,30,NA,NA,NA,NA,NA,NA
"PDS2014","LB","PDS2014-0002",NA,99,NA,NA,NA,"OCCBLD","Occult Blood","URINALYSIS",NA,"10","/uL",NA,NA,"10",10,"/uL",NA,NA,NA,NA,NA,NA,NA,"URINE",NA,NA,NA,NA,NA,NA,NA,NA,NA,NA,NA,NA,NA,NA,NA,30,"2011-01-09T07:14:22",NA,30,NA,NA,NA,NA,NA,NA
"PDS2014","LB","PDS2014-0002",NA,100,NA,NA,NA,"CLARITY","Clarity","URINALYSIS",NA,"CLEAR",NA,NA,NA,"CLEAR",NA,NA,NA,NA,NA,NA,NA,NA,NA,"URINE",NA,NA,NA,NA,NA,NA,NA,NA,NA,NA,NA,NA,NA,NA,NA,30,"2011-01-09T07:14:22",NA,30,NA,NA,NA,NA,NA,NA
"PDS2014","LB","PDS2014-0002",NA,101,NA,NA,NA,"PROT","Protein","URINALYSIS",NA,"25","mg/dL",NA,NA,"25",25,"mg/dL",NA,NA,NA,NA,NA,NA,NA,"URINE",NA,NA,NA,NA,NA,NA,NA,NA,NA,NA,NA,NA,NA,NA,NA,30,"2011-01-09T07:14:22",NA,30,NA,NA,NA,NA,NA,NA
"PDS2014","LB","PDS2014-0002",NA,102,NA,NA,NA,"KETONES","Ketones","URINALYSIS",NA,"5","mg/dL",NA,NA,"5",5,"mg/dL",NA,NA,NA,NA,NA,NA,NA,"URINE",NA,NA,NA,NA,NA,NA,NA,NA,NA,NA,NA,NA,NA,NA,NA,30,"2011-01-09T07:14:22",NA,30,NA,NA,NA,NA,NA,NA
"PDS2014","LB","PDS2014-0002",NA,103,NA,NA,NA,"PH","pH","URINALYSIS",NA,"7",NA,NA,NA,"7",7,NA,NA,NA,NA,NA,NA,NA,NA,"URINE",NA,NA,NA,NA,NA,NA,NA,NA,NA,NA,NA,NA,NA,NA,NA,30,"2011-01-09T07:14:22",NA,30,NA,NA,NA,NA,NA,NA
"PDS2014","LB","PDS2014-0002",NA,104,NA,NA,NA,"GLUC","Glucose","URINALYSIS",NA,"NORM",NA,NA,NA,"NORM",NA,NA,NA,NA,NA,NA,NA,NA,NA,"URINE",NA,NA,NA,NA,NA,NA,NA,NA,NA,NA,NA,NA,NA,NA,NA,30,"2011-01-09T07:14:22",NA,30,NA,NA,NA,NA,NA,NA
"PDS2014","LB","PDS2014-0002",NA,105,NA,NA,NA,"ALBGLOB","Albumin/Globulin","URINALYSIS",NA,"2.19","RATIO",NA,NA,"2.19",2.19,"RATIO",NA,NA,NA,NA,NA,NA,NA,"URINE",NA,NA,NA,NA,NA,NA,NA,NA,NA,NA,NA,NA,NA,NA,NA,30,"2011-01-09T07:14:22",NA,30,NA,NA,NA,NA,NA,NA
"PDS2014","LB","PDS2014-0002",NA,106,NA,NA,NA,"CSGRAN","Granular Casts","URINALYSIS",NA,"0",NA,NA,NA,"0",0,NA,NA,NA,NA,NA,NA,NA,NA,"URINE",NA,NA,NA,NA,NA,NA,NA,NA,NA,NA,NA,NA,NA,NA,NA,30,"2011-01-09T07:14:22",NA,30,NA,NA,NA,NA,NA,NA
"PDS2014","LB","PDS2014-0002",NA,107,NA,NA,NA,"CSRBC","RBC Casts","URINALYSIS",NA,"0",NA,NA,NA,"0",0,NA,NA,NA,NA,NA,NA,NA,NA,"URINE",NA,NA,NA,NA,NA,NA,NA,NA,NA,NA,NA,NA,NA,NA,NA,30,"2011-01-09T07:14:22",NA,30,NA,NA,NA,NA,NA,NA
"PDS2014","LB","PDS2014-0002",NA,108,NA,NA,NA,"RBC","Erythrocytes","URINALYSIS",NA,"0",NA,NA,NA,"0",0,NA,NA,NA,NA,NA,NA,NA,NA,"URINE",NA,NA,NA,NA,NA,NA,NA,NA,NA,NA,NA,NA,NA,NA,NA,30,"2011-01-09T07:14:22",NA,30,NA,NA,NA,NA,NA,NA
"PDS2014","LB","PDS2014-0002",NA,109,NA,NA,NA,"SPERM","Spermatozoa","URINALYSIS",NA,"0",NA,NA,NA,"0",0,NA,NA,NA,NA,NA,NA,NA,NA,"URINE",NA,NA,NA,NA,NA,NA,NA,NA,NA,NA,NA,NA,NA,NA,NA,30,"2011-01-09T07:14:22",NA,30,NA,NA,NA,NA,NA,NA
"PDS2014","LB","PDS2014-0002",NA,110,NA,NA,NA,"EPIC","Epithelial Cells","URINALYSIS",NA,"0",NA,NA,NA,"0",0,NA,NA,NA,NA,NA,NA,NA,NA,"URINE",NA,NA,NA,NA,NA,NA,NA,NA,NA,NA,NA,NA,NA,NA,NA,30,"2011-01-09T07:14:22",NA,30,NA,NA,NA,NA,NA,NA
"PDS2014","LB","PDS2014-0002",NA,111,NA,NA,NA,"CYCYSTIN","Cystine Crystals","URINALYSIS",NA,"0",NA,NA,NA,"0",0,NA,NA,NA,NA,NA,NA,NA,NA,"URINE",NA,NA,NA,NA,NA,NA,NA,NA,NA,NA,NA,NA,NA,NA,NA,30,"2011-01-09T07:14:22",NA,30,NA,NA,NA,NA,NA,NA
"PDS2014","LB","PDS2014-0002",NA,112,NA,NA,NA,"CSFAT","Fatty Casts","URINALYSIS",NA,"0",NA,NA,NA,"0",0,NA,NA,NA,NA,NA,NA,NA,NA,"URINE",NA,NA,NA,NA,NA,NA,NA,NA,NA,NA,NA,NA,NA,NA,NA,30,"2011-01-09T07:14:22",NA,30,NA,NA,NA,NA,NA,NA
"PDS2014","LB","PDS2014-0002",NA,113,NA,NA,NA,"CYCAPHOS","Calcium Phosphate Crystals","URINALYSIS",NA,"0",NA,NA,NA,"0",0,NA,NA,NA,NA,NA,NA,NA,NA,"URINE",NA,NA,NA,NA,NA,NA,NA,NA,NA,NA,NA,NA,NA,NA,NA,30,"2011-01-09T07:14:22",NA,30,NA,NA,NA,NA,NA,NA
"PDS2014","LB","PDS2014-0002",NA,114,NA,NA,NA,"CYSTARCH","Starch Crystals","URINALYSIS",NA,"0",NA,NA,NA,"0",0,NA,NA,NA,NA,NA,NA,NA,NA,"URINE",NA,NA,NA,NA,NA,NA,NA,NA,NA,NA,NA,NA,NA,NA,NA,30,"2011-01-09T07:14:22",NA,30,NA,NA,NA,NA,NA,NA
"PDS2014","LB","PDS2014-0002",NA,115,NA,NA,NA,"BACT","Bacteria","URINALYSIS",NA,"3",NA,NA,NA,"3",3,NA,NA,NA,NA,NA,NA,NA,NA,"URINE",NA,NA,NA,NA,NA,NA,NA,NA,NA,NA,NA,NA,NA,NA,NA,30,"2011-01-09T07:14:22",NA,30,NA,NA,NA,NA,NA,NA
"PDS2014","LB","PDS2014-0002",NA,116,NA,NA,NA,"EPISQCE","Squamous Epithelial Cells","URINALYSIS",NA,"1",NA,NA,NA,"1",1,NA,NA,NA,NA,NA,NA,NA,NA,"URINE",NA,NA,NA,NA,NA,NA,NA,NA,NA,NA,NA,NA,NA,NA,NA,30,"2011-01-09T07:14:22",NA,30,NA,NA,NA,NA,NA,NA
"PDS2014","LB","PDS2014-0002",NA,117,NA,NA,NA,"VOLUME","Volume","URINALYSIS",NA,"17.3","mL",NA,NA,"17.3",17.3,"mL",NA,NA,NA,NA,NA,NA,NA,"URINE",NA,NA,NA,NA,NA,NA,NA,NA,NA,NA,NA,NA,NA,NA,NA,30,"2011-01-09T07:14:22",NA,30,NA,NA,NA,NA,NA,NA
"PDS2014","LB","PDS2014-0002",NA,118,NA,NA,NA,"CSHYAL","Hyaline Casts","URINALYSIS",NA,"0",NA,NA,NA,"0",0,NA,NA,NA,NA,NA,NA,NA,NA,"URINE",NA,NA,NA,NA,NA,NA,NA,NA,NA,NA,NA,NA,NA,NA,NA,30,"2011-01-09T07:14:22",NA,30,NA,NA,NA,NA,NA,NA
"PDS2014","LB","PDS2014-0002",NA,119,NA,NA,NA,"CYURIAC","Uric Acid Crystals","URINALYSIS",NA,"0",NA,NA,NA,"0",0,NA,NA,NA,NA,NA,NA,NA,NA,"URINE",NA,NA,NA,NA,NA,NA,NA,NA,NA,NA,NA,NA,NA,NA,NA,30,"2011-01-09T07:14:22",NA,30,NA,NA,NA,NA,NA,NA
"PDS2014","LB","PDS2014-0002",NA,120,NA,NA,NA,"AMORPHSD","Amorphous Sediment","URINALYSIS",NA,"0",NA,NA,NA,"0",0,NA,NA,NA,NA,NA,NA,NA,NA,"URINE",NA,NA,NA,NA,NA,NA,NA,NA,NA,NA,NA,NA,NA,NA,NA,30,"2011-01-09T07:14:22",NA,30,NA,NA,NA,NA,NA,NA
"PDS2014","LB","PDS2014-0002",NA,121,NA,NA,NA,"FATDROP","Fat Droplet","URINALYSIS",NA,"0",NA,NA,NA,"0",0,NA,NA,NA,NA,NA,NA,NA,NA,"URINE",NA,NA,NA,NA,NA,NA,NA,NA,NA,NA,NA,NA,NA,NA,NA,30,"2011-01-09T07:14:22",NA,30,NA,NA,NA,NA,NA,NA
"PDS2014","LB","PDS2014-0002",NA,122,NA,NA,NA,"CASULPH","Calcium Sulphate","URINALYSIS",NA,"0",NA,NA,NA,"0",0,NA,NA,NA,NA,NA,NA,NA,NA,"URINE",NA,NA,NA,NA,NA,NA,NA,NA,NA,NA,NA,NA,NA,NA,NA,30,"2011-01-09T07:14:22",NA,30,NA,NA,NA,NA,NA,NA
"PDS2014","LB","PDS2014-0002",NA,123,NA,NA,NA,"CYBILI","Bilirubin Crystals","URINALYSIS",NA,"0",NA,NA,NA,"0",0,NA,NA,NA,NA,NA,NA,NA,NA,"URINE",NA,NA,NA,NA,NA,NA,NA,NA,NA,NA,NA,NA,NA,NA,NA,30,"2011-01-09T07:14:22",NA,30,NA,NA,NA,NA,NA,NA
"PDS2014","LB","PDS2014-0002",NA,124,NA,NA,NA,"CYCHOL","Cholesterol Crystals","URINALYSIS",NA,"0",NA,NA,NA,"0",0,NA,NA,NA,NA,NA,NA,NA,NA,"URINE",NA,NA,NA,NA,NA,NA,NA,NA,NA,NA,NA,NA,NA,NA,NA,30,"2011-01-09T07:14:22",NA,30,NA,NA,NA,NA,NA,NA
"PDS2014","LB","PDS2014-0002",NA,125,NA,NA,NA,"CYCACAR","Calcium Carbonate Crystals","URINALYSIS",NA,"0",NA,NA,NA,"0",0,NA,NA,NA,NA,NA,NA,NA,NA,"URINE",NA,NA,NA,NA,NA,NA,NA,NA,NA,NA,NA,NA,NA,NA,NA,30,"2011-01-09T07:14:22",NA,30,NA,NA,NA,NA,NA,NA
"PDS2014","LB","PDS2014-0002",NA,126,NA,NA,NA,"EPITUCE","Tubular Epithelial Cells","URINALYSIS",NA,"0",NA,NA,NA,"0",0,NA,NA,NA,NA,NA,NA,NA,NA,"URINE",NA,NA,NA,NA,NA,NA,NA,NA,NA,NA,NA,NA,NA,NA,NA,30,"2011-01-09T07:14:22",NA,30,NA,NA,NA,NA,NA,NA
"PDS2014","LB","PDS2014-0002",NA,127,NA,NA,NA,"COLOR","Color","URINALYSIS",NA,"PALE",NA,NA,NA,"PALE",NA,NA,NA,NA,NA,NA,NA,NA,NA,"URINE",NA,NA,NA,NA,NA,NA,NA,NA,NA,NA,NA,NA,NA,NA,NA,30,"2011-01-09T07:14:22",NA,30,NA,NA,NA,NA,NA,NA
"PDS2014","LB","PDS2014-0002",NA,128,NA,NA,NA,"CYTRPHOS","Triple Phosphate Crystals","URINALYSIS",NA,"2",NA,NA,NA,"2",2,NA,NA,NA,NA,NA,NA,NA,NA,"URINE",NA,NA,NA,NA,NA,NA,NA,NA,NA,NA,NA,NA,NA,NA,NA,30,"2011-01-09T07:14:22",NA,30,NA,NA,NA,NA,NA,NA
"PDS2014","LB","PDS2014-0002",NA,129,NA,NA,NA,"CYTYRO","Tyrosine Crystals","URINALYSIS",NA,"0",NA,NA,NA,"0",0,NA,NA,NA,NA,NA,NA,NA,NA,"URINE",NA,NA,NA,NA,NA,NA,NA,NA,NA,NA,NA,NA,NA,NA,NA,30,"2011-01-09T07:14:22",NA,30,NA,NA,NA,NA,NA,NA
"PDS2014","LB","PDS2014-0002",NA,130,NA,NA,NA,"CSEPI","Epithelial Casts","URINALYSIS",NA,"0",NA,NA,NA,"0",0,NA,NA,NA,NA,NA,NA,NA,NA,"URINE",NA,NA,NA,NA,NA,NA,NA,NA,NA,NA,NA,NA,NA,NA,NA,30,"2011-01-09T07:14:22",NA,30,NA,NA,NA,NA,NA,NA
"PDS2014","LB","PDS2014-0002",NA,131,NA,NA,NA,"CSWBC","WBC Casts","URINALYSIS",NA,"0",NA,NA,NA,"0",0,NA,NA,NA,NA,NA,NA,NA,NA,"URINE",NA,NA,NA,NA,NA,NA,NA,NA,NA,NA,NA,NA,NA,NA,NA,30,"2011-01-09T07:14:22",NA,30,NA,NA,NA,NA,NA,NA
"PDS2014","LB","PDS2014-0002",NA,132,NA,NA,NA,"WBC","Leukocytes","URINALYSIS",NA,"0",NA,NA,NA,"0",0,NA,NA,NA,NA,NA,NA,NA,NA,"URINE",NA,NA,NA,NA,NA,NA,NA,NA,NA,NA,NA,NA,NA,NA,NA,30,"2011-01-09T07:14:22",NA,30,NA,NA,NA,NA,NA,NA
"PDS2014","LB","PDS2014-0002",NA,133,NA,NA,NA,"GLOBUL","Globulin","URINALYSIS",NA,"1.94","g/dL",NA,NA,"1.94",1.94,"g/dL",NA,NA,NA,NA,NA,NA,NA,"URINE",NA,NA,NA,NA,NA,NA,NA,NA,NA,NA,NA,NA,NA,NA,NA,30,"2011-01-09T07:14:22",NA,30,NA,NA,NA,NA,NA,NA
"PDS2014","LB","PDS2014-0002",NA,134,NA,NA,NA,"CSWAX","Waxy Casts","URINALYSIS",NA,"0",NA,NA,NA,"0",0,NA,NA,NA,NA,NA,NA,NA,NA,"URINE",NA,NA,NA,NA,NA,NA,NA,NA,NA,NA,NA,NA,NA,NA,NA,30,"2011-01-09T07:14:22",NA,30,NA,NA,NA,NA,NA,NA
"PDS2014","LB","PDS2014-0002",NA,135,NA,NA,NA,"YEAST","Yeast Cells","URINALYSIS",NA,"0",NA,NA,NA,"0",0,NA,NA,NA,NA,NA,NA,NA,NA,"URINE",NA,NA,NA,NA,NA,NA,NA,NA,NA,NA,NA,NA,NA,NA,NA,30,"2011-01-09T07:14:22",NA,30,NA,NA,NA,NA,NA,NA
"PDS2014","LB","PDS2014-0002",NA,136,NA,NA,NA,"CYCAOXA","Calcium Oxalate Crystals","URINALYSIS",NA,"0",NA,NA,NA,"0",0,NA,NA,NA,NA,NA,NA,NA,NA,"URINE",NA,NA,NA,NA,NA,NA,NA,NA,NA,NA,NA,NA,NA,NA,NA,30,"2011-01-09T07:14:22",NA,30,NA,NA,NA,NA,NA,NA
"PDS2014","LB","PDS2014-0002",NA,137,NA,NA,NA,"K","Potassium","CLINICAL CHEMISTRY",NA,"5.21","mmol/L",NA,NA,"5.21",5.21,"mmol/L",NA,NA,NA,NA,NA,NA,NA,"SERUM",NA,NA,NA,NA,NA,NA,NA,NA,NA,NA,NA,NA,NA,NA,NA,30,"2011-01-09T07:35:50",NA,30,NA,NA,NA,NA,NA,NA
"PDS2014","LB","PDS2014-0002",NA,138,NA,NA,NA,"TRIG","Triglycerides","CLINICAL CHEMISTRY",NA,"47.8","mg/dL",NA,NA,"47.8",47.8,"mg/dL",NA,NA,NA,NA,NA,NA,NA,"SERUM",NA,NA,NA,NA,NA,NA,NA,NA,NA,NA,NA,NA,NA,NA,NA,30,"2011-01-09T07:35:50",NA,30,NA,NA,NA,NA,NA,NA
"PDS2014","LB","PDS2014-0002",NA,139,NA,NA,NA,"ALT","Alanine Aminotransferase","CLINICAL CHEMISTRY",NA,"35.7","U/L",NA,NA,"35.7",35.7,"U/L",NA,NA,NA,NA,NA,NA,NA,"SERUM",NA,NA,NA,NA,NA,NA,NA,NA,NA,NA,NA,NA,NA,NA,NA,30,"2011-01-09T07:35:50",NA,30,NA,NA,NA,NA,NA,NA
"PDS2014","LB","PDS2014-0002",NA,140,NA,NA,NA,"SODIUM","Sodium","CLINICAL CHEMISTRY",NA,"144","mmol/L",NA,NA,"144",144,"mmol/L",NA,NA,NA,NA,NA,NA,NA,"SERUM",NA,NA,NA,NA,NA,NA,NA,NA,NA,NA,NA,NA,NA,NA,NA,30,"2011-01-09T07:35:50",NA,30,NA,NA,NA,NA,NA,NA
"PDS2014","LB","PDS2014-0002",NA,141,NA,NA,NA,"GGT","Gamma Glutamyl Transferase","CLINICAL CHEMISTRY",NA,"HS","U/L",NA,NA,"HS",NA,"U/L",NA,NA,NA,NA,NA,NA,NA,"SERUM",NA,NA,NA,NA,NA,NA,NA,NA,NA,NA,NA,NA,NA,NA,NA,30,"2011-01-09T07:35:50",NA,30,NA,NA,NA,NA,NA,NA
"PDS2014","LB","PDS2014-0002",NA,142,NA,NA,NA,"CA","Calcium","CLINICAL CHEMISTRY",NA,"9.89","mg/dL",NA,NA,"9.89",9.89,"mg/dL",NA,NA,NA,NA,NA,NA,NA,"SERUM",NA,NA,NA,NA,NA,NA,NA,NA,NA,NA,NA,NA,NA,NA,NA,30,"2011-01-09T07:35:50",NA,30,NA,NA,NA,NA,NA,NA
"PDS2014","LB","PDS2014-0002",NA,143,NA,NA,NA,"CL","Chloride","CLINICAL CHEMISTRY",NA,"99.1","mmol/L",NA,NA,"99.1",99.1,"mmol/L",NA,NA,NA,NA,NA,NA,NA,"SERUM",NA,NA,NA,NA,NA,NA,NA,NA,NA,NA,NA,NA,NA,NA,NA,30,"2011-01-09T07:35:50",NA,30,NA,NA,NA,NA,NA,NA
"PDS2014","LB","PDS2014-0002",NA,144,NA,NA,NA,"CHOL","Cholesterol","CLINICAL CHEMISTRY",NA,"55","mg/dL",NA,NA,"55",55,"mg/dL",NA,NA,NA,NA,NA,NA,NA,"SERUM",NA,NA,NA,NA,NA,NA,NA,NA,NA,NA,NA,NA,NA,NA,NA,30,"2011-01-09T07:35:50",NA,30,NA,NA,NA,NA,NA,NA
"PDS2014","LB","PDS2014-0002",NA,145,NA,NA,NA,"BILI","Bilirubin","CLINICAL CHEMISTRY",NA,"0.123","mg/dL",NA,NA,"0.123",0.123,"mg/dL",NA,NA,NA,NA,NA,NA,NA,"SERUM",NA,NA,NA,NA,NA,NA,NA,NA,NA,NA,NA,NA,NA,NA,NA,30,"2011-01-09T07:35:50",NA,30,NA,NA,NA,NA,NA,NA
"PDS2014","LB","PDS2014-0002",NA,146,NA,NA,NA,"CREAT","Creatinine","CLINICAL CHEMISTRY",NA,"0.22","mg/dL",NA,NA,"0.22",0.22,"mg/dL",NA,NA,NA,NA,NA,NA,NA,"SERUM",NA,NA,NA,NA,NA,NA,NA,NA,NA,NA,NA,NA,NA,NA,NA,30,"2011-01-09T07:35:50",NA,30,NA,NA,NA,NA,NA,NA
"PDS2014","LB","PDS2014-0002",NA,147,NA,NA,NA,"PROT","Protein","CLINICAL CHEMISTRY",NA,"6.19","g/dL",NA,NA,"6.19",6.19,"g/dL",NA,NA,NA,NA,NA,NA,NA,"SERUM",NA,NA,NA,NA,NA,NA,NA,NA,NA,NA,NA,NA,NA,NA,NA,30,"2011-01-09T07:35:50",NA,30,NA,NA,NA,NA,NA,NA
"PDS2014","LB","PDS2014-0002",NA,148,NA,NA,NA,"ALP","Alkaline Phosphatase","CLINICAL CHEMISTRY",NA,"120.5","U/L",NA,NA,"120.5",120.5,"U/L",NA,NA,NA,NA,NA,NA,NA,"SERUM",NA,NA,NA,NA,NA,NA,NA,NA,NA,NA,NA,NA,NA,NA,NA,30,"2011-01-09T07:35:50",NA,30,NA,NA,NA,NA,NA,NA
"PDS2014","LB","PDS2014-0002",NA,149,NA,NA,NA,"AST","Aspartate Aminotransferase","CLINICAL CHEMISTRY",NA,"130.2","U/L",NA,NA,"130.2",130.2,"U/L",NA,NA,NA,NA,NA,NA,NA,"SERUM",NA,NA,NA,NA,NA,NA,NA,NA,NA,NA,NA,NA,NA,NA,NA,30,"2011-01-09T07:35:50",NA,30,NA,NA,NA,NA,NA,NA
"PDS2014","LB","PDS2014-0002",NA,150,NA,NA,NA,"ALBGLOB","Albumin/Globulin","CLINICAL CHEMISTRY",NA,"2.19","RATIO",NA,NA,"2.19",2.19,"RATIO",NA,NA,NA,NA,NA,NA,NA,"SERUM",NA,NA,NA,NA,NA,NA,NA,NA,NA,NA,NA,NA,NA,NA,NA,30,"2011-01-09T07:35:50",NA,30,NA,NA,NA,NA,NA,NA
"PDS2014","LB","PDS2014-0002",NA,151,NA,NA,NA,"GLOBUL","Globulin","CLINICAL CHEMISTRY",NA,"1.94","g/dL",NA,NA,"1.94",1.94,"g/dL",NA,NA,NA,NA,NA,NA,NA,"SERUM",NA,NA,NA,NA,NA,NA,NA,NA,NA,NA,NA,NA,NA,NA,NA,30,"2011-01-09T07:35:50",NA,30,NA,NA,NA,NA,NA,NA
"PDS2014","LB","PDS2014-0002",NA,152,NA,NA,NA,"GLUC","Glucose","CLINICAL CHEMISTRY",NA,"109","mg/dL",NA,NA,"109",109,"mg/dL",NA,NA,NA,NA,NA,NA,NA,"SERUM",NA,NA,NA,NA,NA,NA,NA,NA,NA,NA,NA,NA,NA,NA,NA,30,"2011-01-09T07:35:50",NA,30,NA,NA,NA,NA,NA,NA
"PDS2014","LB","PDS2014-0002",NA,153,NA,NA,NA,"BUN","Blood Urea Nitrogen","CLINICAL CHEMISTRY",NA,"15.3","mg/dL",NA,NA,"15.3",15.3,"mg/dL",NA,NA,NA,NA,NA,NA,NA,"SERUM",NA,NA,NA,NA,NA,NA,NA,NA,NA,NA,NA,NA,NA,NA,NA,30,"2011-01-09T07:35:50",NA,30,NA,NA,NA,NA,NA,NA
"PDS2014","LB","PDS2014-0002",NA,154,NA,NA,NA,"PHOS","Phosphate","CLINICAL CHEMISTRY",NA,"7.8","mg/dL",NA,NA,"7.8",7.8,"mg/dL",NA,NA,NA,NA,NA,NA,NA,"SERUM",NA,NA,NA,NA,NA,NA,NA,NA,NA,NA,NA,NA,NA,NA,NA,30,"2011-01-09T07:35:50",NA,30,NA,NA,NA,NA,NA,NA
"PDS2014","LB","PDS2014-0002",NA,155,NA,NA,NA,"ALB","Albumin","CLINICAL CHEMISTRY",NA,"4.25","g/dL",NA,NA,"4.25",4.25,"g/dL",NA,NA,NA,NA,NA,NA,NA,"SERUM",NA,NA,NA,NA,NA,NA,NA,NA,NA,NA,NA,NA,NA,NA,NA,30,"2011-01-09T07:35:50",NA,30,NA,NA,NA,NA,NA,NA
"PDS2014","LB","PDS2014-0002",NA,156,NA,NA,NA,"FIBRINO","Fibrinogen","COAGULATION",NA,"147","mg/dL",NA,NA,"147",147,"mg/dL",NA,NA,NA,NA,NA,NA,NA,"PLASMA",NA,NA,NA,NA,NA,NA,NA,NA,NA,NA,NA,NA,NA,NA,NA,30,"2011-01-09T07:35:44",NA,30,NA,NA,NA,NA,NA,NA
"PDS2014","LB","PDS2014-0002",NA,157,NA,NA,NA,"APTT","Activated Partial Thromboplastin Time","COAGULATION",NA,"14.6","sec",NA,NA,"14.6",14.6,"sec",NA,NA,NA,NA,NA,NA,NA,"PLASMA",NA,NA,NA,NA,NA,NA,NA,NA,NA,NA,NA,NA,NA,NA,NA,30,"2011-01-09T07:35:44",NA,30,NA,NA,NA,NA,NA,NA
"PDS2014","LB","PDS2014-0002",NA,158,NA,NA,NA,"PT","Prothrombin Time","COAGULATION",NA,"12.3","sec",NA,NA,"12.3",12.3,"sec",NA,NA,NA,NA,NA,NA,NA,"PLASMA",NA,NA,NA,NA,NA,NA,NA,NA,NA,NA,NA,NA,NA,NA,NA,30,"2011-01-09T07:35:44",NA,30,NA,NA,NA,NA,NA,NA
"PDS2014","LB","PDS2014-0002",NA,159,NA,NA,NA,"ALBGLOB","Albumin/Globulin","COAGULATION",NA,"2.19","RATIO",NA,NA,"2.19",2.19,"RATIO",NA,NA,NA,NA,NA,NA,NA,"PLASMA",NA,NA,NA,NA,NA,NA,NA,NA,NA,NA,NA,NA,NA,NA,NA,30,"2011-01-09T07:35:44",NA,30,NA,NA,NA,NA,NA,NA
"PDS2014","LB","PDS2014-0002",NA,160,NA,NA,NA,"GLOBUL","Globulin","COAGULATION",NA,"1.94","g/dL",NA,NA,"1.94",1.94,"g/dL",NA,NA,NA,NA,NA,NA,NA,"PLASMA",NA,NA,NA,NA,NA,NA,NA,NA,NA,NA,NA,NA,NA,NA,NA,30,"2011-01-09T07:35:44",NA,30,NA,NA,NA,NA,NA,NA
"PDS2014","LB","PDS2014-0002",NA,161,NA,NA,NA,"FATACFR","Free Fatty Acid","CLINICAL CHEMISTRY",NA,"0.57","mmol/L",NA,NA,"0.57",0.57,"mmol/L",NA,NA,NA,NA,NA,NA,NA,"SERUM",NA,NA,NA,NA,NA,NA,NA,NA,NA,NA,NA,NA,NA,NA,NA,30,"2011-01-09T11:21:29",NA,30,NA,NA,NA,NA,NA,NA
"PDS2014","LB","PDS2014-0002",NA,162,NA,NA,NA,"MICROCY","Microcytes","HEMATOLOGY",NA,"0",NA,NA,NA,"0",0,NA,NA,NA,NA,NA,NA,NA,NA,"WHOLE BLOOD",NA,NA,NA,NA,NA,NA,NA,NA,NA,NA,NA,NA,NA,NA,NA,30,"2011-01-09T07:35:34",NA,30,NA,NA,NA,NA,NA,NA
"PDS2014","LB","PDS2014-0002",NA,163,NA,NA,NA,"ANISO","Anisocytes","HEMATOLOGY",NA,"0",NA,NA,NA,"0",0,NA,NA,NA,NA,NA,NA,NA,NA,"WHOLE BLOOD",NA,NA,NA,NA,NA,NA,NA,NA,NA,NA,NA,NA,NA,NA,NA,30,"2011-01-09T07:35:34",NA,30,NA,NA,NA,NA,NA,NA
"PDS2014","LB","PDS2014-0002",NA,164,NA,NA,NA,"RETI","Reticulocytes","HEMATOLOGY",NA,"174.6","10^9/L",NA,NA,"174.6",174.6,"10^9/L",NA,NA,NA,NA,NA,NA,NA,"WHOLE BLOOD",NA,NA,NA,NA,NA,NA,NA,NA,NA,NA,NA,NA,NA,NA,NA,30,"2011-01-09T07:35:34",NA,30,NA,NA,NA,NA,NA,NA
"PDS2014","LB","PDS2014-0002",NA,165,NA,NA,NA,"WBC","Leukocytes","HEMATOLOGY",NA,"13.02","10^9/L",NA,NA,"13.02",13.02,"10^9/L",NA,NA,NA,NA,NA,NA,NA,"WHOLE BLOOD",NA,NA,NA,NA,NA,NA,NA,NA,NA,NA,NA,NA,NA,NA,NA,30,"2011-01-09T07:35:34",NA,30,NA,NA,NA,NA,NA,NA
"PDS2014","LB","PDS2014-0002",NA,166,NA,NA,NA,"HGB","Hemoglobin","HEMATOLOGY",NA,"16.3","g/dL",NA,NA,"16.3",16.3,"g/dL",NA,NA,NA,NA,NA,NA,NA,"WHOLE BLOOD",NA,NA,NA,NA,NA,NA,NA,NA,NA,NA,NA,NA,NA,NA,NA,30,"2011-01-09T07:35:34",NA,30,NA,NA,NA,NA,NA,NA
"PDS2014","LB","PDS2014-0002",NA,167,NA,NA,NA,"HYPERCHR","Hyperchromia","HEMATOLOGY",NA,"1",NA,NA,NA,"1",1,NA,NA,NA,NA,NA,NA,NA,NA,"WHOLE BLOOD",NA,NA,NA,NA,NA,NA,NA,NA,NA,NA,NA,NA,NA,NA,NA,30,"2011-01-09T07:35:34",NA,30,NA,NA,NA,NA,NA,NA
"PDS2014","LB","PDS2014-0002",NA,168,NA,NA,NA,"MACROCY","Macrocytes","HEMATOLOGY",NA,"0",NA,NA,NA,"0",0,NA,NA,NA,NA,NA,NA,NA,NA,"WHOLE BLOOD",NA,NA,NA,NA,NA,NA,NA,NA,NA,NA,NA,NA,NA,NA,NA,30,"2011-01-09T07:35:34",NA,30,NA,NA,NA,NA,NA,NA
"PDS2014","LB","PDS2014-0002",NA,169,NA,NA,NA,"NEUTCE","Neutrophils/Total Cells","HEMATOLOGY",NA,"8.1","%",NA,NA,"8.1",8.1,"%",NA,NA,NA,NA,NA,NA,NA,"WHOLE BLOOD",NA,NA,NA,NA,NA,NA,NA,NA,NA,NA,NA,NA,NA,NA,NA,30,"2011-01-09T07:35:34",NA,30,NA,NA,NA,NA,NA,NA
"PDS2014","LB","PDS2014-0002",NA,170,NA,NA,NA,"RDW","Erythrocytes Distribution Width","HEMATOLOGY",NA,"12.3","%",NA,NA,"12.3",12.3,"%",NA,NA,NA,NA,NA,NA,NA,"WHOLE BLOOD",NA,NA,NA,NA,NA,NA,NA,NA,NA,NA,NA,NA,NA,NA,NA,30,"2011-01-09T07:35:34",NA,30,NA,NA,NA,NA,NA,NA
"PDS2014","LB","PDS2014-0002",NA,171,NA,NA,NA,"BASOCE","Basophils/Total Cells","HEMATOLOGY",NA,"0.7","%",NA,NA,"0.7",0.7,"%",NA,NA,NA,NA,NA,NA,NA,"WHOLE BLOOD",NA,NA,NA,NA,NA,NA,NA,NA,NA,NA,NA,NA,NA,NA,NA,30,"2011-01-09T07:35:34",NA,30,NA,NA,NA,NA,NA,NA
"PDS2014","LB","PDS2014-0002",NA,172,NA,NA,NA,"GLOBUL","Globulin","HEMATOLOGY",NA,"1.94","g/dL",NA,NA,"1.94",1.94,"g/dL",NA,NA,NA,NA,NA,NA,NA,"WHOLE BLOOD",NA,NA,NA,NA,NA,NA,NA,NA,NA,NA,NA,NA,NA,NA,NA,30,"2011-01-09T07:35:34",NA,30,NA,NA,NA,NA,NA,NA
"PDS2014","LB","PDS2014-0002",NA,173,NA,NA,NA,"RBC","Erythrocytes","HEMATOLOGY",NA,"8.14","10^12/L",NA,NA,"8.14",8.14,"10^12/L",NA,NA,NA,NA,NA,NA,NA,"WHOLE BLOOD",NA,NA,NA,NA,NA,NA,NA,NA,NA,NA,NA,NA,NA,NA,NA,30,"2011-01-09T07:35:34",NA,30,NA,NA,NA,NA,NA,NA
"PDS2014","LB","PDS2014-0002",NA,174,NA,NA,NA,"BASO","Basophils","HEMATOLOGY",NA,"0.09","10^9/L",NA,NA,"0.09",0.09,"10^9/L",NA,NA,NA,NA,NA,NA,NA,"WHOLE BLOOD",NA,NA,NA,NA,NA,NA,NA,NA,NA,NA,NA,NA,NA,NA,NA,30,"2011-01-09T07:35:34",NA,30,NA,NA,NA,NA,NA,NA
"PDS2014","LB","PDS2014-0002",NA,175,NA,NA,NA,"PLAT","Platelets","HEMATOLOGY",NA,"947","10^9/L",NA,NA,"947",947,"10^9/L",NA,NA,NA,NA,NA,NA,NA,"WHOLE BLOOD",NA,NA,NA,NA,NA,NA,NA,NA,NA,NA,NA,NA,NA,NA,NA,30,"2011-01-09T07:35:34",NA,30,NA,NA,NA,NA,NA,NA
"PDS2014","LB","PDS2014-0002",NA,176,NA,NA,NA,"EOSCE","Eosinophils/Total Cells","HEMATOLOGY",NA,"1","%",NA,NA,"1",1,"%",NA,NA,NA,NA,NA,NA,NA,"WHOLE BLOOD",NA,NA,NA,NA,NA,NA,NA,NA,NA,NA,NA,NA,NA,NA,NA,30,"2011-01-09T07:35:34",NA,30,NA,NA,NA,NA,NA,NA
"PDS2014","LB","PDS2014-0002",NA,177,NA,NA,NA,"MONOCE","Monocytes/Total Cells","HEMATOLOGY",NA,"2.3","%",NA,NA,"2.3",2.3,"%",NA,NA,NA,NA,NA,NA,NA,"WHOLE BLOOD",NA,NA,NA,NA,NA,NA,NA,NA,NA,NA,NA,NA,NA,NA,NA,30,"2011-01-09T07:35:34",NA,30,NA,NA,NA,NA,NA,NA
"PDS2014","LB","PDS2014-0002",NA,178,NA,NA,NA,"LGLUCLE","Large Unstained Cells/Leukocytes","HEMATOLOGY",NA,"0.8","%",NA,NA,"0.8",0.8,"%",NA,NA,NA,NA,NA,NA,NA,"WHOLE BLOOD",NA,NA,NA,NA,NA,NA,NA,NA,NA,NA,NA,NA,NA,NA,NA,30,"2011-01-09T07:35:34",NA,30,NA,NA,NA,NA,NA,NA
"PDS2014","LB","PDS2014-0002",NA,179,NA,NA,NA,"RBCNUCLE","Nucleated Erythrocytes/Leukocytes","HEMATOLOGY",NA,"NE","%",NA,NA,"NE",NA,"%",NA,NA,NA,NA,NA,NA,NA,"WHOLE BLOOD",NA,NA,NA,NA,NA,NA,NA,NA,NA,NA,NA,NA,NA,NA,NA,30,"2011-01-09T07:35:34",NA,30,NA,NA,NA,NA,NA,NA
"PDS2014","LB","PDS2014-0002",NA,180,NA,NA,NA,"EOS","Eosinophils","HEMATOLOGY",NA,"0.13","10^9/L",NA,NA,"0.13",0.13,"10^9/L",NA,NA,NA,NA,NA,NA,NA,"WHOLE BLOOD",NA,NA,NA,NA,NA,NA,NA,NA,NA,NA,NA,NA,NA,NA,NA,30,"2011-01-09T07:35:34",NA,30,NA,NA,NA,NA,NA,NA
"PDS2014","LB","PDS2014-0002",NA,181,NA,NA,NA,"LYM","Lymphocytes","HEMATOLOGY",NA,"11.34","10^9/L",NA,NA,"11.34",11.34,"10^9/L",NA,NA,NA,NA,NA,NA,NA,"WHOLE BLOOD",NA,NA,NA,NA,NA,NA,NA,NA,NA,NA,NA,NA,NA,NA,NA,30,"2011-01-09T07:35:34",NA,30,NA,NA,NA,NA,NA,NA
"PDS2014","LB","PDS2014-0002",NA,182,NA,NA,NA,"ALBGLOB","Albumin/Globulin","HEMATOLOGY",NA,"2.19","RATIO",NA,NA,"2.19",2.19,"RATIO",NA,NA,NA,NA,NA,NA,NA,"WHOLE BLOOD",NA,NA,NA,NA,NA,NA,NA,NA,NA,NA,NA,NA,NA,NA,NA,30,"2011-01-09T07:35:34",NA,30,NA,NA,NA,NA,NA,NA
"PDS2014","LB","PDS2014-0002",NA,183,NA,NA,NA,"MCH","Ery. Mean Corpuscular Hemoglobin","HEMATOLOGY",NA,"20","pg",NA,NA,"20",20,"pg",NA,NA,NA,NA,NA,NA,NA,"WHOLE BLOOD",NA,NA,NA,NA,NA,NA,NA,NA,NA,NA,NA,NA,NA,NA,NA,30,"2011-01-09T07:35:34",NA,30,NA,NA,NA,NA,NA,NA
"PDS2014","LB","PDS2014-0002",NA,184,NA,NA,NA,"HCT","Hematocrit","HEMATOLOGY",NA,"47.4","%",NA,NA,"47.4",47.4,"%",NA,NA,NA,NA,NA,NA,NA,"WHOLE BLOOD",NA,NA,NA,NA,NA,NA,NA,NA,NA,NA,NA,NA,NA,NA,NA,30,"2011-01-09T07:35:34",NA,30,NA,NA,NA,NA,NA,NA
"PDS2014","LB","PDS2014-0002",NA,185,NA,NA,NA,"PLATLRG","Large Platelets","HEMATOLOGY",NA,"0",NA,NA,NA,"0",0,NA,NA,NA,NA,NA,NA,NA,NA,"WHOLE BLOOD",NA,NA,NA,NA,NA,NA,NA,NA,NA,NA,NA,NA,NA,NA,NA,30,"2011-01-09T07:35:34",NA,30,NA,NA,NA,NA,NA,NA
"PDS2014","LB","PDS2014-0002",NA,186,NA,NA,NA,"PLATCLMP","Platelet Clumps","HEMATOLOGY",NA,"0",NA,NA,NA,"0",0,NA,NA,NA,NA,NA,NA,NA,NA,"WHOLE BLOOD",NA,NA,NA,NA,NA,NA,NA,NA,NA,NA,NA,NA,NA,NA,NA,30,"2011-01-09T07:35:34",NA,30,NA,NA,NA,NA,NA,NA
"PDS2014","LB","PDS2014-0002",NA,187,NA,NA,NA,"MCHC","Ery. Mean Corpuscular HGB Concentration","HEMATOLOGY",NA,"33.9","g/dL",NA,NA,"33.9",33.9,"g/dL",NA,NA,NA,NA,NA,NA,NA,"WHOLE BLOOD",NA,NA,NA,NA,NA,NA,NA,NA,NA,NA,NA,NA,NA,NA,NA,30,"2011-01-09T07:35:34",NA,30,NA,NA,NA,NA,NA,NA
"PDS2014","LB","PDS2014-0002",NA,188,NA,NA,NA,"HPOCROM","Hypochromia","HEMATOLOGY",NA,"0",NA,NA,NA,"0",0,NA,NA,NA,NA,NA,NA,NA,NA,"WHOLE BLOOD",NA,NA,NA,NA,NA,NA,NA,NA,NA,NA,NA,NA,NA,NA,NA,30,"2011-01-09T07:35:34",NA,30,NA,NA,NA,NA,NA,NA
"PDS2014","LB","PDS2014-0002",NA,189,NA,NA,NA,"LGUNSCE","Large Unstained Cells","HEMATOLOGY",NA,"0.11","10^9/L",NA,NA,"0.11",0.11,"10^9/L",NA,NA,NA,NA,NA,NA,NA,"WHOLE BLOOD",NA,NA,NA,NA,NA,NA,NA,NA,NA,NA,NA,NA,NA,NA,NA,30,"2011-01-09T07:35:34",NA,30,NA,NA,NA,NA,NA,NA
"PDS2014","LB","PDS2014-0002",NA,190,NA,NA,NA,"MCV","Ery. Mean Corpuscular Volume","HEMATOLOGY",NA,"58.2","fL",NA,NA,"58.2",58.2,"fL",NA,NA,NA,NA,NA,NA,NA,"WHOLE BLOOD",NA,NA,NA,NA,NA,NA,NA,NA,NA,NA,NA,NA,NA,NA,NA,30,"2011-01-09T07:35:34",NA,30,NA,NA,NA,NA,NA,NA
"PDS2014","LB","PDS2014-0002",NA,191,NA,NA,NA,"NEUT","Neutrophils","HEMATOLOGY",NA,"1.06","10^9/L",NA,NA,"1.06",1.06,"10^9/L",NA,NA,NA,NA,NA,NA,NA,"WHOLE BLOOD",NA,NA,NA,NA,NA,NA,NA,NA,NA,NA,NA,NA,NA,NA,NA,30,"2011-01-09T07:35:34",NA,30,NA,NA,NA,NA,NA,NA
"PDS2014","LB","PDS2014-0002",NA,192,NA,NA,NA,"RETIRBC","Reticulocytes/Erythrocytes","HEMATOLOGY",NA,"2.1","%",NA,NA,"2.1",2.1,"%",NA,NA,NA,NA,NA,NA,NA,"WHOLE BLOOD",NA,NA,NA,NA,NA,NA,NA,NA,NA,NA,NA,NA,NA,NA,NA,30,"2011-01-09T07:35:34",NA,30,NA,NA,NA,NA,NA,NA
"PDS2014","LB","PDS2014-0002",NA,193,NA,NA,NA,"LYMCE","Lymphocytes/Total Cells","HEMATOLOGY",NA,"87.1","%",NA,NA,"87.1",87.1,"%",NA,NA,NA,NA,NA,NA,NA,"WHOLE BLOOD",NA,NA,NA,NA,NA,NA,NA,NA,NA,NA,NA,NA,NA,NA,NA,30,"2011-01-09T07:35:34",NA,30,NA,NA,NA,NA,NA,NA
"PDS2014","LB","PDS2014-0002",NA,194,NA,NA,NA,"MONO","Monocytes","HEMATOLOGY",NA,"0.3","10^9/L",NA,NA,"0.3",0.3,"10^9/L",NA,NA,NA,NA,NA,NA,NA,"WHOLE BLOOD",NA,NA,NA,NA,NA,NA,NA,NA,NA,NA,NA,NA,NA,NA,NA,30,"2011-01-09T07:35:34",NA,30,NA,NA,NA,NA,NA,NA
"PDS2014","LB","PDS2014-0003",NA,195,NA,NA,NA,"FATACFR","Free Fatty Acid","CLINICAL CHEMISTRY",NA,"0.42","mmol/L",NA,NA,"0.42",0.42,"mmol/L",NA,NA,NA,NA,NA,NA,NA,"SERUM",NA,NA,NA,NA,NA,NA,NA,NA,NA,NA,NA,NA,NA,NA,NA,30,"2011-01-09T00:00:00",NA,30,NA,NA,NA,NA,NA,NA
"PDS2014","LB","PDS2014-0003",NA,196,NA,NA,NA,"LGUNSCE","Large Unstained Cells","HEMATOLOGY",NA,"0.09","10^9/L",NA,NA,"0.09",0.09,"10^9/L",NA,NA,NA,NA,NA,NA,NA,"WHOLE BLOOD",NA,NA,NA,NA,NA,NA,NA,NA,NA,NA,NA,NA,NA,NA,NA,30,"2011-01-09T07:43:02",NA,30,NA,NA,NA,NA,NA,NA
"PDS2014","LB","PDS2014-0003",NA,197,NA,NA,NA,"PLATCLMP","Platelet Clumps","HEMATOLOGY",NA,"0",NA,NA,NA,"0",0,NA,NA,NA,NA,NA,NA,NA,NA,"WHOLE BLOOD",NA,NA,NA,NA,NA,NA,NA,NA,NA,NA,NA,NA,NA,NA,NA,30,"2011-01-09T07:43:02",NA,30,NA,NA,NA,NA,NA,NA
"PDS2014","LB","PDS2014-0003",NA,198,NA,NA,NA,"HCT","Hematocrit","HEMATOLOGY",NA,"48.6","%",NA,NA,"48.6",48.6,"%",NA,NA,NA,NA,NA,NA,NA,"WHOLE BLOOD",NA,NA,NA,NA,NA,NA,NA,NA,NA,NA,NA,NA,NA,NA,NA,30,"2011-01-09T07:43:02",NA,30,NA,NA,NA,NA,NA,NA
"PDS2014","LB","PDS2014-0003",NA,199,NA,NA,NA,"PLAT","Platelets","HEMATOLOGY",NA,"1009","10^9/L",NA,NA,"1009",1009,"10^9/L",NA,NA,NA,NA,NA,NA,NA,"WHOLE BLOOD",NA,NA,NA,NA,NA,NA,NA,NA,NA,NA,NA,NA,NA,NA,NA,30,"2011-01-09T07:43:02",NA,30,NA,NA,NA,NA,NA,NA
"PDS2014","LB","PDS2014-0003",NA,200,NA,NA,NA,"HGB","Hemoglobin","HEMATOLOGY",NA,"16.6","g/dL",NA,NA,"16.6",16.6,"g/dL",NA,NA,NA,NA,NA,NA,NA,"WHOLE BLOOD",NA,NA,NA,NA,NA,NA,NA,NA,NA,NA,NA,NA,NA,NA,NA,30,"2011-01-09T07:43:02",NA,30,NA,NA,NA,NA,NA,NA
"PDS2014","LB","PDS2014-0003",NA,201,NA,NA,NA,"NEUT","Neutrophils","HEMATOLOGY",NA,"1.08","10^9/L",NA,NA,"1.08",1.08,"10^9/L",NA,NA,NA,NA,NA,NA,NA,"WHOLE BLOOD",NA,NA,NA,NA,NA,NA,NA,NA,NA,NA,NA,NA,NA,NA,NA,30,"2011-01-09T07:43:02",NA,30,NA,NA,NA,NA,NA,NA
"PDS2014","LB","PDS2014-0003",NA,202,NA,NA,NA,"RDW","Erythrocytes Distribution Width","HEMATOLOGY",NA,"11.6","%",NA,NA,"11.6",11.6,"%",NA,NA,NA,NA,NA,NA,NA,"WHOLE BLOOD",NA,NA,NA,NA,NA,NA,NA,NA,NA,NA,NA,NA,NA,NA,NA,30,"2011-01-09T07:43:02",NA,30,NA,NA,NA,NA,NA,NA
"PDS2014","LB","PDS2014-0003",NA,203,NA,NA,NA,"MONO","Monocytes","HEMATOLOGY",NA,"0.24","10^9/L",NA,NA,"0.24",0.24,"10^9/L",NA,NA,NA,NA,NA,NA,NA,"WHOLE BLOOD",NA,NA,NA,NA,NA,NA,NA,NA,NA,NA,NA,NA,NA,NA,NA,30,"2011-01-09T07:43:02",NA,30,NA,NA,NA,NA,NA,NA
"PDS2014","LB","PDS2014-0003",NA,204,NA,NA,NA,"HYPERCHR","Hyperchromia","HEMATOLOGY",NA,"0",NA,NA,NA,"0",0,NA,NA,NA,NA,NA,NA,NA,NA,"WHOLE BLOOD",NA,NA,NA,NA,NA,NA,NA,NA,NA,NA,NA,NA,NA,NA,NA,30,"2011-01-09T07:43:02",NA,30,NA,NA,NA,NA,NA,NA
"PDS2014","LB","PDS2014-0003",NA,205,NA,NA,NA,"LYMCE","Lymphocytes/Total Cells","HEMATOLOGY",NA,"83.8","%",NA,NA,"83.8",83.8,"%",NA,NA,NA,NA,NA,NA,NA,"WHOLE BLOOD",NA,NA,NA,NA,NA,NA,NA,NA,NA,NA,NA,NA,NA,NA,NA,30,"2011-01-09T07:43:02",NA,30,NA,NA,NA,NA,NA,NA
"PDS2014","LB","PDS2014-0003",NA,206,NA,NA,NA,"ALBGLOB","Albumin/Globulin","HEMATOLOGY",NA,"1.98","RATIO",NA,NA,"1.98",1.98,"RATIO",NA,NA,NA,NA,NA,NA,NA,"WHOLE BLOOD",NA,NA,NA,NA,NA,NA,NA,NA,NA,NA,NA,NA,NA,NA,NA,30,"2011-01-09T07:43:02",NA,30,NA,NA,NA,NA,NA,NA
"PDS2014","LB","PDS2014-0003",NA,207,NA,NA,NA,"RETIRBC","Reticulocytes/Erythrocytes","HEMATOLOGY",NA,"1.8","%",NA,NA,"1.8",1.8,"%",NA,NA,NA,NA,NA,NA,NA,"WHOLE BLOOD",NA,NA,NA,NA,NA,NA,NA,NA,NA,NA,NA,NA,NA,NA,NA,30,"2011-01-09T07:43:02",NA,30,NA,NA,NA,NA,NA,NA
"PDS2014","LB","PDS2014-0003",NA,208,NA,NA,NA,"MICROCY","Microcytes","HEMATOLOGY",NA,"0",NA,NA,NA,"0",0,NA,NA,NA,NA,NA,NA,NA,NA,"WHOLE BLOOD",NA,NA,NA,NA,NA,NA,NA,NA,NA,NA,NA,NA,NA,NA,NA,30,"2011-01-09T07:43:02",NA,30,NA,NA,NA,NA,NA,NA
"PDS2014","LB","PDS2014-0003",NA,209,NA,NA,NA,"PLATLRG","Large Platelets","HEMATOLOGY",NA,"0",NA,NA,NA,"0",0,NA,NA,NA,NA,NA,NA,NA,NA,"WHOLE BLOOD",NA,NA,NA,NA,NA,NA,NA,NA,NA,NA,NA,NA,NA,NA,NA,30,"2011-01-09T07:43:02",NA,30,NA,NA,NA,NA,NA,NA
"PDS2014","LB","PDS2014-0003",NA,210,NA,NA,NA,"HPOCROM","Hypochromia","HEMATOLOGY",NA,"0",NA,NA,NA,"0",0,NA,NA,NA,NA,NA,NA,NA,NA,"WHOLE BLOOD",NA,NA,NA,NA,NA,NA,NA,NA,NA,NA,NA,NA,NA,NA,NA,30,"2011-01-09T07:43:02",NA,30,NA,NA,NA,NA,NA,NA
"PDS2014","LB","PDS2014-0003",NA,211,NA,NA,NA,"EOSCE","Eosinophils/Total Cells","HEMATOLOGY",NA,"1.5","%",NA,NA,"1.5",1.5,"%",NA,NA,NA,NA,NA,NA,NA,"WHOLE BLOOD",NA,NA,NA,NA,NA,NA,NA,NA,NA,NA,NA,NA,NA,NA,NA,30,"2011-01-09T07:43:02",NA,30,NA,NA,NA,NA,NA,NA
"PDS2014","LB","PDS2014-0003",NA,212,NA,NA,NA,"RBC","Erythrocytes","HEMATOLOGY",NA,"8.18","10^12/L",NA,NA,"8.18",8.18,"10^12/L",NA,NA,NA,NA,NA,NA,NA,"WHOLE BLOOD",NA,NA,NA,NA,NA,NA,NA,NA,NA,NA,NA,NA,NA,NA,NA,30,"2011-01-09T07:43:02",NA,30,NA,NA,NA,NA,NA,NA
"PDS2014","LB","PDS2014-0003",NA,213,NA,NA,NA,"LYM","Lymphocytes","HEMATOLOGY",NA,"8.32","10^9/L",NA,NA,"8.32",8.32,"10^9/L",NA,NA,NA,NA,NA,NA,NA,"WHOLE BLOOD",NA,NA,NA,NA,NA,NA,NA,NA,NA,NA,NA,NA,NA,NA,NA,30,"2011-01-09T07:43:02",NA,30,NA,NA,NA,NA,NA,NA
"PDS2014","LB","PDS2014-0003",NA,214,NA,NA,NA,"NEUTCE","Neutrophils/Total Cells","HEMATOLOGY",NA,"10.9","%",NA,NA,"10.9",10.9,"%",NA,NA,NA,NA,NA,NA,NA,"WHOLE BLOOD",NA,NA,NA,NA,NA,NA,NA,NA,NA,NA,NA,NA,NA,NA,NA,30,"2011-01-09T07:43:02",NA,30,NA,NA,NA,NA,NA,NA
"PDS2014","LB","PDS2014-0003",NA,215,NA,NA,NA,"RBCNUCLE","Nucleated Erythrocytes/Leukocytes","HEMATOLOGY",NA,"NE","%",NA,NA,"NE",NA,"%",NA,NA,NA,NA,NA,NA,NA,"WHOLE BLOOD",NA,NA,NA,NA,NA,NA,NA,NA,NA,NA,NA,NA,NA,NA,NA,30,"2011-01-09T07:43:02",NA,30,NA,NA,NA,NA,NA,NA
"PDS2014","LB","PDS2014-0003",NA,216,NA,NA,NA,"BASOCE","Basophils/Total Cells","HEMATOLOGY",NA,"0.5","%",NA,NA,"0.5",0.5,"%",NA,NA,NA,NA,NA,NA,NA,"WHOLE BLOOD",NA,NA,NA,NA,NA,NA,NA,NA,NA,NA,NA,NA,NA,NA,NA,30,"2011-01-09T07:43:02",NA,30,NA,NA,NA,NA,NA,NA
"PDS2014","LB","PDS2014-0003",NA,217,NA,NA,NA,"BASO","Basophils","HEMATOLOGY",NA,"0.05","10^9/L",NA,NA,"0.05",0.05,"10^9/L",NA,NA,NA,NA,NA,NA,NA,"WHOLE BLOOD",NA,NA,NA,NA,NA,NA,NA,NA,NA,NA,NA,NA,NA,NA,NA,30,"2011-01-09T07:43:02",NA,30,NA,NA,NA,NA,NA,NA
"PDS2014","LB","PDS2014-0003",NA,218,NA,NA,NA,"WBC","Leukocytes","HEMATOLOGY",NA,"9.92","10^9/L",NA,NA,"9.92",9.92,"10^9/L",NA,NA,NA,NA,NA,NA,NA,"WHOLE BLOOD",NA,NA,NA,NA,NA,NA,NA,NA,NA,NA,NA,NA,NA,NA,NA,30,"2011-01-09T07:43:02",NA,30,NA,NA,NA,NA,NA,NA
"PDS2014","LB","PDS2014-0003",NA,219,NA,NA,NA,"MCHC","Ery. Mean Corpuscular HGB Concentration","HEMATOLOGY",NA,"33.1","g/dL",NA,NA,"33.1",33.1,"g/dL",NA,NA,NA,NA,NA,NA,NA,"WHOLE BLOOD",NA,NA,NA,NA,NA,NA,NA,NA,NA,NA,NA,NA,NA,NA,NA,30,"2011-01-09T07:43:02",NA,30,NA,NA,NA,NA,NA,NA
"PDS2014","LB","PDS2014-0003",NA,220,NA,NA,NA,"MCV","Ery. Mean Corpuscular Volume","HEMATOLOGY",NA,"59.4","fL",NA,NA,"59.4",59.4,"fL",NA,NA,NA,NA,NA,NA,NA,"WHOLE BLOOD",NA,NA,NA,NA,NA,NA,NA,NA,NA,NA,NA,NA,NA,NA,NA,30,"2011-01-09T07:43:02",NA,30,NA,NA,NA,NA,NA,NA
"PDS2014","LB","PDS2014-0003",NA,221,NA,NA,NA,"ANISO","Anisocytes","HEMATOLOGY",NA,"0",NA,NA,NA,"0",0,NA,NA,NA,NA,NA,NA,NA,NA,"WHOLE BLOOD",NA,NA,NA,NA,NA,NA,NA,NA,NA,NA,NA,NA,NA,NA,NA,30,"2011-01-09T07:43:02",NA,30,NA,NA,NA,NA,NA,NA
"PDS2014","LB","PDS2014-0003",NA,222,NA,NA,NA,"GLOBUL","Globulin","HEMATOLOGY",NA,"2.02","g/dL",NA,NA,"2.02",2.02,"g/dL",NA,NA,NA,NA,NA,NA,NA,"WHOLE BLOOD",NA,NA,NA,NA,NA,NA,NA,NA,NA,NA,NA,NA,NA,NA,NA,30,"2011-01-09T07:43:02",NA,30,NA,NA,NA,NA,NA,NA
"PDS2014","LB","PDS2014-0003",NA,223,NA,NA,NA,"MACROCY","Macrocytes","HEMATOLOGY",NA,"0",NA,NA,NA,"0",0,NA,NA,NA,NA,NA,NA,NA,NA,"WHOLE BLOOD",NA,NA,NA,NA,NA,NA,NA,NA,NA,NA,NA,NA,NA,NA,NA,30,"2011-01-09T07:43:02",NA,30,NA,NA,NA,NA,NA,NA
"PDS2014","LB","PDS2014-0003",NA,224,NA,NA,NA,"EOS","Eosinophils","HEMATOLOGY",NA,"0.14","10^9/L",NA,NA,"0.14",0.14,"10^9/L",NA,NA,NA,NA,NA,NA,NA,"WHOLE BLOOD",NA,NA,NA,NA,NA,NA,NA,NA,NA,NA,NA,NA,NA,NA,NA,30,"2011-01-09T07:43:02",NA,30,NA,NA,NA,NA,NA,NA
"PDS2014","LB","PDS2014-0003",NA,225,NA,NA,NA,"LGLUCLE","Large Unstained Cells/Leukocytes","HEMATOLOGY",NA,"1","%",NA,NA,"1",1,"%",NA,NA,NA,NA,NA,NA,NA,"WHOLE BLOOD",NA,NA,NA,NA,NA,NA,NA,NA,NA,NA,NA,NA,NA,NA,NA,30,"2011-01-09T07:43:02",NA,30,NA,NA,NA,NA,NA,NA
"PDS2014","LB","PDS2014-0003",NA,226,NA,NA,NA,"RETI","Reticulocytes","HEMATOLOGY",NA,"150.8","10^9/L",NA,NA,"150.8",150.8,"10^9/L",NA,NA,NA,NA,NA,NA,NA,"WHOLE BLOOD",NA,NA,NA,NA,NA,NA,NA,NA,NA,NA,NA,NA,NA,NA,NA,30,"2011-01-09T07:43:02",NA,30,NA,NA,NA,NA,NA,NA
"PDS2014","LB","PDS2014-0003",NA,227,NA,NA,NA,"MCH","Ery. Mean Corpuscular Hemoglobin","HEMATOLOGY",NA,"20.2","pg",NA,NA,"20.2",20.2,"pg",NA,NA,NA,NA,NA,NA,NA,"WHOLE BLOOD",NA,NA,NA,NA,NA,NA,NA,NA,NA,NA,NA,NA,NA,NA,NA,30,"2011-01-09T07:43:02",NA,30,NA,NA,NA,NA,NA,NA
"PDS2014","LB","PDS2014-0003",NA,228,NA,NA,NA,"MONOCE","Monocytes/Total Cells","HEMATOLOGY",NA,"2.4","%",NA,NA,"2.4",2.4,"%",NA,NA,NA,NA,NA,NA,NA,"WHOLE BLOOD",NA,NA,NA,NA,NA,NA,NA,NA,NA,NA,NA,NA,NA,NA,NA,30,"2011-01-09T07:43:02",NA,30,NA,NA,NA,NA,NA,NA
"PDS2014","LB","PDS2014-0003",NA,229,NA,NA,NA,"AMORPHSD","Amorphous Sediment","URINALYSIS",NA,"0",NA,NA,NA,"0",0,NA,NA,NA,NA,NA,NA,NA,NA,"URINE",NA,NA,NA,NA,NA,NA,NA,NA,NA,NA,NA,NA,NA,NA,NA,30,"2011-01-09T07:14:30",NA,30,NA,NA,NA,NA,NA,NA
"PDS2014","LB","PDS2014-0003",NA,230,NA,NA,NA,"CSHYAL","Hyaline Casts","URINALYSIS",NA,"0",NA,NA,NA,"0",0,NA,NA,NA,NA,NA,NA,NA,NA,"URINE",NA,NA,NA,NA,NA,NA,NA,NA,NA,NA,NA,NA,NA,NA,NA,30,"2011-01-09T07:14:30",NA,30,NA,NA,NA,NA,NA,NA
"PDS2014","LB","PDS2014-0003",NA,231,NA,NA,NA,"CYCHOL","Cholesterol Crystals","URINALYSIS",NA,"0",NA,NA,NA,"0",0,NA,NA,NA,NA,NA,NA,NA,NA,"URINE",NA,NA,NA,NA,NA,NA,NA,NA,NA,NA,NA,NA,NA,NA,NA,30,"2011-01-09T07:14:30",NA,30,NA,NA,NA,NA,NA,NA
"PDS2014","LB","PDS2014-0003",NA,232,NA,NA,NA,"EPITUCE","Tubular Epithelial Cells","URINALYSIS",NA,"0",NA,NA,NA,"0",0,NA,NA,NA,NA,NA,NA,NA,NA,"URINE",NA,NA,NA,NA,NA,NA,NA,NA,NA,NA,NA,NA,NA,NA,NA,30,"2011-01-09T07:14:30",NA,30,NA,NA,NA,NA,NA,NA
"PDS2014","LB","PDS2014-0003",NA,233,NA,NA,NA,"FATDROP","Fat Droplet","URINALYSIS",NA,"0",NA,NA,NA,"0",0,NA,NA,NA,NA,NA,NA,NA,NA,"URINE",NA,NA,NA,NA,NA,NA,NA,NA,NA,NA,NA,NA,NA,NA,NA,30,"2011-01-09T07:14:30",NA,30,NA,NA,NA,NA,NA,NA
"PDS2014","LB","PDS2014-0003",NA,234,NA,NA,NA,"YEAST","Yeast Cells","URINALYSIS",NA,"0",NA,NA,NA,"0",0,NA,NA,NA,NA,NA,NA,NA,NA,"URINE",NA,NA,NA,NA,NA,NA,NA,NA,NA,NA,NA,NA,NA,NA,NA,30,"2011-01-09T07:14:30",NA,30,NA,NA,NA,NA,NA,NA
"PDS2014","LB","PDS2014-0003",NA,235,NA,NA,NA,"CYCAPHOS","Calcium Phosphate Crystals","URINALYSIS",NA,"0",NA,NA,NA,"0",0,NA,NA,NA,NA,NA,NA,NA,NA,"URINE",NA,NA,NA,NA,NA,NA,NA,NA,NA,NA,NA,NA,NA,NA,NA,30,"2011-01-09T07:14:30",NA,30,NA,NA,NA,NA,NA,NA
"PDS2014","LB","PDS2014-0003",NA,236,NA,NA,NA,"VOLUME","Volume","URINALYSIS",NA,"30.7","mL",NA,NA,"30.7",30.7,"mL",NA,NA,NA,NA,NA,NA,NA,"URINE",NA,NA,NA,NA,NA,NA,NA,NA,NA,NA,NA,NA,NA,NA,NA,30,"2011-01-09T07:14:30",NA,30,NA,NA,NA,NA,NA,NA
"PDS2014","LB","PDS2014-0003",NA,237,NA,NA,NA,"CYCACAR","Calcium Carbonate Crystals","URINALYSIS",NA,"0",NA,NA,NA,"0",0,NA,NA,NA,NA,NA,NA,NA,NA,"URINE",NA,NA,NA,NA,NA,NA,NA,NA,NA,NA,NA,NA,NA,NA,NA,30,"2011-01-09T07:14:30",NA,30,NA,NA,NA,NA,NA,NA
"PDS2014","LB","PDS2014-0003",NA,238,NA,NA,NA,"CYCAOXA","Calcium Oxalate Crystals","URINALYSIS",NA,"0",NA,NA,NA,"0",0,NA,NA,NA,NA,NA,NA,NA,NA,"URINE",NA,NA,NA,NA,NA,NA,NA,NA,NA,NA,NA,NA,NA,NA,NA,30,"2011-01-09T07:14:30",NA,30,NA,NA,NA,NA,NA,NA
"PDS2014","LB","PDS2014-0003",NA,239,NA,NA,NA,"RBC","Erythrocytes","URINALYSIS",NA,"1",NA,NA,NA,"1",1,NA,NA,NA,NA,NA,NA,NA,NA,"URINE",NA,NA,NA,NA,NA,NA,NA,NA,NA,NA,NA,NA,NA,NA,NA,30,"2011-01-09T07:14:30",NA,30,NA,NA,NA,NA,NA,NA
"PDS2014","LB","PDS2014-0003",NA,240,NA,NA,NA,"CYCYSTIN","Cystine Crystals","URINALYSIS",NA,"0",NA,NA,NA,"0",0,NA,NA,NA,NA,NA,NA,NA,NA,"URINE",NA,NA,NA,NA,NA,NA,NA,NA,NA,NA,NA,NA,NA,NA,NA,30,"2011-01-09T07:14:30",NA,30,NA,NA,NA,NA,NA,NA
"PDS2014","LB","PDS2014-0003",NA,241,NA,NA,NA,"EPIC","Epithelial Cells","URINALYSIS",NA,"0",NA,NA,NA,"0",0,NA,NA,NA,NA,NA,NA,NA,NA,"URINE",NA,NA,NA,NA,NA,NA,NA,NA,NA,NA,NA,NA,NA,NA,NA,30,"2011-01-09T07:14:30",NA,30,NA,NA,NA,NA,NA,NA
"PDS2014","LB","PDS2014-0003",NA,242,NA,NA,NA,"GLUC","Glucose","URINALYSIS",NA,"NORM",NA,NA,NA,"NORM",NA,NA,NA,NA,NA,NA,NA,NA,NA,"URINE",NA,NA,NA,NA,NA,NA,NA,NA,NA,NA,NA,NA,NA,NA,NA,30,"2011-01-09T07:14:30",NA,30,NA,NA,NA,NA,NA,NA
"PDS2014","LB","PDS2014-0003",NA,243,NA,NA,NA,"CSWAX","Waxy Casts","URINALYSIS",NA,"0",NA,NA,NA,"0",0,NA,NA,NA,NA,NA,NA,NA,NA,"URINE",NA,NA,NA,NA,NA,NA,NA,NA,NA,NA,NA,NA,NA,NA,NA,30,"2011-01-09T07:14:30",NA,30,NA,NA,NA,NA,NA,NA
"PDS2014","LB","PDS2014-0003",NA,244,NA,NA,NA,"CSWBC","WBC Casts","URINALYSIS",NA,"0",NA,NA,NA,"0",0,NA,NA,NA,NA,NA,NA,NA,NA,"URINE",NA,NA,NA,NA,NA,NA,NA,NA,NA,NA,NA,NA,NA,NA,NA,30,"2011-01-09T07:14:30",NA,30,NA,NA,NA,NA,NA,NA
"PDS2014","LB","PDS2014-0003",NA,245,NA,NA,NA,"CSFAT","Fatty Casts","URINALYSIS",NA,"0",NA,NA,NA,"0",0,NA,NA,NA,NA,NA,NA,NA,NA,"URINE",NA,NA,NA,NA,NA,NA,NA,NA,NA,NA,NA,NA,NA,NA,NA,30,"2011-01-09T07:14:30",NA,30,NA,NA,NA,NA,NA,NA
"PDS2014","LB","PDS2014-0003",NA,246,NA,NA,NA,"BACT","Bacteria","URINALYSIS",NA,"3",NA,NA,NA,"3",3,NA,NA,NA,NA,NA,NA,NA,NA,"URINE",NA,NA,NA,NA,NA,NA,NA,NA,NA,NA,NA,NA,NA,NA,NA,30,"2011-01-09T07:14:30",NA,30,NA,NA,NA,NA,NA,NA
"PDS2014","LB","PDS2014-0003",NA,247,NA,NA,NA,"SPERM","Spermatozoa","URINALYSIS",NA,"2",NA,NA,NA,"2",2,NA,NA,NA,NA,NA,NA,NA,NA,"URINE",NA,NA,NA,NA,NA,NA,NA,NA,NA,NA,NA,NA,NA,NA,NA,30,"2011-01-09T07:14:30",NA,30,NA,NA,NA,NA,NA,NA
"PDS2014","LB","PDS2014-0003",NA,248,NA,NA,NA,"CYURIAC","Uric Acid Crystals","URINALYSIS",NA,"0",NA,NA,NA,"0",0,NA,NA,NA,NA,NA,NA,NA,NA,"URINE",NA,NA,NA,NA,NA,NA,NA,NA,NA,NA,NA,NA,NA,NA,NA,30,"2011-01-09T07:14:30",NA,30,NA,NA,NA,NA,NA,NA
"PDS2014","LB","PDS2014-0003",NA,249,NA,NA,NA,"CSRBC","RBC Casts","URINALYSIS",NA,"0",NA,NA,NA,"0",0,NA,NA,NA,NA,NA,NA,NA,NA,"URINE",NA,NA,NA,NA,NA,NA,NA,NA,NA,NA,NA,NA,NA,NA,NA,30,"2011-01-09T07:14:30",NA,30,NA,NA,NA,NA,NA,NA
"PDS2014","LB","PDS2014-0003",NA,250,NA,NA,NA,"CYTYRO","Tyrosine Crystals","URINALYSIS",NA,"0",NA,NA,NA,"0",0,NA,NA,NA,NA,NA,NA,NA,NA,"URINE",NA,NA,NA,NA,NA,NA,NA,NA,NA,NA,NA,NA,NA,NA,NA,30,"2011-01-09T07:14:30",NA,30,NA,NA,NA,NA,NA,NA
"PDS2014","LB","PDS2014-0003",NA,251,NA,NA,NA,"CYBILI","Bilirubin Crystals","URINALYSIS",NA,"0",NA,NA,NA,"0",0,NA,NA,NA,NA,NA,NA,NA,NA,"URINE",NA,NA,NA,NA,NA,NA,NA,NA,NA,NA,NA,NA,NA,NA,NA,30,"2011-01-09T07:14:30",NA,30,NA,NA,NA,NA,NA,NA
"PDS2014","LB","PDS2014-0003",NA,252,NA,NA,NA,"CSGRAN","Granular Casts","URINALYSIS",NA,"0",NA,NA,NA,"0",0,NA,NA,NA,NA,NA,NA,NA,NA,"URINE",NA,NA,NA,NA,NA,NA,NA,NA,NA,NA,NA,NA,NA,NA,NA,30,"2011-01-09T07:14:30",NA,30,NA,NA,NA,NA,NA,NA
"PDS2014","LB","PDS2014-0003",NA,253,NA,NA,NA,"EPISQCE","Squamous Epithelial Cells","URINALYSIS",NA,"2",NA,NA,NA,"2",2,NA,NA,NA,NA,NA,NA,NA,NA,"URINE",NA,NA,NA,NA,NA,NA,NA,NA,NA,NA,NA,NA,NA,NA,NA,30,"2011-01-09T07:14:30",NA,30,NA,NA,NA,NA,NA,NA
"PDS2014","LB","PDS2014-0003",NA,254,NA,NA,NA,"CASULPH","Calcium Sulphate","URINALYSIS",NA,"0",NA,NA,NA,"0",0,NA,NA,NA,NA,NA,NA,NA,NA,"URINE",NA,NA,NA,NA,NA,NA,NA,NA,NA,NA,NA,NA,NA,NA,NA,30,"2011-01-09T07:14:30",NA,30,NA,NA,NA,NA,NA,NA
"PDS2014","LB","PDS2014-0003",NA,255,NA,NA,NA,"CYTRPHOS","Triple Phosphate Crystals","URINALYSIS",NA,"2",NA,NA,NA,"2",2,NA,NA,NA,NA,NA,NA,NA,NA,"URINE",NA,NA,NA,NA,NA,NA,NA,NA,NA,NA,NA,NA,NA,NA,NA,30,"2011-01-09T07:14:30",NA,30,NA,NA,NA,NA,NA,NA
"PDS2014","LB","PDS2014-0003",NA,256,NA,NA,NA,"WBC","Leukocytes","URINALYSIS",NA,"0",NA,NA,NA,"0",0,NA,NA,NA,NA,NA,NA,NA,NA,"URINE",NA,NA,NA,NA,NA,NA,NA,NA,NA,NA,NA,NA,NA,NA,NA,30,"2011-01-09T07:14:30",NA,30,NA,NA,NA,NA,NA,NA
"PDS2014","LB","PDS2014-0003",NA,257,NA,NA,NA,"CSEPI","Epithelial Casts","URINALYSIS",NA,"0",NA,NA,NA,"0",0,NA,NA,NA,NA,NA,NA,NA,NA,"URINE",NA,NA,NA,NA,NA,NA,NA,NA,NA,NA,NA,NA,NA,NA,NA,30,"2011-01-09T07:14:30",NA,30,NA,NA,NA,NA,NA,NA
"PDS2014","LB","PDS2014-0003",NA,258,NA,NA,NA,"GLOBUL","Globulin","URINALYSIS",NA,"2.02","g/dL",NA,NA,"2.02",2.02,"g/dL",NA,NA,NA,NA,NA,NA,NA,"URINE",NA,NA,NA,NA,NA,NA,NA,NA,NA,NA,NA,NA,NA,NA,NA,30,"2011-01-09T07:14:30",NA,30,NA,NA,NA,NA,NA,NA
"PDS2014","LB","PDS2014-0003",NA,259,NA,NA,NA,"CYSTARCH","Starch Crystals","URINALYSIS",NA,"0",NA,NA,NA,"0",0,NA,NA,NA,NA,NA,NA,NA,NA,"URINE",NA,NA,NA,NA,NA,NA,NA,NA,NA,NA,NA,NA,NA,NA,NA,30,"2011-01-09T07:14:30",NA,30,NA,NA,NA,NA,NA,NA
"PDS2014","LB","PDS2014-0003",NA,260,NA,NA,NA,"KETONES","Ketones","URINALYSIS",NA,"5","mg/dL",NA,NA,"5",5,"mg/dL",NA,NA,NA,NA,NA,NA,NA,"URINE",NA,NA,NA,NA,NA,NA,NA,NA,NA,NA,NA,NA,NA,NA,NA,30,"2011-01-09T07:14:30",NA,30,NA,NA,NA,NA,NA,NA
"PDS2014","LB","PDS2014-0003",NA,261,NA,NA,NA,"SPGRAV","Specific Gravity","URINALYSIS",NA,"1.014","RATIO",NA,NA,"1.014",1.014,"RATIO",NA,NA,NA,NA,NA,NA,NA,"URINE",NA,NA,NA,NA,NA,NA,NA,NA,NA,NA,NA,NA,NA,NA,NA,30,"2011-01-09T07:14:30",NA,30,NA,NA,NA,NA,NA,NA
"PDS2014","LB","PDS2014-0003",NA,262,NA,NA,NA,"PH","pH","URINALYSIS",NA,"7",NA,NA,NA,"7",7,NA,NA,NA,NA,NA,NA,NA,NA,"URINE",NA,NA,NA,NA,NA,NA,NA,NA,NA,NA,NA,NA,NA,NA,NA,30,"2011-01-09T07:14:30",NA,30,NA,NA,NA,NA,NA,NA
"PDS2014","LB","PDS2014-0003",NA,263,NA,NA,NA,"PROT","Protein","URINALYSIS",NA,"NEG",NA,NA,NA,"NEG",NA,NA,NA,NA,NA,NA,NA,NA,NA,"URINE",NA,NA,NA,NA,NA,NA,NA,NA,NA,NA,NA,NA,NA,NA,NA,30,"2011-01-09T07:14:30",NA,30,NA,NA,NA,NA,NA,NA
"PDS2014","LB","PDS2014-0003",NA,264,NA,NA,NA,"COLOR","Color","URINALYSIS",NA,"PALE",NA,NA,NA,"PALE",NA,NA,NA,NA,NA,NA,NA,NA,NA,"URINE",NA,NA,NA,NA,NA,NA,NA,NA,NA,NA,NA,NA,NA,NA,NA,30,"2011-01-09T07:14:30",NA,30,NA,NA,NA,NA,NA,NA
"PDS2014","LB","PDS2014-0003",NA,265,NA,NA,NA,"ALBGLOB","Albumin/Globulin","URINALYSIS",NA,"1.98","RATIO",NA,NA,"1.98",1.98,"RATIO",NA,NA,NA,NA,NA,NA,NA,"URINE",NA,NA,NA,NA,NA,NA,NA,NA,NA,NA,NA,NA,NA,NA,NA,30,"2011-01-09T07:14:30",NA,30,NA,NA,NA,NA,NA,NA
"PDS2014","LB","PDS2014-0003",NA,266,NA,NA,NA,"CLARITY","Clarity","URINALYSIS",NA,"CLEAR",NA,NA,NA,"CLEAR",NA,NA,NA,NA,NA,NA,NA,NA,NA,"URINE",NA,NA,NA,NA,NA,NA,NA,NA,NA,NA,NA,NA,NA,NA,NA,30,"2011-01-09T07:14:30",NA,30,NA,NA,NA,NA,NA,NA
"PDS2014","LB","PDS2014-0003",NA,267,NA,NA,NA,"OCCBLD","Occult Blood","URINALYSIS",NA,"10","/uL",NA,NA,"10",10,"/uL",NA,NA,NA,NA,NA,NA,NA,"URINE",NA,NA,NA,NA,NA,NA,NA,NA,NA,NA,NA,NA,NA,NA,NA,30,"2011-01-09T07:14:30",NA,30,NA,NA,NA,NA,NA,NA
"PDS2014","LB","PDS2014-0003",NA,268,NA,NA,NA,"PROT","Protein","CLINICAL CHEMISTRY",NA,"6.02","g/dL",NA,NA,"6.02",6.02,"g/dL",NA,NA,NA,NA,NA,NA,NA,"SERUM",NA,NA,NA,NA,NA,NA,NA,NA,NA,NA,NA,NA,NA,NA,NA,30,"2011-01-09T07:43:21",NA,30,NA,NA,NA,NA,NA,NA
"PDS2014","LB","PDS2014-0003",NA,269,NA,NA,NA,"K","Potassium","CLINICAL CHEMISTRY",NA,"5.32","mmol/L",NA,NA,"5.32",5.32,"mmol/L",NA,NA,NA,NA,NA,NA,NA,"SERUM",NA,NA,NA,NA,NA,NA,NA,NA,NA,NA,NA,NA,NA,NA,NA,30,"2011-01-09T07:43:21",NA,30,NA,NA,NA,NA,NA,NA
"PDS2014","LB","PDS2014-0003",NA,270,NA,NA,NA,"AST","Aspartate Aminotransferase","CLINICAL CHEMISTRY",NA,"150.5","U/L",NA,NA,"150.5",150.5,"U/L",NA,NA,NA,NA,NA,NA,NA,"SERUM",NA,NA,NA,NA,NA,NA,NA,NA,NA,NA,NA,NA,NA,NA,NA,30,"2011-01-09T07:43:21",NA,30,NA,NA,NA,NA,NA,NA
"PDS2014","LB","PDS2014-0003",NA,271,NA,NA,NA,"PHOS","Phosphate","CLINICAL CHEMISTRY",NA,"7.72","mg/dL",NA,NA,"7.72",7.72,"mg/dL",NA,NA,NA,NA,NA,NA,NA,"SERUM",NA,NA,NA,NA,NA,NA,NA,NA,NA,NA,NA,NA,NA,NA,NA,30,"2011-01-09T07:43:21",NA,30,NA,NA,NA,NA,NA,NA
"PDS2014","LB","PDS2014-0003",NA,272,NA,NA,NA,"SODIUM","Sodium","CLINICAL CHEMISTRY",NA,"144","mmol/L",NA,NA,"144",144,"mmol/L",NA,NA,NA,NA,NA,NA,NA,"SERUM",NA,NA,NA,NA,NA,NA,NA,NA,NA,NA,NA,NA,NA,NA,NA,30,"2011-01-09T07:43:21",NA,30,NA,NA,NA,NA,NA,NA
"PDS2014","LB","PDS2014-0003",NA,273,NA,NA,NA,"CA","Calcium","CLINICAL CHEMISTRY",NA,"10.32","mg/dL",NA,NA,"10.32",10.32,"mg/dL",NA,NA,NA,NA,NA,NA,NA,"SERUM",NA,NA,NA,NA,NA,NA,NA,NA,NA,NA,NA,NA,NA,NA,NA,30,"2011-01-09T07:43:21",NA,30,NA,NA,NA,NA,NA,NA
"PDS2014","LB","PDS2014-0003",NA,274,NA,NA,NA,"BUN","Blood Urea Nitrogen","CLINICAL CHEMISTRY",NA,"13.2","mg/dL",NA,NA,"13.2",13.2,"mg/dL",NA,NA,NA,NA,NA,NA,NA,"SERUM",NA,NA,NA,NA,NA,NA,NA,NA,NA,NA,NA,NA,NA,NA,NA,30,"2011-01-09T07:43:21",NA,30,NA,NA,NA,NA,NA,NA
"PDS2014","LB","PDS2014-0003",NA,275,NA,NA,NA,"CL","Chloride","CLINICAL CHEMISTRY",NA,"98.7","mmol/L",NA,NA,"98.7",98.7,"mmol/L",NA,NA,NA,NA,NA,NA,NA,"SERUM",NA,NA,NA,NA,NA,NA,NA,NA,NA,NA,NA,NA,NA,NA,NA,30,"2011-01-09T07:43:21",NA,30,NA,NA,NA,NA,NA,NA
"PDS2014","LB","PDS2014-0003",NA,276,NA,NA,NA,"CREAT","Creatinine","CLINICAL CHEMISTRY",NA,"0.19","mg/dL",NA,NA,"0.19",0.19,"mg/dL",NA,NA,NA,NA,NA,NA,NA,"SERUM",NA,NA,NA,NA,NA,NA,NA,NA,NA,NA,NA,NA,NA,NA,NA,30,"2011-01-09T07:43:21",NA,30,NA,NA,NA,NA,NA,NA
"PDS2014","LB","PDS2014-0003",NA,277,NA,NA,NA,"ALP","Alkaline Phosphatase","CLINICAL CHEMISTRY",NA,"140.9","U/L",NA,NA,"140.9",140.9,"U/L",NA,NA,NA,NA,NA,NA,NA,"SERUM",NA,NA,NA,NA,NA,NA,NA,NA,NA,NA,NA,NA,NA,NA,NA,30,"2011-01-09T07:43:21",NA,30,NA,NA,NA,NA,NA,NA
"PDS2014","LB","PDS2014-0003",NA,278,NA,NA,NA,"GGT","Gamma Glutamyl Transferase","CLINICAL CHEMISTRY",NA,"LO","U/L",NA,NA,"LO",NA,"U/L",NA,NA,NA,NA,NA,NA,NA,"SERUM",NA,NA,NA,NA,NA,NA,NA,NA,NA,NA,NA,NA,NA,NA,NA,30,"2011-01-09T07:43:21",NA,30,NA,NA,NA,NA,NA,NA
"PDS2014","LB","PDS2014-0003",NA,279,NA,NA,NA,"TRIG","Triglycerides","CLINICAL CHEMISTRY",NA,"68.2","mg/dL",NA,NA,"68.2",68.2,"mg/dL",NA,NA,NA,NA,NA,NA,NA,"SERUM",NA,NA,NA,NA,NA,NA,NA,NA,NA,NA,NA,NA,NA,NA,NA,30,"2011-01-09T07:43:21",NA,30,NA,NA,NA,NA,NA,NA
"PDS2014","LB","PDS2014-0003",NA,280,NA,NA,NA,"ALT","Alanine Aminotransferase","CLINICAL CHEMISTRY",NA,"36.8","U/L",NA,NA,"36.8",36.8,"U/L",NA,NA,NA,NA,NA,NA,NA,"SERUM",NA,NA,NA,NA,NA,NA,NA,NA,NA,NA,NA,NA,NA,NA,NA,30,"2011-01-09T07:43:21",NA,30,NA,NA,NA,NA,NA,NA
"PDS2014","LB","PDS2014-0003",NA,281,NA,NA,NA,"ALBGLOB","Albumin/Globulin","CLINICAL CHEMISTRY",NA,"1.98","RATIO",NA,NA,"1.98",1.98,"RATIO",NA,NA,NA,NA,NA,NA,NA,"SERUM",NA,NA,NA,NA,NA,NA,NA,NA,NA,NA,NA,NA,NA,NA,NA,30,"2011-01-09T07:43:21",NA,30,NA,NA,NA,NA,NA,NA
"PDS2014","LB","PDS2014-0003",NA,282,NA,NA,NA,"CHOL","Cholesterol","CLINICAL CHEMISTRY",NA,"62","mg/dL",NA,NA,"62",62,"mg/dL",NA,NA,NA,NA,NA,NA,NA,"SERUM",NA,NA,NA,NA,NA,NA,NA,NA,NA,NA,NA,NA,NA,NA,NA,30,"2011-01-09T07:43:21",NA,30,NA,NA,NA,NA,NA,NA
"PDS2014","LB","PDS2014-0003",NA,283,NA,NA,NA,"GLUC","Glucose","CLINICAL CHEMISTRY",NA,"124","mg/dL",NA,NA,"124",124,"mg/dL",NA,NA,NA,NA,NA,NA,NA,"SERUM",NA,NA,NA,NA,NA,NA,NA,NA,NA,NA,NA,NA,NA,NA,NA,30,"2011-01-09T07:43:21",NA,30,NA,NA,NA,NA,NA,NA
"PDS2014","LB","PDS2014-0003",NA,284,NA,NA,NA,"BILI","Bilirubin","CLINICAL CHEMISTRY",NA,"0.107","mg/dL",NA,NA,"0.107",0.107,"mg/dL",NA,NA,NA,NA,NA,NA,NA,"SERUM",NA,NA,NA,NA,NA,NA,NA,NA,NA,NA,NA,NA,NA,NA,NA,30,"2011-01-09T07:43:21",NA,30,NA,NA,NA,NA,NA,NA
"PDS2014","LB","PDS2014-0003",NA,285,NA,NA,NA,"ALB","Albumin","CLINICAL CHEMISTRY",NA,"4","g/dL",NA,NA,"4",4,"g/dL",NA,NA,NA,NA,NA,NA,NA,"SERUM",NA,NA,NA,NA,NA,NA,NA,NA,NA,NA,NA,NA,NA,NA,NA,30,"2011-01-09T07:43:21",NA,30,NA,NA,NA,NA,NA,NA
"PDS2014","LB","PDS2014-0003",NA,286,NA,NA,NA,"GLOBUL","Globulin","CLINICAL CHEMISTRY",NA,"2.02","g/dL",NA,NA,"2.02",2.02,"g/dL",NA,NA,NA,NA,NA,NA,NA,"SERUM",NA,NA,NA,NA,NA,NA,NA,NA,NA,NA,NA,NA,NA,NA,NA,30,"2011-01-09T07:43:21",NA,30,NA,NA,NA,NA,NA,NA
"PDS2014","LB","PDS2014-0003",NA,287,NA,NA,NA,"GLOBUL","Globulin","COAGULATION",NA,"2.02","g/dL",NA,NA,"2.02",2.02,"g/dL",NA,NA,NA,NA,NA,NA,NA,"PLASMA",NA,NA,NA,NA,NA,NA,NA,NA,NA,NA,NA,NA,NA,NA,NA,30,"2011-01-09T07:43:18",NA,30,NA,NA,NA,NA,NA,NA
"PDS2014","LB","PDS2014-0003",NA,288,NA,NA,NA,"FIBRINO","Fibrinogen","COAGULATION",NA,"152","mg/dL",NA,NA,"152",152,"mg/dL",NA,NA,NA,NA,NA,NA,NA,"PLASMA",NA,NA,NA,NA,NA,NA,NA,NA,NA,NA,NA,NA,NA,NA,NA,30,"2011-01-09T07:43:18",NA,30,NA,NA,NA,NA,NA,NA
"PDS2014","LB","PDS2014-0003",NA,289,NA,NA,NA,"APTT","Activated Partial Thromboplastin Time","COAGULATION",NA,"17.4","sec",NA,NA,"17.4",17.4,"sec",NA,NA,NA,NA,NA,NA,NA,"PLASMA",NA,NA,NA,NA,NA,NA,NA,NA,NA,NA,NA,NA,NA,NA,NA,30,"2011-01-09T07:43:18",NA,30,NA,NA,NA,NA,NA,NA
"PDS2014","LB","PDS2014-0003",NA,290,NA,NA,NA,"PT","Prothrombin Time","COAGULATION",NA,"12","sec",NA,NA,"12",12,"sec",NA,NA,NA,NA,NA,NA,NA,"PLASMA",NA,NA,NA,NA,NA,NA,NA,NA,NA,NA,NA,NA,NA,NA,NA,30,"2011-01-09T07:43:18",NA,30,NA,NA,NA,NA,NA,NA
"PDS2014","LB","PDS2014-0003",NA,291,NA,NA,NA,"ALBGLOB","Albumin/Globulin","COAGULATION",NA,"1.98","RATIO",NA,NA,"1.98",1.98,"RATIO",NA,NA,NA,NA,NA,NA,NA,"PLASMA",NA,NA,NA,NA,NA,NA,NA,NA,NA,NA,NA,NA,NA,NA,NA,30,"2011-01-09T07:43:18",NA,30,NA,NA,NA,NA,NA,NA
"PDS2014","LB","PDS2014-0004",NA,292,NA,NA,NA,"FATACFR","Free Fatty Acid","CLINICAL CHEMISTRY",NA,"0.62","mmol/L",NA,NA,"0.62",0.62,"mmol/L",NA,NA,NA,NA,NA,NA,NA,"SERUM",NA,NA,NA,NA,NA,NA,NA,NA,NA,NA,NA,NA,NA,NA,NA,30,"2011-01-09T10:53:16",NA,30,NA,NA,NA,NA,NA,NA
"PDS2014","LB","PDS2014-0004",NA,293,NA,NA,NA,"HYPERCHR","Hyperchromia","HEMATOLOGY",NA,"0",NA,NA,NA,"0",0,NA,NA,NA,NA,NA,NA,NA,NA,"WHOLE BLOOD",NA,NA,NA,NA,NA,NA,NA,NA,NA,NA,NA,NA,NA,NA,NA,30,"2011-01-09T07:44:42",NA,30,NA,NA,NA,NA,NA,NA
"PDS2014","LB","PDS2014-0004",NA,294,NA,NA,NA,"MCHC","Ery. Mean Corpuscular HGB Concentration","HEMATOLOGY",NA,"32.2","g/dL",NA,NA,"32.2",32.2,"g/dL",NA,NA,NA,NA,NA,NA,NA,"WHOLE BLOOD",NA,NA,NA,NA,NA,NA,NA,NA,NA,NA,NA,NA,NA,NA,NA,30,"2011-01-09T07:44:42",NA,30,NA,NA,NA,NA,NA,NA
"PDS2014","LB","PDS2014-0004",NA,295,NA,NA,NA,"ANISO","Anisocytes","HEMATOLOGY",NA,"0",NA,NA,NA,"0",0,NA,NA,NA,NA,NA,NA,NA,NA,"WHOLE BLOOD",NA,NA,NA,NA,NA,NA,NA,NA,NA,NA,NA,NA,NA,NA,NA,30,"2011-01-09T07:44:42",NA,30,NA,NA,NA,NA,NA,NA
"PDS2014","LB","PDS2014-0004",NA,296,NA,NA,NA,"PLATLRG","Large Platelets","HEMATOLOGY",NA,"0",NA,NA,NA,"0",0,NA,NA,NA,NA,NA,NA,NA,NA,"WHOLE BLOOD",NA,NA,NA,NA,NA,NA,NA,NA,NA,NA,NA,NA,NA,NA,NA,30,"2011-01-09T07:44:42",NA,30,NA,NA,NA,NA,NA,NA
"PDS2014","LB","PDS2014-0004",NA,297,NA,NA,NA,"RBCNUCLE","Nucleated Erythrocytes/Leukocytes","HEMATOLOGY",NA,"NE","%",NA,NA,"NE",NA,"%",NA,NA,NA,NA,NA,NA,NA,"WHOLE BLOOD",NA,NA,NA,NA,NA,NA,NA,NA,NA,NA,NA,NA,NA,NA,NA,30,"2011-01-09T07:44:42",NA,30,NA,NA,NA,NA,NA,NA
"PDS2014","LB","PDS2014-0004",NA,298,NA,NA,NA,"MCV","Ery. Mean Corpuscular Volume","HEMATOLOGY",NA,"56.6","fL",NA,NA,"56.6",56.6,"fL",NA,NA,NA,NA,NA,NA,NA,"WHOLE BLOOD",NA,NA,NA,NA,NA,NA,NA,NA,NA,NA,NA,NA,NA,NA,NA,30,"2011-01-09T07:44:42",NA,30,NA,NA,NA,NA,NA,NA
"PDS2014","LB","PDS2014-0004",NA,299,NA,NA,NA,"RBC","Erythrocytes","HEMATOLOGY",NA,"8.19","10^12/L",NA,NA,"8.19",8.19,"10^12/L",NA,NA,NA,NA,NA,NA,NA,"WHOLE BLOOD",NA,NA,NA,NA,NA,NA,NA,NA,NA,NA,NA,NA,NA,NA,NA,30,"2011-01-09T07:44:42",NA,30,NA,NA,NA,NA,NA,NA
"PDS2014","LB","PDS2014-0004",NA,300,NA,NA,NA,"BASO","Basophils","HEMATOLOGY",NA,"0.06","10^9/L",NA,NA,"0.06",0.06,"10^9/L",NA,NA,NA,NA,NA,NA,NA,"WHOLE BLOOD",NA,NA,NA,NA,NA,NA,NA,NA,NA,NA,NA,NA,NA,NA,NA,30,"2011-01-09T07:44:42",NA,30,NA,NA,NA,NA,NA,NA
"PDS2014","LB","PDS2014-0004",NA,301,NA,NA,NA,"HGB","Hemoglobin","HEMATOLOGY",NA,"15.5","g/dL",NA,NA,"15.5",15.5,"g/dL",NA,NA,NA,NA,NA,NA,NA,"WHOLE BLOOD",NA,NA,NA,NA,NA,NA,NA,NA,NA,NA,NA,NA,NA,NA,NA,30,"2011-01-09T07:44:42",NA,30,NA,NA,NA,NA,NA,NA
"PDS2014","LB","PDS2014-0004",NA,302,NA,NA,NA,"MACROCY","Macrocytes","HEMATOLOGY",NA,"0",NA,NA,NA,"0",0,NA,NA,NA,NA,NA,NA,NA,NA,"WHOLE BLOOD",NA,NA,NA,NA,NA,NA,NA,NA,NA,NA,NA,NA,NA,NA,NA,30,"2011-01-09T07:44:42",NA,30,NA,NA,NA,NA,NA,NA
"PDS2014","LB","PDS2014-0004",NA,303,NA,NA,NA,"ALBGLOB","Albumin/Globulin","HEMATOLOGY",NA,"2.33","RATIO",NA,NA,"2.33",2.33,"RATIO",NA,NA,NA,NA,NA,NA,NA,"WHOLE BLOOD",NA,NA,NA,NA,NA,NA,NA,NA,NA,NA,NA,NA,NA,NA,NA,30,"2011-01-09T07:44:42",NA,30,NA,NA,NA,NA,NA,NA
"PDS2014","LB","PDS2014-0004",NA,304,NA,NA,NA,"LGLUCLE","Large Unstained Cells/Leukocytes","HEMATOLOGY",NA,"0.6","%",NA,NA,"0.6",0.6,"%",NA,NA,NA,NA,NA,NA,NA,"WHOLE BLOOD",NA,NA,NA,NA,NA,NA,NA,NA,NA,NA,NA,NA,NA,NA,NA,30,"2011-01-09T07:44:42",NA,30,NA,NA,NA,NA,NA,NA
"PDS2014","LB","PDS2014-0004",NA,305,NA,NA,NA,"MCH","Ery. Mean Corpuscular Hemoglobin","HEMATOLOGY",NA,"18.9","pg",NA,NA,"18.9",18.9,"pg",NA,NA,NA,NA,NA,NA,NA,"WHOLE BLOOD",NA,NA,NA,NA,NA,NA,NA,NA,NA,NA,NA,NA,NA,NA,NA,30,"2011-01-09T07:44:42",NA,30,NA,NA,NA,NA,NA,NA
"PDS2014","LB","PDS2014-0004",NA,306,NA,NA,NA,"HCT","Hematocrit","HEMATOLOGY",NA,"46.4","%",NA,NA,"46.4",46.4,"%",NA,NA,NA,NA,NA,NA,NA,"WHOLE BLOOD",NA,NA,NA,NA,NA,NA,NA,NA,NA,NA,NA,NA,NA,NA,NA,30,"2011-01-09T07:44:42",NA,30,NA,NA,NA,NA,NA,NA
"PDS2014","LB","PDS2014-0004",NA,307,NA,NA,NA,"GLOBUL","Globulin","HEMATOLOGY",NA,"1.65","g/dL",NA,NA,"1.65",1.65,"g/dL",NA,NA,NA,NA,NA,NA,NA,"WHOLE BLOOD",NA,NA,NA,NA,NA,NA,NA,NA,NA,NA,NA,NA,NA,NA,NA,30,"2011-01-09T07:44:42",NA,30,NA,NA,NA,NA,NA,NA
"PDS2014","LB","PDS2014-0004",NA,308,NA,NA,NA,"PLATCLMP","Platelet Clumps","HEMATOLOGY",NA,"0",NA,NA,NA,"0",0,NA,NA,NA,NA,NA,NA,NA,NA,"WHOLE BLOOD",NA,NA,NA,NA,NA,NA,NA,NA,NA,NA,NA,NA,NA,NA,NA,30,"2011-01-09T07:44:42",NA,30,NA,NA,NA,NA,NA,NA
"PDS2014","LB","PDS2014-0004",NA,309,NA,NA,NA,"HPOCROM","Hypochromia","HEMATOLOGY",NA,"0",NA,NA,NA,"0",0,NA,NA,NA,NA,NA,NA,NA,NA,"WHOLE BLOOD",NA,NA,NA,NA,NA,NA,NA,NA,NA,NA,NA,NA,NA,NA,NA,30,"2011-01-09T07:44:42",NA,30,NA,NA,NA,NA,NA,NA
"PDS2014","LB","PDS2014-0004",NA,310,NA,NA,NA,"NEUT","Neutrophils","HEMATOLOGY",NA,"1.01","10^9/L",NA,NA,"1.01",1.01,"10^9/L",NA,NA,NA,NA,NA,NA,NA,"WHOLE BLOOD",NA,NA,NA,NA,NA,NA,NA,NA,NA,NA,NA,NA,NA,NA,NA,30,"2011-01-09T07:44:42",NA,30,NA,NA,NA,NA,NA,NA
"PDS2014","LB","PDS2014-0004",NA,311,NA,NA,NA,"MONOCE","Monocytes/Total Cells","HEMATOLOGY",NA,"1.1","%",NA,NA,"1.1",1.1,"%",NA,NA,NA,NA,NA,NA,NA,"WHOLE BLOOD",NA,NA,NA,NA,NA,NA,NA,NA,NA,NA,NA,NA,NA,NA,NA,30,"2011-01-09T07:44:42",NA,30,NA,NA,NA,NA,NA,NA
"PDS2014","LB","PDS2014-0004",NA,312,NA,NA,NA,"RDW","Erythrocytes Distribution Width","HEMATOLOGY",NA,"12","%",NA,NA,"12",12,"%",NA,NA,NA,NA,NA,NA,NA,"WHOLE BLOOD",NA,NA,NA,NA,NA,NA,NA,NA,NA,NA,NA,NA,NA,NA,NA,30,"2011-01-09T07:44:42",NA,30,NA,NA,NA,NA,NA,NA
"PDS2014","LB","PDS2014-0004",NA,313,NA,NA,NA,"MONO","Monocytes","HEMATOLOGY",NA,"0.16","10^9/L",NA,NA,"0.16",0.16,"10^9/L",NA,NA,NA,NA,NA,NA,NA,"WHOLE BLOOD",NA,NA,NA,NA,NA,NA,NA,NA,NA,NA,NA,NA,NA,NA,NA,30,"2011-01-09T07:44:42",NA,30,NA,NA,NA,NA,NA,NA
"PDS2014","LB","PDS2014-0004",NA,314,NA,NA,NA,"RETIRBC","Reticulocytes/Erythrocytes","HEMATOLOGY",NA,"2.5","%",NA,NA,"2.5",2.5,"%",NA,NA,NA,NA,NA,NA,NA,"WHOLE BLOOD",NA,NA,NA,NA,NA,NA,NA,NA,NA,NA,NA,NA,NA,NA,NA,30,"2011-01-09T07:44:42",NA,30,NA,NA,NA,NA,NA,NA
"PDS2014","LB","PDS2014-0004",NA,315,NA,NA,NA,"LGUNSCE","Large Unstained Cells","HEMATOLOGY",NA,"0.09","10^9/L",NA,NA,"0.09",0.09,"10^9/L",NA,NA,NA,NA,NA,NA,NA,"WHOLE BLOOD",NA,NA,NA,NA,NA,NA,NA,NA,NA,NA,NA,NA,NA,NA,NA,30,"2011-01-09T07:44:42",NA,30,NA,NA,NA,NA,NA,NA
"PDS2014","LB","PDS2014-0004",NA,316,NA,NA,NA,"EOS","Eosinophils","HEMATOLOGY",NA,"0.12","10^9/L",NA,NA,"0.12",0.12,"10^9/L",NA,NA,NA,NA,NA,NA,NA,"WHOLE BLOOD",NA,NA,NA,NA,NA,NA,NA,NA,NA,NA,NA,NA,NA,NA,NA,30,"2011-01-09T07:44:42",NA,30,NA,NA,NA,NA,NA,NA
"PDS2014","LB","PDS2014-0004",NA,317,NA,NA,NA,"MICROCY","Microcytes","HEMATOLOGY",NA,"0",NA,NA,NA,"0",0,NA,NA,NA,NA,NA,NA,NA,NA,"WHOLE BLOOD",NA,NA,NA,NA,NA,NA,NA,NA,NA,NA,NA,NA,NA,NA,NA,30,"2011-01-09T07:44:42",NA,30,NA,NA,NA,NA,NA,NA
"PDS2014","LB","PDS2014-0004",NA,318,NA,NA,NA,"WBC","Leukocytes","HEMATOLOGY",NA,"13.71","10^9/L",NA,NA,"13.71",13.71,"10^9/L",NA,NA,NA,NA,NA,NA,NA,"WHOLE BLOOD",NA,NA,NA,NA,NA,NA,NA,NA,NA,NA,NA,NA,NA,NA,NA,30,"2011-01-09T07:44:42",NA,30,NA,NA,NA,NA,NA,NA
"PDS2014","LB","PDS2014-0004",NA,319,NA,NA,NA,"NEUTCE","Neutrophils/Total Cells","HEMATOLOGY",NA,"7.3","%",NA,NA,"7.3",7.3,"%",NA,NA,NA,NA,NA,NA,NA,"WHOLE BLOOD",NA,NA,NA,NA,NA,NA,NA,NA,NA,NA,NA,NA,NA,NA,NA,30,"2011-01-09T07:44:42",NA,30,NA,NA,NA,NA,NA,NA
"PDS2014","LB","PDS2014-0004",NA,320,NA,NA,NA,"LYMCE","Lymphocytes/Total Cells","HEMATOLOGY",NA,"89.6","%",NA,NA,"89.6",89.6,"%",NA,NA,NA,NA,NA,NA,NA,"WHOLE BLOOD",NA,NA,NA,NA,NA,NA,NA,NA,NA,NA,NA,NA,NA,NA,NA,30,"2011-01-09T07:44:42",NA,30,NA,NA,NA,NA,NA,NA
"PDS2014","LB","PDS2014-0004",NA,321,NA,NA,NA,"LYM","Lymphocytes","HEMATOLOGY",NA,"12.28","10^9/L",NA,NA,"12.28",12.28,"10^9/L",NA,NA,NA,NA,NA,NA,NA,"WHOLE BLOOD",NA,NA,NA,NA,NA,NA,NA,NA,NA,NA,NA,NA,NA,NA,NA,30,"2011-01-09T07:44:42",NA,30,NA,NA,NA,NA,NA,NA
"PDS2014","LB","PDS2014-0004",NA,322,NA,NA,NA,"BASOCE","Basophils/Total Cells","HEMATOLOGY",NA,"0.4","%",NA,NA,"0.4",0.4,"%",NA,NA,NA,NA,NA,NA,NA,"WHOLE BLOOD",NA,NA,NA,NA,NA,NA,NA,NA,NA,NA,NA,NA,NA,NA,NA,30,"2011-01-09T07:44:42",NA,30,NA,NA,NA,NA,NA,NA
"PDS2014","LB","PDS2014-0004",NA,323,NA,NA,NA,"EOSCE","Eosinophils/Total Cells","HEMATOLOGY",NA,"0.9","%",NA,NA,"0.9",0.9,"%",NA,NA,NA,NA,NA,NA,NA,"WHOLE BLOOD",NA,NA,NA,NA,NA,NA,NA,NA,NA,NA,NA,NA,NA,NA,NA,30,"2011-01-09T07:44:42",NA,30,NA,NA,NA,NA,NA,NA
"PDS2014","LB","PDS2014-0004",NA,324,NA,NA,NA,"PLAT","Platelets","HEMATOLOGY",NA,"963","10^9/L",NA,NA,"963",963,"10^9/L",NA,NA,NA,NA,NA,NA,NA,"WHOLE BLOOD",NA,NA,NA,NA,NA,NA,NA,NA,NA,NA,NA,NA,NA,NA,NA,30,"2011-01-09T07:44:42",NA,30,NA,NA,NA,NA,NA,NA
"PDS2014","LB","PDS2014-0004",NA,325,NA,NA,NA,"RETI","Reticulocytes","HEMATOLOGY",NA,"202.2","10^9/L",NA,NA,"202.2",202.2,"10^9/L",NA,NA,NA,NA,NA,NA,NA,"WHOLE BLOOD",NA,NA,NA,NA,NA,NA,NA,NA,NA,NA,NA,NA,NA,NA,NA,30,"2011-01-09T07:44:42",NA,30,NA,NA,NA,NA,NA,NA
"PDS2014","LB","PDS2014-0004",NA,326,NA,NA,NA,"WBC","Leukocytes","URINALYSIS",NA,"0",NA,NA,NA,"0",0,NA,NA,NA,NA,NA,NA,NA,NA,"URINE",NA,NA,NA,NA,NA,NA,NA,NA,NA,NA,NA,NA,NA,NA,NA,30,"2011-01-09T07:14:37",NA,30,NA,NA,NA,NA,NA,NA
"PDS2014","LB","PDS2014-0004",NA,327,NA,NA,NA,"CSFAT","Fatty Casts","URINALYSIS",NA,"0",NA,NA,NA,"0",0,NA,NA,NA,NA,NA,NA,NA,NA,"URINE",NA,NA,NA,NA,NA,NA,NA,NA,NA,NA,NA,NA,NA,NA,NA,30,"2011-01-09T07:14:37",NA,30,NA,NA,NA,NA,NA,NA
"PDS2014","LB","PDS2014-0004",NA,328,NA,NA,NA,"CSWBC","WBC Casts","URINALYSIS",NA,"0",NA,NA,NA,"0",0,NA,NA,NA,NA,NA,NA,NA,NA,"URINE",NA,NA,NA,NA,NA,NA,NA,NA,NA,NA,NA,NA,NA,NA,NA,30,"2011-01-09T07:14:37",NA,30,NA,NA,NA,NA,NA,NA
"PDS2014","LB","PDS2014-0004",NA,329,NA,NA,NA,"CYTRPHOS","Triple Phosphate Crystals","URINALYSIS",NA,"3",NA,NA,NA,"3",3,NA,NA,NA,NA,NA,NA,NA,NA,"URINE",NA,NA,NA,NA,NA,NA,NA,NA,NA,NA,NA,NA,NA,NA,NA,30,"2011-01-09T07:14:37",NA,30,NA,NA,NA,NA,NA,NA
"PDS2014","LB","PDS2014-0004",NA,330,NA,NA,NA,"SPERM","Spermatozoa","URINALYSIS",NA,"2",NA,NA,NA,"2",2,NA,NA,NA,NA,NA,NA,NA,NA,"URINE",NA,NA,NA,NA,NA,NA,NA,NA,NA,NA,NA,NA,NA,NA,NA,30,"2011-01-09T07:14:37",NA,30,NA,NA,NA,NA,NA,NA
"PDS2014","LB","PDS2014-0004",NA,331,NA,NA,NA,"CSWAX","Waxy Casts","URINALYSIS",NA,"0",NA,NA,NA,"0",0,NA,NA,NA,NA,NA,NA,NA,NA,"URINE",NA,NA,NA,NA,NA,NA,NA,NA,NA,NA,NA,NA,NA,NA,NA,30,"2011-01-09T07:14:37",NA,30,NA,NA,NA,NA,NA,NA
"PDS2014","LB","PDS2014-0004",NA,332,NA,NA,NA,"CLARITY","Clarity","URINALYSIS",NA,"CLEAR",NA,NA,NA,"CLEAR",NA,NA,NA,NA,NA,NA,NA,NA,NA,"URINE",NA,NA,NA,NA,NA,NA,NA,NA,NA,NA,NA,NA,NA,NA,NA,30,"2011-01-09T07:14:37",NA,30,NA,NA,NA,NA,NA,NA
"PDS2014","LB","PDS2014-0004",NA,333,NA,NA,NA,"OCCBLD","Occult Blood","URINALYSIS",NA,"10","/uL",NA,NA,"10",10,"/uL",NA,NA,NA,NA,NA,NA,NA,"URINE",NA,NA,NA,NA,NA,NA,NA,NA,NA,NA,NA,NA,NA,NA,NA,30,"2011-01-09T07:14:37",NA,30,NA,NA,NA,NA,NA,NA
"PDS2014","LB","PDS2014-0004",NA,334,NA,NA,NA,"CSGRAN","Granular Casts","URINALYSIS",NA,"0",NA,NA,NA,"0",0,NA,NA,NA,NA,NA,NA,NA,NA,"URINE",NA,NA,NA,NA,NA,NA,NA,NA,NA,NA,NA,NA,NA,NA,NA,30,"2011-01-09T07:14:37",NA,30,NA,NA,NA,NA,NA,NA
"PDS2014","LB","PDS2014-0004",NA,335,NA,NA,NA,"YEAST","Yeast Cells","URINALYSIS",NA,"0",NA,NA,NA,"0",0,NA,NA,NA,NA,NA,NA,NA,NA,"URINE",NA,NA,NA,NA,NA,NA,NA,NA,NA,NA,NA,NA,NA,NA,NA,30,"2011-01-09T07:14:37",NA,30,NA,NA,NA,NA,NA,NA
"PDS2014","LB","PDS2014-0004",NA,336,NA,NA,NA,"PH","pH","URINALYSIS",NA,"8",NA,NA,NA,"8",8,NA,NA,NA,NA,NA,NA,NA,NA,"URINE",NA,NA,NA,NA,NA,NA,NA,NA,NA,NA,NA,NA,NA,NA,NA,30,"2011-01-09T07:14:37",NA,30,NA,NA,NA,NA,NA,NA
"PDS2014","LB","PDS2014-0004",NA,337,NA,NA,NA,"EPIC","Epithelial Cells","URINALYSIS",NA,"0",NA,NA,NA,"0",0,NA,NA,NA,NA,NA,NA,NA,NA,"URINE",NA,NA,NA,NA,NA,NA,NA,NA,NA,NA,NA,NA,NA,NA,NA,30,"2011-01-09T07:14:37",NA,30,NA,NA,NA,NA,NA,NA
"PDS2014","LB","PDS2014-0004",NA,338,NA,NA,NA,"CASULPH","Calcium Sulphate","URINALYSIS",NA,"0",NA,NA,NA,"0",0,NA,NA,NA,NA,NA,NA,NA,NA,"URINE",NA,NA,NA,NA,NA,NA,NA,NA,NA,NA,NA,NA,NA,NA,NA,30,"2011-01-09T07:14:37",NA,30,NA,NA,NA,NA,NA,NA
"PDS2014","LB","PDS2014-0004",NA,339,NA,NA,NA,"GLUC","Glucose","URINALYSIS",NA,"NORM",NA,NA,NA,"NORM",NA,NA,NA,NA,NA,NA,NA,NA,NA,"URINE",NA,NA,NA,NA,NA,NA,NA,NA,NA,NA,NA,NA,NA,NA,NA,30,"2011-01-09T07:14:37",NA,30,NA,NA,NA,NA,NA,NA
"PDS2014","LB","PDS2014-0004",NA,340,NA,NA,NA,"CYCHOL","Cholesterol Crystals","URINALYSIS",NA,"0",NA,NA,NA,"0",0,NA,NA,NA,NA,NA,NA,NA,NA,"URINE",NA,NA,NA,NA,NA,NA,NA,NA,NA,NA,NA,NA,NA,NA,NA,30,"2011-01-09T07:14:37",NA,30,NA,NA,NA,NA,NA,NA
"PDS2014","LB","PDS2014-0004",NA,341,NA,NA,NA,"PROT","Protein","URINALYSIS",NA,"25","mg/dL",NA,NA,"25",25,"mg/dL",NA,NA,NA,NA,NA,NA,NA,"URINE",NA,NA,NA,NA,NA,NA,NA,NA,NA,NA,NA,NA,NA,NA,NA,30,"2011-01-09T07:14:37",NA,30,NA,NA,NA,NA,NA,NA
"PDS2014","LB","PDS2014-0004",NA,342,NA,NA,NA,"CYURIAC","Uric Acid Crystals","URINALYSIS",NA,"0",NA,NA,NA,"0",0,NA,NA,NA,NA,NA,NA,NA,NA,"URINE",NA,NA,NA,NA,NA,NA,NA,NA,NA,NA,NA,NA,NA,NA,NA,30,"2011-01-09T07:14:37",NA,30,NA,NA,NA,NA,NA,NA
"PDS2014","LB","PDS2014-0004",NA,343,NA,NA,NA,"KETONES","Ketones","URINALYSIS",NA,"15","mg/dL",NA,NA,"15",15,"mg/dL",NA,NA,NA,NA,NA,NA,NA,"URINE",NA,NA,NA,NA,NA,NA,NA,NA,NA,NA,NA,NA,NA,NA,NA,30,"2011-01-09T07:14:37",NA,30,NA,NA,NA,NA,NA,NA
"PDS2014","LB","PDS2014-0004",NA,344,NA,NA,NA,"CYTYRO","Tyrosine Crystals","URINALYSIS",NA,"0",NA,NA,NA,"0",0,NA,NA,NA,NA,NA,NA,NA,NA,"URINE",NA,NA,NA,NA,NA,NA,NA,NA,NA,NA,NA,NA,NA,NA,NA,30,"2011-01-09T07:14:37",NA,30,NA,NA,NA,NA,NA,NA
"PDS2014","LB","PDS2014-0004",NA,345,NA,NA,NA,"COLOR","Color","URINALYSIS",NA,"PALE",NA,NA,NA,"PALE",NA,NA,NA,NA,NA,NA,NA,NA,NA,"URINE",NA,NA,NA,NA,NA,NA,NA,NA,NA,NA,NA,NA,NA,NA,NA,30,"2011-01-09T07:14:37",NA,30,NA,NA,NA,NA,NA,NA
"PDS2014","LB","PDS2014-0004",NA,346,NA,NA,NA,"CSRBC","RBC Casts","URINALYSIS",NA,"0",NA,NA,NA,"0",0,NA,NA,NA,NA,NA,NA,NA,NA,"URINE",NA,NA,NA,NA,NA,NA,NA,NA,NA,NA,NA,NA,NA,NA,NA,30,"2011-01-09T07:14:37",NA,30,NA,NA,NA,NA,NA,NA
"PDS2014","LB","PDS2014-0004",NA,347,NA,NA,NA,"SPGRAV","Specific Gravity","URINALYSIS",NA,"1.03","RATIO",NA,NA,"1.03",1.03,"RATIO",NA,NA,NA,NA,NA,NA,NA,"URINE",NA,NA,NA,NA,NA,NA,NA,NA,NA,NA,NA,NA,NA,NA,NA,30,"2011-01-09T07:14:37",NA,30,NA,NA,NA,NA,NA,NA
"PDS2014","LB","PDS2014-0004",NA,348,NA,NA,NA,"CYBILI","Bilirubin Crystals","URINALYSIS",NA,"0",NA,NA,NA,"0",0,NA,NA,NA,NA,NA,NA,NA,NA,"URINE",NA,NA,NA,NA,NA,NA,NA,NA,NA,NA,NA,NA,NA,NA,NA,30,"2011-01-09T07:14:37",NA,30,NA,NA,NA,NA,NA,NA
"PDS2014","LB","PDS2014-0004",NA,349,NA,NA,NA,"CYCAOXA","Calcium Oxalate Crystals","URINALYSIS",NA,"0",NA,NA,NA,"0",0,NA,NA,NA,NA,NA,NA,NA,NA,"URINE",NA,NA,NA,NA,NA,NA,NA,NA,NA,NA,NA,NA,NA,NA,NA,30,"2011-01-09T07:14:37",NA,30,NA,NA,NA,NA,NA,NA
"PDS2014","LB","PDS2014-0004",NA,350,NA,NA,NA,"CSEPI","Epithelial Casts","URINALYSIS",NA,"0",NA,NA,NA,"0",0,NA,NA,NA,NA,NA,NA,NA,NA,"URINE",NA,NA,NA,NA,NA,NA,NA,NA,NA,NA,NA,NA,NA,NA,NA,30,"2011-01-09T07:14:37",NA,30,NA,NA,NA,NA,NA,NA
"PDS2014","LB","PDS2014-0004",NA,351,NA,NA,NA,"RBC","Erythrocytes","URINALYSIS",NA,"0",NA,NA,NA,"0",0,NA,NA,NA,NA,NA,NA,NA,NA,"URINE",NA,NA,NA,NA,NA,NA,NA,NA,NA,NA,NA,NA,NA,NA,NA,30,"2011-01-09T07:14:37",NA,30,NA,NA,NA,NA,NA,NA
"PDS2014","LB","PDS2014-0004",NA,352,NA,NA,NA,"CYCYSTIN","Cystine Crystals","URINALYSIS",NA,"0",NA,NA,NA,"0",0,NA,NA,NA,NA,NA,NA,NA,NA,"URINE",NA,NA,NA,NA,NA,NA,NA,NA,NA,NA,NA,NA,NA,NA,NA,30,"2011-01-09T07:14:37",NA,30,NA,NA,NA,NA,NA,NA
"PDS2014","LB","PDS2014-0004",NA,353,NA,NA,NA,"EPITUCE","Tubular Epithelial Cells","URINALYSIS",NA,"0",NA,NA,NA,"0",0,NA,NA,NA,NA,NA,NA,NA,NA,"URINE",NA,NA,NA,NA,NA,NA,NA,NA,NA,NA,NA,NA,NA,NA,NA,30,"2011-01-09T07:14:37",NA,30,NA,NA,NA,NA,NA,NA
"PDS2014","LB","PDS2014-0004",NA,354,NA,NA,NA,"FATDROP","Fat Droplet","URINALYSIS",NA,"0",NA,NA,NA,"0",0,NA,NA,NA,NA,NA,NA,NA,NA,"URINE",NA,NA,NA,NA,NA,NA,NA,NA,NA,NA,NA,NA,NA,NA,NA,30,"2011-01-09T07:14:37",NA,30,NA,NA,NA,NA,NA,NA
"PDS2014","LB","PDS2014-0004",NA,355,NA,NA,NA,"EPISQCE","Squamous Epithelial Cells","URINALYSIS",NA,"1",NA,NA,NA,"1",1,NA,NA,NA,NA,NA,NA,NA,NA,"URINE",NA,NA,NA,NA,NA,NA,NA,NA,NA,NA,NA,NA,NA,NA,NA,30,"2011-01-09T07:14:37",NA,30,NA,NA,NA,NA,NA,NA
"PDS2014","LB","PDS2014-0004",NA,356,NA,NA,NA,"GLOBUL","Globulin","URINALYSIS",NA,"1.65","g/dL",NA,NA,"1.65",1.65,"g/dL",NA,NA,NA,NA,NA,NA,NA,"URINE",NA,NA,NA,NA,NA,NA,NA,NA,NA,NA,NA,NA,NA,NA,NA,30,"2011-01-09T07:14:37",NA,30,NA,NA,NA,NA,NA,NA
"PDS2014","LB","PDS2014-0004",NA,357,NA,NA,NA,"BACT","Bacteria","URINALYSIS",NA,"2",NA,NA,NA,"2",2,NA,NA,NA,NA,NA,NA,NA,NA,"URINE",NA,NA,NA,NA,NA,NA,NA,NA,NA,NA,NA,NA,NA,NA,NA,30,"2011-01-09T07:14:37",NA,30,NA,NA,NA,NA,NA,NA
"PDS2014","LB","PDS2014-0004",NA,358,NA,NA,NA,"CYSTARCH","Starch Crystals","URINALYSIS",NA,"0",NA,NA,NA,"0",0,NA,NA,NA,NA,NA,NA,NA,NA,"URINE",NA,NA,NA,NA,NA,NA,NA,NA,NA,NA,NA,NA,NA,NA,NA,30,"2011-01-09T07:14:37",NA,30,NA,NA,NA,NA,NA,NA
"PDS2014","LB","PDS2014-0004",NA,359,NA,NA,NA,"CYCACAR","Calcium Carbonate Crystals","URINALYSIS",NA,"0",NA,NA,NA,"0",0,NA,NA,NA,NA,NA,NA,NA,NA,"URINE",NA,NA,NA,NA,NA,NA,NA,NA,NA,NA,NA,NA,NA,NA,NA,30,"2011-01-09T07:14:37",NA,30,NA,NA,NA,NA,NA,NA
"PDS2014","LB","PDS2014-0004",NA,360,NA,NA,NA,"CSHYAL","Hyaline Casts","URINALYSIS",NA,"0",NA,NA,NA,"0",0,NA,NA,NA,NA,NA,NA,NA,NA,"URINE",NA,NA,NA,NA,NA,NA,NA,NA,NA,NA,NA,NA,NA,NA,NA,30,"2011-01-09T07:14:37",NA,30,NA,NA,NA,NA,NA,NA
"PDS2014","LB","PDS2014-0004",NA,361,NA,NA,NA,"AMORPHSD","Amorphous Sediment","URINALYSIS",NA,"0",NA,NA,NA,"0",0,NA,NA,NA,NA,NA,NA,NA,NA,"URINE",NA,NA,NA,NA,NA,NA,NA,NA,NA,NA,NA,NA,NA,NA,NA,30,"2011-01-09T07:14:37",NA,30,NA,NA,NA,NA,NA,NA
"PDS2014","LB","PDS2014-0004",NA,362,NA,NA,NA,"ALBGLOB","Albumin/Globulin","URINALYSIS",NA,"2.33","RATIO",NA,NA,"2.33",2.33,"RATIO",NA,NA,NA,NA,NA,NA,NA,"URINE",NA,NA,NA,NA,NA,NA,NA,NA,NA,NA,NA,NA,NA,NA,NA,30,"2011-01-09T07:14:37",NA,30,NA,NA,NA,NA,NA,NA
"PDS2014","LB","PDS2014-0004",NA,363,NA,NA,NA,"CYCAPHOS","Calcium Phosphate Crystals","URINALYSIS",NA,"0",NA,NA,NA,"0",0,NA,NA,NA,NA,NA,NA,NA,NA,"URINE",NA,NA,NA,NA,NA,NA,NA,NA,NA,NA,NA,NA,NA,NA,NA,30,"2011-01-09T07:14:37",NA,30,NA,NA,NA,NA,NA,NA
"PDS2014","LB","PDS2014-0004",NA,364,NA,NA,NA,"VOLUME","Volume","URINALYSIS",NA,"13.8","mL",NA,NA,"13.8",13.8,"mL",NA,NA,NA,NA,NA,NA,NA,"URINE",NA,NA,NA,NA,NA,NA,NA,NA,NA,NA,NA,NA,NA,NA,NA,30,"2011-01-09T07:14:37",NA,30,NA,NA,NA,NA,NA,NA
"PDS2014","LB","PDS2014-0004",NA,365,NA,NA,NA,"AST","Aspartate Aminotransferase","CLINICAL CHEMISTRY",NA,"112.3","U/L",NA,NA,"112.3",112.3,"U/L",NA,NA,NA,NA,NA,NA,NA,"SERUM",NA,NA,NA,NA,NA,NA,NA,NA,NA,NA,NA,NA,NA,NA,NA,30,"2011-01-09T07:44:28",NA,30,NA,NA,NA,NA,NA,NA
"PDS2014","LB","PDS2014-0004",NA,366,NA,NA,NA,"BUN","Blood Urea Nitrogen","CLINICAL CHEMISTRY",NA,"12.7","mg/dL",NA,NA,"12.7",12.7,"mg/dL",NA,NA,NA,NA,NA,NA,NA,"SERUM",NA,NA,NA,NA,NA,NA,NA,NA,NA,NA,NA,NA,NA,NA,NA,30,"2011-01-09T07:44:28",NA,30,NA,NA,NA,NA,NA,NA
"PDS2014","LB","PDS2014-0004",NA,367,NA,NA,NA,"PROT","Protein","CLINICAL CHEMISTRY",NA,"5.5","g/dL",NA,NA,"5.5",5.5,"g/dL",NA,NA,NA,NA,NA,NA,NA,"SERUM",NA,NA,NA,NA,NA,NA,NA,NA,NA,NA,NA,NA,NA,NA,NA,30,"2011-01-09T07:44:28",NA,30,NA,NA,NA,NA,NA,NA
"PDS2014","LB","PDS2014-0004",NA,368,NA,NA,NA,"K","Potassium","CLINICAL CHEMISTRY",NA,"6.07","mmol/L",NA,NA,"6.07",6.07,"mmol/L",NA,NA,NA,NA,NA,NA,NA,"SERUM",NA,NA,NA,NA,NA,NA,NA,NA,NA,NA,NA,NA,NA,NA,NA,30,"2011-01-09T07:44:28",NA,30,NA,NA,NA,NA,NA,NA
"PDS2014","LB","PDS2014-0004",NA,369,NA,NA,NA,"ALB","Albumin","CLINICAL CHEMISTRY",NA,"3.85","g/dL",NA,NA,"3.85",3.85,"g/dL",NA,NA,NA,NA,NA,NA,NA,"SERUM",NA,NA,NA,NA,NA,NA,NA,NA,NA,NA,NA,NA,NA,NA,NA,30,"2011-01-09T07:44:28",NA,30,NA,NA,NA,NA,NA,NA
"PDS2014","LB","PDS2014-0004",NA,370,NA,NA,NA,"CL","Chloride","CLINICAL CHEMISTRY",NA,"100","mmol/L",NA,NA,"100",100,"mmol/L",NA,NA,NA,NA,NA,NA,NA,"SERUM",NA,NA,NA,NA,NA,NA,NA,NA,NA,NA,NA,NA,NA,NA,NA,30,"2011-01-09T07:44:28",NA,30,NA,NA,NA,NA,NA,NA
"PDS2014","LB","PDS2014-0004",NA,371,NA,NA,NA,"ALT","Alanine Aminotransferase","CLINICAL CHEMISTRY",NA,"30.8","U/L",NA,NA,"30.8",30.8,"U/L",NA,NA,NA,NA,NA,NA,NA,"SERUM",NA,NA,NA,NA,NA,NA,NA,NA,NA,NA,NA,NA,NA,NA,NA,30,"2011-01-09T07:44:28",NA,30,NA,NA,NA,NA,NA,NA
"PDS2014","LB","PDS2014-0004",NA,372,NA,NA,NA,"GLUC","Glucose","CLINICAL CHEMISTRY",NA,"106","mg/dL",NA,NA,"106",106,"mg/dL",NA,NA,NA,NA,NA,NA,NA,"SERUM",NA,NA,NA,NA,NA,NA,NA,NA,NA,NA,NA,NA,NA,NA,NA,30,"2011-01-09T07:44:28",NA,30,NA,NA,NA,NA,NA,NA
"PDS2014","LB","PDS2014-0004",NA,373,NA,NA,NA,"SODIUM","Sodium","CLINICAL CHEMISTRY",NA,"143","mmol/L",NA,NA,"143",143,"mmol/L",NA,NA,NA,NA,NA,NA,NA,"SERUM",NA,NA,NA,NA,NA,NA,NA,NA,NA,NA,NA,NA,NA,NA,NA,30,"2011-01-09T07:44:28",NA,30,NA,NA,NA,NA,NA,NA
"PDS2014","LB","PDS2014-0004",NA,374,NA,NA,NA,"CREAT","Creatinine","CLINICAL CHEMISTRY",NA,"0.25","mg/dL",NA,NA,"0.25",0.25,"mg/dL",NA,NA,NA,NA,NA,NA,NA,"SERUM",NA,NA,NA,NA,NA,NA,NA,NA,NA,NA,NA,NA,NA,NA,NA,30,"2011-01-09T07:44:28",NA,30,NA,NA,NA,NA,NA,NA
"PDS2014","LB","PDS2014-0004",NA,375,NA,NA,NA,"BILI","Bilirubin","CLINICAL CHEMISTRY",NA,"0.092","mg/dL",NA,NA,"0.092",0.092,"mg/dL",NA,NA,NA,NA,NA,NA,NA,"SERUM",NA,NA,NA,NA,NA,NA,NA,NA,NA,NA,NA,NA,NA,NA,NA,30,"2011-01-09T07:44:28",NA,30,NA,NA,NA,NA,NA,NA
"PDS2014","LB","PDS2014-0004",NA,376,NA,NA,NA,"CHOL","Cholesterol","CLINICAL CHEMISTRY",NA,"46","mg/dL",NA,NA,"46",46,"mg/dL",NA,NA,NA,NA,NA,NA,NA,"SERUM",NA,NA,NA,NA,NA,NA,NA,NA,NA,NA,NA,NA,NA,NA,NA,30,"2011-01-09T07:44:28",NA,30,NA,NA,NA,NA,NA,NA
"PDS2014","LB","PDS2014-0004",NA,377,NA,NA,NA,"GLOBUL","Globulin","CLINICAL CHEMISTRY",NA,"1.65","g/dL",NA,NA,"1.65",1.65,"g/dL",NA,NA,NA,NA,NA,NA,NA,"SERUM",NA,NA,NA,NA,NA,NA,NA,NA,NA,NA,NA,NA,NA,NA,NA,30,"2011-01-09T07:44:28",NA,30,NA,NA,NA,NA,NA,NA
"PDS2014","LB","PDS2014-0004",NA,378,NA,NA,NA,"ALBGLOB","Albumin/Globulin","CLINICAL CHEMISTRY",NA,"2.33","RATIO",NA,NA,"2.33",2.33,"RATIO",NA,NA,NA,NA,NA,NA,NA,"SERUM",NA,NA,NA,NA,NA,NA,NA,NA,NA,NA,NA,NA,NA,NA,NA,30,"2011-01-09T07:44:28",NA,30,NA,NA,NA,NA,NA,NA
"PDS2014","LB","PDS2014-0004",NA,379,NA,NA,NA,"CA","Calcium","CLINICAL CHEMISTRY",NA,"10.09","mg/dL",NA,NA,"10.09",10.09,"mg/dL",NA,NA,NA,NA,NA,NA,NA,"SERUM",NA,NA,NA,NA,NA,NA,NA,NA,NA,NA,NA,NA,NA,NA,NA,30,"2011-01-09T07:44:28",NA,30,NA,NA,NA,NA,NA,NA
"PDS2014","LB","PDS2014-0004",NA,380,NA,NA,NA,"ALP","Alkaline Phosphatase","CLINICAL CHEMISTRY",NA,"115.6","U/L",NA,NA,"115.6",115.6,"U/L",NA,NA,NA,NA,NA,NA,NA,"SERUM",NA,NA,NA,NA,NA,NA,NA,NA,NA,NA,NA,NA,NA,NA,NA,30,"2011-01-09T07:44:28",NA,30,NA,NA,NA,NA,NA,NA
"PDS2014","LB","PDS2014-0004",NA,381,NA,NA,NA,"PHOS","Phosphate","CLINICAL CHEMISTRY",NA,"8.41","mg/dL",NA,NA,"8.41",8.41,"mg/dL",NA,NA,NA,NA,NA,NA,NA,"SERUM",NA,NA,NA,NA,NA,NA,NA,NA,NA,NA,NA,NA,NA,NA,NA,30,"2011-01-09T07:44:28",NA,30,NA,NA,NA,NA,NA,NA
"PDS2014","LB","PDS2014-0004",NA,382,NA,NA,NA,"TRIG","Triglycerides","CLINICAL CHEMISTRY",NA,"31","mg/dL",NA,NA,"31",31,"mg/dL",NA,NA,NA,NA,NA,NA,NA,"SERUM",NA,NA,NA,NA,NA,NA,NA,NA,NA,NA,NA,NA,NA,NA,NA,30,"2011-01-09T07:44:28",NA,30,NA,NA,NA,NA,NA,NA
"PDS2014","LB","PDS2014-0004",NA,383,NA,NA,NA,"GGT","Gamma Glutamyl Transferase","CLINICAL CHEMISTRY",NA,"LO","U/L",NA,NA,"LO",NA,"U/L",NA,NA,NA,NA,NA,NA,NA,"SERUM",NA,NA,NA,NA,NA,NA,NA,NA,NA,NA,NA,NA,NA,NA,NA,30,"2011-01-09T07:44:28",NA,30,NA,NA,NA,NA,NA,NA
"PDS2014","LB","PDS2014-0004",NA,384,NA,NA,NA,"GLOBUL","Globulin","COAGULATION",NA,"1.65","g/dL",NA,NA,"1.65",1.65,"g/dL",NA,NA,NA,NA,NA,NA,NA,"PLASMA",NA,NA,NA,NA,NA,NA,NA,NA,NA,NA,NA,NA,NA,NA,NA,30,"2011-01-09T07:44:34",NA,30,NA,NA,NA,NA,NA,NA
"PDS2014","LB","PDS2014-0004",NA,385,NA,NA,NA,"ALBGLOB","Albumin/Globulin","COAGULATION",NA,"2.33","RATIO",NA,NA,"2.33",2.33,"RATIO",NA,NA,NA,NA,NA,NA,NA,"PLASMA",NA,NA,NA,NA,NA,NA,NA,NA,NA,NA,NA,NA,NA,NA,NA,30,"2011-01-09T07:44:34",NA,30,NA,NA,NA,NA,NA,NA
"PDS2014","LB","PDS2014-0004",NA,386,NA,NA,NA,"PT","Prothrombin Time","COAGULATION",NA,"12.8","sec",NA,NA,"12.8",12.8,"sec",NA,NA,NA,NA,NA,NA,NA,"PLASMA",NA,NA,NA,NA,NA,NA,NA,NA,NA,NA,NA,NA,NA,NA,NA,30,"2011-01-09T07:44:34",NA,30,NA,NA,NA,NA,NA,NA
"PDS2014","LB","PDS2014-0004",NA,387,NA,NA,NA,"APTT","Activated Partial Thromboplastin Time","COAGULATION",NA,"16.6","sec",NA,NA,"16.6",16.6,"sec",NA,NA,NA,NA,NA,NA,NA,"PLASMA",NA,NA,NA,NA,NA,NA,NA,NA,NA,NA,NA,NA,NA,NA,NA,30,"2011-01-09T07:44:34",NA,30,NA,NA,NA,NA,NA,NA
"PDS2014","LB","PDS2014-0004",NA,388,NA,NA,NA,"FIBRINO","Fibrinogen","COAGULATION",NA,"140","mg/dL",NA,NA,"140",140,"mg/dL",NA,NA,NA,NA,NA,NA,NA,"PLASMA",NA,NA,NA,NA,NA,NA,NA,NA,NA,NA,NA,NA,NA,NA,NA,30,"2011-01-09T07:44:34",NA,30,NA,NA,NA,NA,NA,NA
"PDS2014","LB","PDS2014-0005",NA,389,NA,NA,NA,"FATACFR","Free Fatty Acid","CLINICAL CHEMISTRY",NA,"0.43","mmol/L",NA,NA,"0.43",0.43,"mmol/L",NA,NA,NA,NA,NA,NA,NA,"SERUM",NA,NA,NA,NA,NA,NA,NA,NA,NA,NA,NA,NA,NA,NA,NA,30,"2011-01-09T14:04:46",NA,30,NA,NA,NA,NA,NA,NA
"PDS2014","LB","PDS2014-0005",NA,390,NA,NA,NA,"PLATLRG","Large Platelets","HEMATOLOGY",NA,"0",NA,NA,NA,"0",0,NA,NA,NA,NA,NA,NA,NA,NA,"WHOLE BLOOD",NA,NA,NA,NA,NA,NA,NA,NA,NA,NA,NA,NA,NA,NA,NA,30,"2011-01-09T07:45:26",NA,30,NA,NA,NA,NA,NA,NA
"PDS2014","LB","PDS2014-0005",NA,391,NA,NA,NA,"MCV","Ery. Mean Corpuscular Volume","HEMATOLOGY",NA,"57.5","fL",NA,NA,"57.5",57.5,"fL",NA,NA,NA,NA,NA,NA,NA,"WHOLE BLOOD",NA,NA,NA,NA,NA,NA,NA,NA,NA,NA,NA,NA,NA,NA,NA,30,"2011-01-09T07:45:26",NA,30,NA,NA,NA,NA,NA,NA
"PDS2014","LB","PDS2014-0005",NA,392,NA,NA,NA,"HCT","Hematocrit","HEMATOLOGY",NA,"46.9","%",NA,NA,"46.9",46.9,"%",NA,NA,NA,NA,NA,NA,NA,"WHOLE BLOOD",NA,NA,NA,NA,NA,NA,NA,NA,NA,NA,NA,NA,NA,NA,NA,30,"2011-01-09T07:45:26",NA,30,NA,NA,NA,NA,NA,NA
"PDS2014","LB","PDS2014-0005",NA,393,NA,NA,NA,"ALBGLOB","Albumin/Globulin","HEMATOLOGY",NA,"2.33","RATIO",NA,NA,"2.33",2.33,"RATIO",NA,NA,NA,NA,NA,NA,NA,"WHOLE BLOOD",NA,NA,NA,NA,NA,NA,NA,NA,NA,NA,NA,NA,NA,NA,NA,30,"2011-01-09T07:45:26",NA,30,NA,NA,NA,NA,NA,NA
"PDS2014","LB","PDS2014-0005",NA,394,NA,NA,NA,"MONOCE","Monocytes/Total Cells","HEMATOLOGY",NA,"1.2","%",NA,NA,"1.2",1.2,"%",NA,NA,NA,NA,NA,NA,NA,"WHOLE BLOOD",NA,NA,NA,NA,NA,NA,NA,NA,NA,NA,NA,NA,NA,NA,NA,30,"2011-01-09T07:45:26",NA,30,NA,NA,NA,NA,NA,NA
"PDS2014","LB","PDS2014-0005",NA,395,NA,NA,NA,"EOS","Eosinophils","HEMATOLOGY",NA,"0.11","10^9/L",NA,NA,"0.11",0.11,"10^9/L",NA,NA,NA,NA,NA,NA,NA,"WHOLE BLOOD",NA,NA,NA,NA,NA,NA,NA,NA,NA,NA,NA,NA,NA,NA,NA,30,"2011-01-09T07:45:26",NA,30,NA,NA,NA,NA,NA,NA
"PDS2014","LB","PDS2014-0005",NA,396,NA,NA,NA,"RETIRBC","Reticulocytes/Erythrocytes","HEMATOLOGY",NA,"1.9","%",NA,NA,"1.9",1.9,"%",NA,NA,NA,NA,NA,NA,NA,"WHOLE BLOOD",NA,NA,NA,NA,NA,NA,NA,NA,NA,NA,NA,NA,NA,NA,NA,30,"2011-01-09T07:45:26",NA,30,NA,NA,NA,NA,NA,NA
"PDS2014","LB","PDS2014-0005",NA,397,NA,NA,NA,"LGLUCLE","Large Unstained Cells/Leukocytes","HEMATOLOGY",NA,"0.4","%",NA,NA,"0.4",0.4,"%",NA,NA,NA,NA,NA,NA,NA,"WHOLE BLOOD",NA,NA,NA,NA,NA,NA,NA,NA,NA,NA,NA,NA,NA,NA,NA,30,"2011-01-09T07:45:26",NA,30,NA,NA,NA,NA,NA,NA
"PDS2014","LB","PDS2014-0005",NA,398,NA,NA,NA,"BASOCE","Basophils/Total Cells","HEMATOLOGY",NA,"0.2","%",NA,NA,"0.2",0.2,"%",NA,NA,NA,NA,NA,NA,NA,"WHOLE BLOOD",NA,NA,NA,NA,NA,NA,NA,NA,NA,NA,NA,NA,NA,NA,NA,30,"2011-01-09T07:45:26",NA,30,NA,NA,NA,NA,NA,NA
"PDS2014","LB","PDS2014-0005",NA,399,NA,NA,NA,"LYMCE","Lymphocytes/Total Cells","HEMATOLOGY",NA,"77.7","%",NA,NA,"77.7",77.7,"%",NA,NA,NA,NA,NA,NA,NA,"WHOLE BLOOD",NA,NA,NA,NA,NA,NA,NA,NA,NA,NA,NA,NA,NA,NA,NA,30,"2011-01-09T07:45:26",NA,30,NA,NA,NA,NA,NA,NA
"PDS2014","LB","PDS2014-0005",NA,400,NA,NA,NA,"HPOCROM","Hypochromia","HEMATOLOGY",NA,"0",NA,NA,NA,"0",0,NA,NA,NA,NA,NA,NA,NA,NA,"WHOLE BLOOD",NA,NA,NA,NA,NA,NA,NA,NA,NA,NA,NA,NA,NA,NA,NA,30,"2011-01-09T07:45:26",NA,30,NA,NA,NA,NA,NA,NA
"PDS2014","LB","PDS2014-0005",NA,401,NA,NA,NA,"GLOBUL","Globulin","HEMATOLOGY",NA,"1.65","g/dL",NA,NA,"1.65",1.65,"g/dL",NA,NA,NA,NA,NA,NA,NA,"WHOLE BLOOD",NA,NA,NA,NA,NA,NA,NA,NA,NA,NA,NA,NA,NA,NA,NA,30,"2011-01-09T07:45:26",NA,30,NA,NA,NA,NA,NA,NA
"PDS2014","LB","PDS2014-0005",NA,402,NA,NA,NA,"PLATCLMP","Platelet Clumps","HEMATOLOGY",NA,"0",NA,NA,NA,"0",0,NA,NA,NA,NA,NA,NA,NA,NA,"WHOLE BLOOD",NA,NA,NA,NA,NA,NA,NA,NA,NA,NA,NA,NA,NA,NA,NA,30,"2011-01-09T07:45:26",NA,30,NA,NA,NA,NA,NA,NA
"PDS2014","LB","PDS2014-0005",NA,403,NA,NA,NA,"LGUNSCE","Large Unstained Cells","HEMATOLOGY",NA,"0.03","10^9/L",NA,NA,"0.03",0.03,"10^9/L",NA,NA,NA,NA,NA,NA,NA,"WHOLE BLOOD",NA,NA,NA,NA,NA,NA,NA,NA,NA,NA,NA,NA,NA,NA,NA,30,"2011-01-09T07:45:26",NA,30,NA,NA,NA,NA,NA,NA
"PDS2014","LB","PDS2014-0005",NA,404,NA,NA,NA,"BASO","Basophils","HEMATOLOGY",NA,"0.02","10^9/L",NA,NA,"0.02",0.02,"10^9/L",NA,NA,NA,NA,NA,NA,NA,"WHOLE BLOOD",NA,NA,NA,NA,NA,NA,NA,NA,NA,NA,NA,NA,NA,NA,NA,30,"2011-01-09T07:45:26",NA,30,NA,NA,NA,NA,NA,NA
"PDS2014","LB","PDS2014-0005",NA,405,NA,NA,NA,"NEUT","Neutrophils","HEMATOLOGY",NA,"1.43","10^9/L",NA,NA,"1.43",1.43,"10^9/L",NA,NA,NA,NA,NA,NA,NA,"WHOLE BLOOD",NA,NA,NA,NA,NA,NA,NA,NA,NA,NA,NA,NA,NA,NA,NA,30,"2011-01-09T07:45:26",NA,30,NA,NA,NA,NA,NA,NA
"PDS2014","LB","PDS2014-0005",NA,406,NA,NA,NA,"NEUTCE","Neutrophils/Total Cells","HEMATOLOGY",NA,"19","%",NA,NA,"19",19,"%",NA,NA,NA,NA,NA,NA,NA,"WHOLE BLOOD",NA,NA,NA,NA,NA,NA,NA,NA,NA,NA,NA,NA,NA,NA,NA,30,"2011-01-09T07:45:26",NA,30,NA,NA,NA,NA,NA,NA
"PDS2014","LB","PDS2014-0005",NA,407,NA,NA,NA,"RETI","Reticulocytes","HEMATOLOGY",NA,"158.7","10^9/L",NA,NA,"158.7",158.7,"10^9/L",NA,NA,NA,NA,NA,NA,NA,"WHOLE BLOOD",NA,NA,NA,NA,NA,NA,NA,NA,NA,NA,NA,NA,NA,NA,NA,30,"2011-01-09T07:45:26",NA,30,NA,NA,NA,NA,NA,NA
"PDS2014","LB","PDS2014-0005",NA,408,NA,NA,NA,"MCHC","Ery. Mean Corpuscular HGB Concentration","HEMATOLOGY",NA,"33","g/dL",NA,NA,"33",33,"g/dL",NA,NA,NA,NA,NA,NA,NA,"WHOLE BLOOD",NA,NA,NA,NA,NA,NA,NA,NA,NA,NA,NA,NA,NA,NA,NA,30,"2011-01-09T07:45:26",NA,30,NA,NA,NA,NA,NA,NA
"PDS2014","LB","PDS2014-0005",NA,409,NA,NA,NA,"ANISO","Anisocytes","HEMATOLOGY",NA,"0",NA,NA,NA,"0",0,NA,NA,NA,NA,NA,NA,NA,NA,"WHOLE BLOOD",NA,NA,NA,NA,NA,NA,NA,NA,NA,NA,NA,NA,NA,NA,NA,30,"2011-01-09T07:45:26",NA,30,NA,NA,NA,NA,NA,NA
"PDS2014","LB","PDS2014-0005",NA,410,NA,NA,NA,"MACROCY","Macrocytes","HEMATOLOGY",NA,"0",NA,NA,NA,"0",0,NA,NA,NA,NA,NA,NA,NA,NA,"WHOLE BLOOD",NA,NA,NA,NA,NA,NA,NA,NA,NA,NA,NA,NA,NA,NA,NA,30,"2011-01-09T07:45:26",NA,30,NA,NA,NA,NA,NA,NA
"PDS2014","LB","PDS2014-0005",NA,411,NA,NA,NA,"RBC","Erythrocytes","HEMATOLOGY",NA,"8.16","10^12/L",NA,NA,"8.16",8.16,"10^12/L",NA,NA,NA,NA,NA,NA,NA,"WHOLE BLOOD",NA,NA,NA,NA,NA,NA,NA,NA,NA,NA,NA,NA,NA,NA,NA,30,"2011-01-09T07:45:26",NA,30,NA,NA,NA,NA,NA,NA
"PDS2014","LB","PDS2014-0005",NA,412,NA,NA,NA,"MICROCY","Microcytes","HEMATOLOGY",NA,"0",NA,NA,NA,"0",0,NA,NA,NA,NA,NA,NA,NA,NA,"WHOLE BLOOD",NA,NA,NA,NA,NA,NA,NA,NA,NA,NA,NA,NA,NA,NA,NA,30,"2011-01-09T07:45:26",NA,30,NA,NA,NA,NA,NA,NA
"PDS2014","LB","PDS2014-0005",NA,413,NA,NA,NA,"LYM","Lymphocytes","HEMATOLOGY",NA,"5.86","10^9/L",NA,NA,"5.86",5.86,"10^9/L",NA,NA,NA,NA,NA,NA,NA,"WHOLE BLOOD",NA,NA,NA,NA,NA,NA,NA,NA,NA,NA,NA,NA,NA,NA,NA,30,"2011-01-09T07:45:26",NA,30,NA,NA,NA,NA,NA,NA
"PDS2014","LB","PDS2014-0005",NA,414,NA,NA,NA,"RDW","Erythrocytes Distribution Width","HEMATOLOGY",NA,"11.8","%",NA,NA,"11.8",11.8,"%",NA,NA,NA,NA,NA,NA,NA,"WHOLE BLOOD",NA,NA,NA,NA,NA,NA,NA,NA,NA,NA,NA,NA,NA,NA,NA,30,"2011-01-09T07:45:26",NA,30,NA,NA,NA,NA,NA,NA
"PDS2014","LB","PDS2014-0005",NA,415,NA,NA,NA,"EOSCE","Eosinophils/Total Cells","HEMATOLOGY",NA,"1.5","%",NA,NA,"1.5",1.5,"%",NA,NA,NA,NA,NA,NA,NA,"WHOLE BLOOD",NA,NA,NA,NA,NA,NA,NA,NA,NA,NA,NA,NA,NA,NA,NA,30,"2011-01-09T07:45:26",NA,30,NA,NA,NA,NA,NA,NA
"PDS2014","LB","PDS2014-0005",NA,416,NA,NA,NA,"RBCNUCLE","Nucleated Erythrocytes/Leukocytes","HEMATOLOGY",NA,"NE","%",NA,NA,"NE",NA,"%",NA,NA,NA,NA,NA,NA,NA,"WHOLE BLOOD",NA,NA,NA,NA,NA,NA,NA,NA,NA,NA,NA,NA,NA,NA,NA,30,"2011-01-09T07:45:26",NA,30,NA,NA,NA,NA,NA,NA
"PDS2014","LB","PDS2014-0005",NA,417,NA,NA,NA,"PLAT","Platelets","HEMATOLOGY",NA,"1132","10^9/L",NA,NA,"1132",1132,"10^9/L",NA,NA,NA,NA,NA,NA,NA,"WHOLE BLOOD",NA,NA,NA,NA,NA,NA,NA,NA,NA,NA,NA,NA,NA,NA,NA,30,"2011-01-09T07:45:26",NA,30,NA,NA,NA,NA,NA,NA
"PDS2014","LB","PDS2014-0005",NA,418,NA,NA,NA,"WBC","Leukocytes","HEMATOLOGY",NA,"7.54","10^9/L",NA,NA,"7.54",7.54,"10^9/L",NA,NA,NA,NA,NA,NA,NA,"WHOLE BLOOD",NA,NA,NA,NA,NA,NA,NA,NA,NA,NA,NA,NA,NA,NA,NA,30,"2011-01-09T07:45:26",NA,30,NA,NA,NA,NA,NA,NA
"PDS2014","LB","PDS2014-0005",NA,419,NA,NA,NA,"MONO","Monocytes","HEMATOLOGY",NA,"0.09","10^9/L",NA,NA,"0.09",0.09,"10^9/L",NA,NA,NA,NA,NA,NA,NA,"WHOLE BLOOD",NA,NA,NA,NA,NA,NA,NA,NA,NA,NA,NA,NA,NA,NA,NA,30,"2011-01-09T07:45:26",NA,30,NA,NA,NA,NA,NA,NA
"PDS2014","LB","PDS2014-0005",NA,420,NA,NA,NA,"HYPERCHR","Hyperchromia","HEMATOLOGY",NA,"0",NA,NA,NA,"0",0,NA,NA,NA,NA,NA,NA,NA,NA,"WHOLE BLOOD",NA,NA,NA,NA,NA,NA,NA,NA,NA,NA,NA,NA,NA,NA,NA,30,"2011-01-09T07:45:26",NA,30,NA,NA,NA,NA,NA,NA
"PDS2014","LB","PDS2014-0005",NA,421,NA,NA,NA,"MCH","Ery. Mean Corpuscular Hemoglobin","HEMATOLOGY",NA,"19.4","pg",NA,NA,"19.4",19.4,"pg",NA,NA,NA,NA,NA,NA,NA,"WHOLE BLOOD",NA,NA,NA,NA,NA,NA,NA,NA,NA,NA,NA,NA,NA,NA,NA,30,"2011-01-09T07:45:26",NA,30,NA,NA,NA,NA,NA,NA
"PDS2014","LB","PDS2014-0005",NA,422,NA,NA,NA,"HGB","Hemoglobin","HEMATOLOGY",NA,"15.8","g/dL",NA,NA,"15.8",15.8,"g/dL",NA,NA,NA,NA,NA,NA,NA,"WHOLE BLOOD",NA,NA,NA,NA,NA,NA,NA,NA,NA,NA,NA,NA,NA,NA,NA,30,"2011-01-09T07:45:26",NA,30,NA,NA,NA,NA,NA,NA
"PDS2014","LB","PDS2014-0005",NA,423,NA,NA,NA,"CYCHOL","Cholesterol Crystals","URINALYSIS",NA,"0",NA,NA,NA,"0",0,NA,NA,NA,NA,NA,NA,NA,NA,"URINE",NA,NA,NA,NA,NA,NA,NA,NA,NA,NA,NA,NA,NA,NA,NA,30,"2011-01-09T07:14:45",NA,30,NA,NA,NA,NA,NA,NA
"PDS2014","LB","PDS2014-0005",NA,424,NA,NA,NA,"AMORPHSD","Amorphous Sediment","URINALYSIS",NA,"0",NA,NA,NA,"0",0,NA,NA,NA,NA,NA,NA,NA,NA,"URINE",NA,NA,NA,NA,NA,NA,NA,NA,NA,NA,NA,NA,NA,NA,NA,30,"2011-01-09T07:14:45",NA,30,NA,NA,NA,NA,NA,NA
"PDS2014","LB","PDS2014-0005",NA,425,NA,NA,NA,"RBC","Erythrocytes","URINALYSIS",NA,"0",NA,NA,NA,"0",0,NA,NA,NA,NA,NA,NA,NA,NA,"URINE",NA,NA,NA,NA,NA,NA,NA,NA,NA,NA,NA,NA,NA,NA,NA,30,"2011-01-09T07:14:45",NA,30,NA,NA,NA,NA,NA,NA
"PDS2014","LB","PDS2014-0005",NA,426,NA,NA,NA,"YEAST","Yeast Cells","URINALYSIS",NA,"0",NA,NA,NA,"0",0,NA,NA,NA,NA,NA,NA,NA,NA,"URINE",NA,NA,NA,NA,NA,NA,NA,NA,NA,NA,NA,NA,NA,NA,NA,30,"2011-01-09T07:14:45",NA,30,NA,NA,NA,NA,NA,NA
"PDS2014","LB","PDS2014-0005",NA,427,NA,NA,NA,"CYCAOXA","Calcium Oxalate Crystals","URINALYSIS",NA,"0",NA,NA,NA,"0",0,NA,NA,NA,NA,NA,NA,NA,NA,"URINE",NA,NA,NA,NA,NA,NA,NA,NA,NA,NA,NA,NA,NA,NA,NA,30,"2011-01-09T07:14:45",NA,30,NA,NA,NA,NA,NA,NA
"PDS2014","LB","PDS2014-0005",NA,428,NA,NA,NA,"CYBILI","Bilirubin Crystals","URINALYSIS",NA,"0",NA,NA,NA,"0",0,NA,NA,NA,NA,NA,NA,NA,NA,"URINE",NA,NA,NA,NA,NA,NA,NA,NA,NA,NA,NA,NA,NA,NA,NA,30,"2011-01-09T07:14:45",NA,30,NA,NA,NA,NA,NA,NA
"PDS2014","LB","PDS2014-0005",NA,429,NA,NA,NA,"CYCACAR","Calcium Carbonate Crystals","URINALYSIS",NA,"0",NA,NA,NA,"0",0,NA,NA,NA,NA,NA,NA,NA,NA,"URINE",NA,NA,NA,NA,NA,NA,NA,NA,NA,NA,NA,NA,NA,NA,NA,30,"2011-01-09T07:14:45",NA,30,NA,NA,NA,NA,NA,NA
"PDS2014","LB","PDS2014-0005",NA,430,NA,NA,NA,"KETONES","Ketones","URINALYSIS",NA,"5","mg/dL",NA,NA,"5",5,"mg/dL",NA,NA,NA,NA,NA,NA,NA,"URINE",NA,NA,NA,NA,NA,NA,NA,NA,NA,NA,NA,NA,NA,NA,NA,30,"2011-01-09T07:14:45",NA,30,NA,NA,NA,NA,NA,NA
"PDS2014","LB","PDS2014-0005",NA,431,NA,NA,NA,"PH","pH","URINALYSIS",NA,"7",NA,NA,NA,"7",7,NA,NA,NA,NA,NA,NA,NA,NA,"URINE",NA,NA,NA,NA,NA,NA,NA,NA,NA,NA,NA,NA,NA,NA,NA,30,"2011-01-09T07:14:45",NA,30,NA,NA,NA,NA,NA,NA
"PDS2014","LB","PDS2014-0005",NA,432,NA,NA,NA,"GLOBUL","Globulin","URINALYSIS",NA,"1.65","g/dL",NA,NA,"1.65",1.65,"g/dL",NA,NA,NA,NA,NA,NA,NA,"URINE",NA,NA,NA,NA,NA,NA,NA,NA,NA,NA,NA,NA,NA,NA,NA,30,"2011-01-09T07:14:45",NA,30,NA,NA,NA,NA,NA,NA
"PDS2014","LB","PDS2014-0005",NA,433,NA,NA,NA,"CLARITY","Clarity","URINALYSIS",NA,"L.TRB",NA,NA,NA,"L.TRB",NA,NA,NA,NA,NA,NA,NA,NA,NA,"URINE",NA,NA,NA,NA,NA,NA,NA,NA,NA,NA,NA,NA,NA,NA,NA,30,"2011-01-09T07:14:45",NA,30,NA,NA,NA,NA,NA,NA
"PDS2014","LB","PDS2014-0005",NA,434,NA,NA,NA,"CSFAT","Fatty Casts","URINALYSIS",NA,"0",NA,NA,NA,"0",0,NA,NA,NA,NA,NA,NA,NA,NA,"URINE",NA,NA,NA,NA,NA,NA,NA,NA,NA,NA,NA,NA,NA,NA,NA,30,"2011-01-09T07:14:45",NA,30,NA,NA,NA,NA,NA,NA
"PDS2014","LB","PDS2014-0005",NA,435,NA,NA,NA,"CYCAPHOS","Calcium Phosphate Crystals","URINALYSIS",NA,"0",NA,NA,NA,"0",0,NA,NA,NA,NA,NA,NA,NA,NA,"URINE",NA,NA,NA,NA,NA,NA,NA,NA,NA,NA,NA,NA,NA,NA,NA,30,"2011-01-09T07:14:45",NA,30,NA,NA,NA,NA,NA,NA
"PDS2014","LB","PDS2014-0005",NA,436,NA,NA,NA,"OCCBLD","Occult Blood","URINALYSIS",NA,"10","/uL",NA,NA,"10",10,"/uL",NA,NA,NA,NA,NA,NA,NA,"URINE",NA,NA,NA,NA,NA,NA,NA,NA,NA,NA,NA,NA,NA,NA,NA,30,"2011-01-09T07:14:45",NA,30,NA,NA,NA,NA,NA,NA
"PDS2014","LB","PDS2014-0005",NA,437,NA,NA,NA,"EPIC","Epithelial Cells","URINALYSIS",NA,"0",NA,NA,NA,"0",0,NA,NA,NA,NA,NA,NA,NA,NA,"URINE",NA,NA,NA,NA,NA,NA,NA,NA,NA,NA,NA,NA,NA,NA,NA,30,"2011-01-09T07:14:45",NA,30,NA,NA,NA,NA,NA,NA
"PDS2014","LB","PDS2014-0005",NA,438,NA,NA,NA,"COLOR","Color","URINALYSIS",NA,"PALE",NA,NA,NA,"PALE",NA,NA,NA,NA,NA,NA,NA,NA,NA,"URINE",NA,NA,NA,NA,NA,NA,NA,NA,NA,NA,NA,NA,NA,NA,NA,30,"2011-01-09T07:14:45",NA,30,NA,NA,NA,NA,NA,NA
"PDS2014","LB","PDS2014-0005",NA,439,NA,NA,NA,"CSWBC","WBC Casts","URINALYSIS",NA,"0",NA,NA,NA,"0",0,NA,NA,NA,NA,NA,NA,NA,NA,"URINE",NA,NA,NA,NA,NA,NA,NA,NA,NA,NA,NA,NA,NA,NA,NA,30,"2011-01-09T07:14:45",NA,30,NA,NA,NA,NA,NA,NA
"PDS2014","LB","PDS2014-0005",NA,440,NA,NA,NA,"SPGRAV","Specific Gravity","URINALYSIS",NA,"1.019","RATIO",NA,NA,"1.019",1.019,"RATIO",NA,NA,NA,NA,NA,NA,NA,"URINE",NA,NA,NA,NA,NA,NA,NA,NA,NA,NA,NA,NA,NA,NA,NA,30,"2011-01-09T07:14:45",NA,30,NA,NA,NA,NA,NA,NA
"PDS2014","LB","PDS2014-0005",NA,441,NA,NA,NA,"FATDROP","Fat Droplet","URINALYSIS",NA,"0",NA,NA,NA,"0",0,NA,NA,NA,NA,NA,NA,NA,NA,"URINE",NA,NA,NA,NA,NA,NA,NA,NA,NA,NA,NA,NA,NA,NA,NA,30,"2011-01-09T07:14:45",NA,30,NA,NA,NA,NA,NA,NA
"PDS2014","LB","PDS2014-0005",NA,442,NA,NA,NA,"GLUC","Glucose","URINALYSIS",NA,"NORM",NA,NA,NA,"NORM",NA,NA,NA,NA,NA,NA,NA,NA,NA,"URINE",NA,NA,NA,NA,NA,NA,NA,NA,NA,NA,NA,NA,NA,NA,NA,30,"2011-01-09T07:14:45",NA,30,NA,NA,NA,NA,NA,NA
"PDS2014","LB","PDS2014-0005",NA,443,NA,NA,NA,"PROT","Protein","URINALYSIS",NA,"NEG",NA,NA,NA,"NEG",NA,NA,NA,NA,NA,NA,NA,NA,NA,"URINE",NA,NA,NA,NA,NA,NA,NA,NA,NA,NA,NA,NA,NA,NA,NA,30,"2011-01-09T07:14:45",NA,30,NA,NA,NA,NA,NA,NA
"PDS2014","LB","PDS2014-0005",NA,444,NA,NA,NA,"VOLUME","Volume","URINALYSIS",NA,"21.2","mL",NA,NA,"21.2",21.2,"mL",NA,NA,NA,NA,NA,NA,NA,"URINE",NA,NA,NA,NA,NA,NA,NA,NA,NA,NA,NA,NA,NA,NA,NA,30,"2011-01-09T07:14:45",NA,30,NA,NA,NA,NA,NA,NA
"PDS2014","LB","PDS2014-0005",NA,445,NA,NA,NA,"CYTYRO","Tyrosine Crystals","URINALYSIS",NA,"0",NA,NA,NA,"0",0,NA,NA,NA,NA,NA,NA,NA,NA,"URINE",NA,NA,NA,NA,NA,NA,NA,NA,NA,NA,NA,NA,NA,NA,NA,30,"2011-01-09T07:14:45",NA,30,NA,NA,NA,NA,NA,NA
"PDS2014","LB","PDS2014-0005",NA,446,NA,NA,NA,"EPISQCE","Squamous Epithelial Cells","URINALYSIS",NA,"1",NA,NA,NA,"1",1,NA,NA,NA,NA,NA,NA,NA,NA,"URINE",NA,NA,NA,NA,NA,NA,NA,NA,NA,NA,NA,NA,NA,NA,NA,30,"2011-01-09T07:14:45",NA,30,NA,NA,NA,NA,NA,NA
"PDS2014","LB","PDS2014-0005",NA,447,NA,NA,NA,"ALBGLOB","Albumin/Globulin","URINALYSIS",NA,"2.33","RATIO",NA,NA,"2.33",2.33,"RATIO",NA,NA,NA,NA,NA,NA,NA,"URINE",NA,NA,NA,NA,NA,NA,NA,NA,NA,NA,NA,NA,NA,NA,NA,30,"2011-01-09T07:14:45",NA,30,NA,NA,NA,NA,NA,NA
"PDS2014","LB","PDS2014-0005",NA,448,NA,NA,NA,"CSGRAN","Granular Casts","URINALYSIS",NA,"0",NA,NA,NA,"0",0,NA,NA,NA,NA,NA,NA,NA,NA,"URINE",NA,NA,NA,NA,NA,NA,NA,NA,NA,NA,NA,NA,NA,NA,NA,30,"2011-01-09T07:14:45",NA,30,NA,NA,NA,NA,NA,NA
"PDS2014","LB","PDS2014-0005",NA,449,NA,NA,NA,"CASULPH","Calcium Sulphate","URINALYSIS",NA,"0",NA,NA,NA,"0",0,NA,NA,NA,NA,NA,NA,NA,NA,"URINE",NA,NA,NA,NA,NA,NA,NA,NA,NA,NA,NA,NA,NA,NA,NA,30,"2011-01-09T07:14:45",NA,30,NA,NA,NA,NA,NA,NA
"PDS2014","LB","PDS2014-0005",NA,450,NA,NA,NA,"CYTRPHOS","Triple Phosphate Crystals","URINALYSIS",NA,"2",NA,NA,NA,"2",2,NA,NA,NA,NA,NA,NA,NA,NA,"URINE",NA,NA,NA,NA,NA,NA,NA,NA,NA,NA,NA,NA,NA,NA,NA,30,"2011-01-09T07:14:45",NA,30,NA,NA,NA,NA,NA,NA
"PDS2014","LB","PDS2014-0005",NA,451,NA,NA,NA,"CSHYAL","Hyaline Casts","URINALYSIS",NA,"0",NA,NA,NA,"0",0,NA,NA,NA,NA,NA,NA,NA,NA,"URINE",NA,NA,NA,NA,NA,NA,NA,NA,NA,NA,NA,NA,NA,NA,NA,30,"2011-01-09T07:14:45",NA,30,NA,NA,NA,NA,NA,NA
"PDS2014","LB","PDS2014-0005",NA,452,NA,NA,NA,"CYURIAC","Uric Acid Crystals","URINALYSIS",NA,"0",NA,NA,NA,"0",0,NA,NA,NA,NA,NA,NA,NA,NA,"URINE",NA,NA,NA,NA,NA,NA,NA,NA,NA,NA,NA,NA,NA,NA,NA,30,"2011-01-09T07:14:45",NA,30,NA,NA,NA,NA,NA,NA
"PDS2014","LB","PDS2014-0005",NA,453,NA,NA,NA,"CYSTARCH","Starch Crystals","URINALYSIS",NA,"0",NA,NA,NA,"0",0,NA,NA,NA,NA,NA,NA,NA,NA,"URINE",NA,NA,NA,NA,NA,NA,NA,NA,NA,NA,NA,NA,NA,NA,NA,30,"2011-01-09T07:14:45",NA,30,NA,NA,NA,NA,NA,NA
"PDS2014","LB","PDS2014-0005",NA,454,NA,NA,NA,"BACT","Bacteria","URINALYSIS",NA,"4",NA,NA,NA,"4",4,NA,NA,NA,NA,NA,NA,NA,NA,"URINE",NA,NA,NA,NA,NA,NA,NA,NA,NA,NA,NA,NA,NA,NA,NA,30,"2011-01-09T07:14:45",NA,30,NA,NA,NA,NA,NA,NA
"PDS2014","LB","PDS2014-0005",NA,455,NA,NA,NA,"SPERM","Spermatozoa","URINALYSIS",NA,"1",NA,NA,NA,"1",1,NA,NA,NA,NA,NA,NA,NA,NA,"URINE",NA,NA,NA,NA,NA,NA,NA,NA,NA,NA,NA,NA,NA,NA,NA,30,"2011-01-09T07:14:45",NA,30,NA,NA,NA,NA,NA,NA
"PDS2014","LB","PDS2014-0005",NA,456,NA,NA,NA,"CYCYSTIN","Cystine Crystals","URINALYSIS",NA,"0",NA,NA,NA,"0",0,NA,NA,NA,NA,NA,NA,NA,NA,"URINE",NA,NA,NA,NA,NA,NA,NA,NA,NA,NA,NA,NA,NA,NA,NA,30,"2011-01-09T07:14:45",NA,30,NA,NA,NA,NA,NA,NA
"PDS2014","LB","PDS2014-0005",NA,457,NA,NA,NA,"CSRBC","RBC Casts","URINALYSIS",NA,"0",NA,NA,NA,"0",0,NA,NA,NA,NA,NA,NA,NA,NA,"URINE",NA,NA,NA,NA,NA,NA,NA,NA,NA,NA,NA,NA,NA,NA,NA,30,"2011-01-09T07:14:45",NA,30,NA,NA,NA,NA,NA,NA
"PDS2014","LB","PDS2014-0005",NA,458,NA,NA,NA,"CSWAX","Waxy Casts","URINALYSIS",NA,"0",NA,NA,NA,"0",0,NA,NA,NA,NA,NA,NA,NA,NA,"URINE",NA,NA,NA,NA,NA,NA,NA,NA,NA,NA,NA,NA,NA,NA,NA,30,"2011-01-09T07:14:45",NA,30,NA,NA,NA,NA,NA,NA
"PDS2014","LB","PDS2014-0005",NA,459,NA,NA,NA,"WBC","Leukocytes","URINALYSIS",NA,"0",NA,NA,NA,"0",0,NA,NA,NA,NA,NA,NA,NA,NA,"URINE",NA,NA,NA,NA,NA,NA,NA,NA,NA,NA,NA,NA,NA,NA,NA,30,"2011-01-09T07:14:45",NA,30,NA,NA,NA,NA,NA,NA
"PDS2014","LB","PDS2014-0005",NA,460,NA,NA,NA,"CSEPI","Epithelial Casts","URINALYSIS",NA,"0",NA,NA,NA,"0",0,NA,NA,NA,NA,NA,NA,NA,NA,"URINE",NA,NA,NA,NA,NA,NA,NA,NA,NA,NA,NA,NA,NA,NA,NA,30,"2011-01-09T07:14:45",NA,30,NA,NA,NA,NA,NA,NA
"PDS2014","LB","PDS2014-0005",NA,461,NA,NA,NA,"EPITUCE","Tubular Epithelial Cells","URINALYSIS",NA,"0",NA,NA,NA,"0",0,NA,NA,NA,NA,NA,NA,NA,NA,"URINE",NA,NA,NA,NA,NA,NA,NA,NA,NA,NA,NA,NA,NA,NA,NA,30,"2011-01-09T07:14:45",NA,30,NA,NA,NA,NA,NA,NA
"PDS2014","LB","PDS2014-0005",NA,462,NA,NA,NA,"ALP","Alkaline Phosphatase","CLINICAL CHEMISTRY",NA,"112.3","U/L",NA,NA,"112.3",112.3,"U/L",NA,NA,NA,NA,NA,NA,NA,"SERUM",NA,NA,NA,NA,NA,NA,NA,NA,NA,NA,NA,NA,NA,NA,NA,30,"2011-01-09T07:45:43",NA,30,NA,NA,NA,NA,NA,NA
"PDS2014","LB","PDS2014-0005",NA,463,NA,NA,NA,"TRIG","Triglycerides","CLINICAL CHEMISTRY",NA,"28.9","mg/dL",NA,NA,"28.9",28.9,"mg/dL",NA,NA,NA,NA,NA,NA,NA,"SERUM",NA,NA,NA,NA,NA,NA,NA,NA,NA,NA,NA,NA,NA,NA,NA,30,"2011-01-09T07:45:43",NA,30,NA,NA,NA,NA,NA,NA
"PDS2014","LB","PDS2014-0005",NA,464,NA,NA,NA,"PHOS","Phosphate","CLINICAL CHEMISTRY",NA,"7.86","mg/dL",NA,NA,"7.86",7.86,"mg/dL",NA,NA,NA,NA,NA,NA,NA,"SERUM",NA,NA,NA,NA,NA,NA,NA,NA,NA,NA,NA,NA,NA,NA,NA,30,"2011-01-09T07:45:43",NA,30,NA,NA,NA,NA,NA,NA
"PDS2014","LB","PDS2014-0005",NA,465,NA,NA,NA,"CL","Chloride","CLINICAL CHEMISTRY",NA,"98.9","mmol/L",NA,NA,"98.9",98.9,"mmol/L",NA,NA,NA,NA,NA,NA,NA,"SERUM",NA,NA,NA,NA,NA,NA,NA,NA,NA,NA,NA,NA,NA,NA,NA,30,"2011-01-09T07:45:43",NA,30,NA,NA,NA,NA,NA,NA
"PDS2014","LB","PDS2014-0005",NA,466,NA,NA,NA,"BILI","Bilirubin","CLINICAL CHEMISTRY",NA,"0.107","mg/dL",NA,NA,"0.107",0.107,"mg/dL",NA,NA,NA,NA,NA,NA,NA,"SERUM",NA,NA,NA,NA,NA,NA,NA,NA,NA,NA,NA,NA,NA,NA,NA,30,"2011-01-09T07:45:43",NA,30,NA,NA,NA,NA,NA,NA
"PDS2014","LB","PDS2014-0005",NA,467,NA,NA,NA,"SODIUM","Sodium","CLINICAL CHEMISTRY",NA,"145","mmol/L",NA,NA,"145",145,"mmol/L",NA,NA,NA,NA,NA,NA,NA,"SERUM",NA,NA,NA,NA,NA,NA,NA,NA,NA,NA,NA,NA,NA,NA,NA,30,"2011-01-09T07:45:43",NA,30,NA,NA,NA,NA,NA,NA
"PDS2014","LB","PDS2014-0005",NA,468,NA,NA,NA,"CREAT","Creatinine","CLINICAL CHEMISTRY",NA,"0.23","mg/dL",NA,NA,"0.23",0.23,"mg/dL",NA,NA,NA,NA,NA,NA,NA,"SERUM",NA,NA,NA,NA,NA,NA,NA,NA,NA,NA,NA,NA,NA,NA,NA,30,"2011-01-09T07:45:43",NA,30,NA,NA,NA,NA,NA,NA
"PDS2014","LB","PDS2014-0005",NA,469,NA,NA,NA,"ALB","Albumin","CLINICAL CHEMISTRY",NA,"3.85","g/dL",NA,NA,"3.85",3.85,"g/dL",NA,NA,NA,NA,NA,NA,NA,"SERUM",NA,NA,NA,NA,NA,NA,NA,NA,NA,NA,NA,NA,NA,NA,NA,30,"2011-01-09T07:45:43",NA,30,NA,NA,NA,NA,NA,NA
"PDS2014","LB","PDS2014-0005",NA,470,NA,NA,NA,"AST","Aspartate Aminotransferase","CLINICAL CHEMISTRY",NA,"131.5","U/L",NA,NA,"131.5",131.5,"U/L",NA,NA,NA,NA,NA,NA,NA,"SERUM",NA,NA,NA,NA,NA,NA,NA,NA,NA,NA,NA,NA,NA,NA,NA,30,"2011-01-09T07:45:43",NA,30,NA,NA,NA,NA,NA,NA
"PDS2014","LB","PDS2014-0005",NA,471,NA,NA,NA,"K","Potassium","CLINICAL CHEMISTRY",NA,"5.38","mmol/L",NA,NA,"5.38",5.38,"mmol/L",NA,NA,NA,NA,NA,NA,NA,"SERUM",NA,NA,NA,NA,NA,NA,NA,NA,NA,NA,NA,NA,NA,NA,NA,30,"2011-01-09T07:45:43",NA,30,NA,NA,NA,NA,NA,NA
"PDS2014","LB","PDS2014-0005",NA,472,NA,NA,NA,"ALBGLOB","Albumin/Globulin","CLINICAL CHEMISTRY",NA,"2.33","RATIO",NA,NA,"2.33",2.33,"RATIO",NA,NA,NA,NA,NA,NA,NA,"SERUM",NA,NA,NA,NA,NA,NA,NA,NA,NA,NA,NA,NA,NA,NA,NA,30,"2011-01-09T07:45:43",NA,30,NA,NA,NA,NA,NA,NA
"PDS2014","LB","PDS2014-0005",NA,473,NA,NA,NA,"GLUC","Glucose","CLINICAL CHEMISTRY",NA,"96","mg/dL",NA,NA,"96",96,"mg/dL",NA,NA,NA,NA,NA,NA,NA,"SERUM",NA,NA,NA,NA,NA,NA,NA,NA,NA,NA,NA,NA,NA,NA,NA,30,"2011-01-09T07:45:43",NA,30,NA,NA,NA,NA,NA,NA
"PDS2014","LB","PDS2014-0005",NA,474,NA,NA,NA,"BUN","Blood Urea Nitrogen","CLINICAL CHEMISTRY",NA,"11.1","mg/dL",NA,NA,"11.1",11.1,"mg/dL",NA,NA,NA,NA,NA,NA,NA,"SERUM",NA,NA,NA,NA,NA,NA,NA,NA,NA,NA,NA,NA,NA,NA,NA,30,"2011-01-09T07:45:43",NA,30,NA,NA,NA,NA,NA,NA
"PDS2014","LB","PDS2014-0005",NA,475,NA,NA,NA,"PROT","Protein","CLINICAL CHEMISTRY",NA,"5.5","g/dL",NA,NA,"5.5",5.5,"g/dL",NA,NA,NA,NA,NA,NA,NA,"SERUM",NA,NA,NA,NA,NA,NA,NA,NA,NA,NA,NA,NA,NA,NA,NA,30,"2011-01-09T07:45:43",NA,30,NA,NA,NA,NA,NA,NA
"PDS2014","LB","PDS2014-0005",NA,476,NA,NA,NA,"GLOBUL","Globulin","CLINICAL CHEMISTRY",NA,"1.65","g/dL",NA,NA,"1.65",1.65,"g/dL",NA,NA,NA,NA,NA,NA,NA,"SERUM",NA,NA,NA,NA,NA,NA,NA,NA,NA,NA,NA,NA,NA,NA,NA,30,"2011-01-09T07:45:43",NA,30,NA,NA,NA,NA,NA,NA
"PDS2014","LB","PDS2014-0005",NA,477,NA,NA,NA,"CHOL","Cholesterol","CLINICAL CHEMISTRY",NA,"54","mg/dL",NA,NA,"54",54,"mg/dL",NA,NA,NA,NA,NA,NA,NA,"SERUM",NA,NA,NA,NA,NA,NA,NA,NA,NA,NA,NA,NA,NA,NA,NA,30,"2011-01-09T07:45:43",NA,30,NA,NA,NA,NA,NA,NA
"PDS2014","LB","PDS2014-0005",NA,478,NA,NA,NA,"CA","Calcium","CLINICAL CHEMISTRY",NA,"10.08","mg/dL",NA,NA,"10.08",10.08,"mg/dL",NA,NA,NA,NA,NA,NA,NA,"SERUM",NA,NA,NA,NA,NA,NA,NA,NA,NA,NA,NA,NA,NA,NA,NA,30,"2011-01-09T07:45:43",NA,30,NA,NA,NA,NA,NA,NA
"PDS2014","LB","PDS2014-0005",NA,479,NA,NA,NA,"GGT","Gamma Glutamyl Transferase","CLINICAL CHEMISTRY",NA,"LO","U/L",NA,NA,"LO",NA,"U/L",NA,NA,NA,NA,NA,NA,NA,"SERUM",NA,NA,NA,NA,NA,NA,NA,NA,NA,NA,NA,NA,NA,NA,NA,30,"2011-01-09T07:45:43",NA,30,NA,NA,NA,NA,NA,NA
"PDS2014","LB","PDS2014-0005",NA,480,NA,NA,NA,"ALT","Alanine Aminotransferase","CLINICAL CHEMISTRY",NA,"28","U/L",NA,NA,"28",28,"U/L",NA,NA,NA,NA,NA,NA,NA,"SERUM",NA,NA,NA,NA,NA,NA,NA,NA,NA,NA,NA,NA,NA,NA,NA,30,"2011-01-09T07:45:43",NA,30,NA,NA,NA,NA,NA,NA
"PDS2014","LB","PDS2014-0005",NA,481,NA,NA,NA,"APTT","Activated Partial Thromboplastin Time","COAGULATION",NA,"15.5","sec",NA,NA,"15.5",15.5,"sec",NA,NA,NA,NA,NA,NA,NA,"PLASMA",NA,NA,NA,NA,NA,NA,NA,NA,NA,NA,NA,NA,NA,NA,NA,30,"2011-01-09T07:45:41",NA,30,NA,NA,NA,NA,NA,NA
"PDS2014","LB","PDS2014-0005",NA,482,NA,NA,NA,"PT","Prothrombin Time","COAGULATION",NA,"12.6","sec",NA,NA,"12.6",12.6,"sec",NA,NA,NA,NA,NA,NA,NA,"PLASMA",NA,NA,NA,NA,NA,NA,NA,NA,NA,NA,NA,NA,NA,NA,NA,30,"2011-01-09T07:45:41",NA,30,NA,NA,NA,NA,NA,NA
"PDS2014","LB","PDS2014-0005",NA,483,NA,NA,NA,"GLOBUL","Globulin","COAGULATION",NA,"1.65","g/dL",NA,NA,"1.65",1.65,"g/dL",NA,NA,NA,NA,NA,NA,NA,"PLASMA",NA,NA,NA,NA,NA,NA,NA,NA,NA,NA,NA,NA,NA,NA,NA,30,"2011-01-09T07:45:41",NA,30,NA,NA,NA,NA,NA,NA
"PDS2014","LB","PDS2014-0005",NA,484,NA,NA,NA,"ALBGLOB","Albumin/Globulin","COAGULATION",NA,"2.33","RATIO",NA,NA,"2.33",2.33,"RATIO",NA,NA,NA,NA,NA,NA,NA,"PLASMA",NA,NA,NA,NA,NA,NA,NA,NA,NA,NA,NA,NA,NA,NA,NA,30,"2011-01-09T07:45:41",NA,30,NA,NA,NA,NA,NA,NA
"PDS2014","LB","PDS2014-0005",NA,485,NA,NA,NA,"FIBRINO","Fibrinogen","COAGULATION",NA,"148","mg/dL",NA,NA,"148",148,"mg/dL",NA,NA,NA,NA,NA,NA,NA,"PLASMA",NA,NA,NA,NA,NA,NA,NA,NA,NA,NA,NA,NA,NA,NA,NA,30,"2011-01-09T07:45:41",NA,30,NA,NA,NA,NA,NA,NA
"PDS2014","LB","PDS2014-0006",NA,486,NA,NA,NA,"FATACFR","Free Fatty Acid","CLINICAL CHEMISTRY",NA,"0.56","mmol/L",NA,NA,"0.56",0.56,"mmol/L",NA,NA,NA,NA,NA,NA,NA,"SERUM",NA,NA,NA,NA,NA,NA,NA,NA,NA,NA,NA,NA,NA,NA,NA,31,"2011-01-10T10:06:42",NA,31,NA,NA,NA,NA,NA,NA
"PDS2014","LB","PDS2014-0006",NA,487,NA,NA,NA,"MICROCY","Microcytes","HEMATOLOGY",NA,"0",NA,NA,NA,"0",0,NA,NA,NA,NA,NA,NA,NA,NA,"WHOLE BLOOD",NA,NA,NA,NA,NA,NA,NA,NA,NA,NA,NA,NA,NA,NA,NA,31,"2011-01-10T07:59:11",NA,31,NA,NA,NA,NA,NA,NA
"PDS2014","LB","PDS2014-0006",NA,488,NA,NA,NA,"ANISO","Anisocytes","HEMATOLOGY",NA,"0",NA,NA,NA,"0",0,NA,NA,NA,NA,NA,NA,NA,NA,"WHOLE BLOOD",NA,NA,NA,NA,NA,NA,NA,NA,NA,NA,NA,NA,NA,NA,NA,31,"2011-01-10T07:59:11",NA,31,NA,NA,NA,NA,NA,NA
"PDS2014","LB","PDS2014-0006",NA,489,NA,NA,NA,"MONOCE","Monocytes/Total Cells","HEMATOLOGY",NA,"2.9","%",NA,NA,"2.9",2.9,"%",NA,NA,NA,NA,NA,NA,NA,"WHOLE BLOOD",NA,NA,NA,NA,NA,NA,NA,NA,NA,NA,NA,NA,NA,NA,NA,31,"2011-01-10T07:59:11",NA,31,NA,NA,NA,NA,NA,NA
"PDS2014","LB","PDS2014-0006",NA,490,NA,NA,NA,"MCHC","Ery. Mean Corpuscular HGB Concentration","HEMATOLOGY",NA,"32.8","g/dL",NA,NA,"32.8",32.8,"g/dL",NA,NA,NA,NA,NA,NA,NA,"WHOLE BLOOD",NA,NA,NA,NA,NA,NA,NA,NA,NA,NA,NA,NA,NA,NA,NA,31,"2011-01-10T07:59:11",NA,31,NA,NA,NA,NA,NA,NA
"PDS2014","LB","PDS2014-0006",NA,491,NA,NA,NA,"RETI","Reticulocytes","HEMATOLOGY",NA,"172.8","10^9/L",NA,NA,"172.8",172.8,"10^9/L",NA,NA,NA,NA,NA,NA,NA,"WHOLE BLOOD",NA,NA,NA,NA,NA,NA,NA,NA,NA,NA,NA,NA,NA,NA,NA,31,"2011-01-10T07:59:11",NA,31,NA,NA,NA,NA,NA,NA
"PDS2014","LB","PDS2014-0006",NA,492,NA,NA,NA,"HCT","Hematocrit","HEMATOLOGY",NA,"46","%",NA,NA,"46",46,"%",NA,NA,NA,NA,NA,NA,NA,"WHOLE BLOOD",NA,NA,NA,NA,NA,NA,NA,NA,NA,NA,NA,NA,NA,NA,NA,31,"2011-01-10T07:59:11",NA,31,NA,NA,NA,NA,NA,NA
"PDS2014","LB","PDS2014-0006",NA,493,NA,NA,NA,"PLATLRG","Large Platelets","HEMATOLOGY",NA,"0",NA,NA,NA,"0",0,NA,NA,NA,NA,NA,NA,NA,NA,"WHOLE BLOOD",NA,NA,NA,NA,NA,NA,NA,NA,NA,NA,NA,NA,NA,NA,NA,31,"2011-01-10T07:59:11",NA,31,NA,NA,NA,NA,NA,NA
"PDS2014","LB","PDS2014-0006",NA,494,NA,NA,NA,"MCH","Ery. Mean Corpuscular Hemoglobin","HEMATOLOGY",NA,"18.3","pg",NA,NA,"18.3",18.3,"pg",NA,NA,NA,NA,NA,NA,NA,"WHOLE BLOOD",NA,NA,NA,NA,NA,NA,NA,NA,NA,NA,NA,NA,NA,NA,NA,31,"2011-01-10T07:59:11",NA,31,NA,NA,NA,NA,NA,NA
"PDS2014","LB","PDS2014-0006",NA,495,NA,NA,NA,"EOS","Eosinophils","HEMATOLOGY",NA,"0.06","10^9/L",NA,NA,"0.06",0.06,"10^9/L",NA,NA,NA,NA,NA,NA,NA,"WHOLE BLOOD",NA,NA,NA,NA,NA,NA,NA,NA,NA,NA,NA,NA,NA,NA,NA,31,"2011-01-10T07:59:11",NA,31,NA,NA,NA,NA,NA,NA
"PDS2014","LB","PDS2014-0006",NA,496,NA,NA,NA,"BASO","Basophils","HEMATOLOGY",NA,"0.05","10^9/L",NA,NA,"0.05",0.05,"10^9/L",NA,NA,NA,NA,NA,NA,NA,"WHOLE BLOOD",NA,NA,NA,NA,NA,NA,NA,NA,NA,NA,NA,NA,NA,NA,NA,31,"2011-01-10T07:59:11",NA,31,NA,NA,NA,NA,NA,NA
"PDS2014","LB","PDS2014-0006",NA,497,NA,NA,NA,"LYMCE","Lymphocytes/Total Cells","HEMATOLOGY",NA,"82.2","%",NA,NA,"82.2",82.2,"%",NA,NA,NA,NA,NA,NA,NA,"WHOLE BLOOD",NA,NA,NA,NA,NA,NA,NA,NA,NA,NA,NA,NA,NA,NA,NA,31,"2011-01-10T07:59:11",NA,31,NA,NA,NA,NA,NA,NA
"PDS2014","LB","PDS2014-0006",NA,498,NA,NA,NA,"MONO","Monocytes","HEMATOLOGY",NA,"0.22","10^9/L",NA,NA,"0.22",0.22,"10^9/L",NA,NA,NA,NA,NA,NA,NA,"WHOLE BLOOD",NA,NA,NA,NA,NA,NA,NA,NA,NA,NA,NA,NA,NA,NA,NA,31,"2011-01-10T07:59:11",NA,31,NA,NA,NA,NA,NA,NA
"PDS2014","LB","PDS2014-0006",NA,499,NA,NA,NA,"RDW","Erythrocytes Distribution Width","HEMATOLOGY",NA,"10.8","%",NA,NA,"10.8",10.8,"%",NA,NA,NA,NA,NA,NA,NA,"WHOLE BLOOD",NA,NA,NA,NA,NA,NA,NA,NA,NA,NA,NA,NA,NA,NA,NA,31,"2011-01-10T07:59:11",NA,31,NA,NA,NA,NA,NA,NA
"PDS2014","LB","PDS2014-0006",NA,500,NA,NA,NA,"BASOCE","Basophils/Total Cells","HEMATOLOGY",NA,"0.7","%",NA,NA,"0.7",0.7,"%",NA,NA,NA,NA,NA,NA,NA,"WHOLE BLOOD",NA,NA,NA,NA,NA,NA,NA,NA,NA,NA,NA,NA,NA,NA,NA,31,"2011-01-10T07:59:11",NA,31,NA,NA,NA,NA,NA,NA
"PDS2014","LB","PDS2014-0006",NA,501,NA,NA,NA,"HYPERCHR","Hyperchromia","HEMATOLOGY",NA,"0",NA,NA,NA,"0",0,NA,NA,NA,NA,NA,NA,NA,NA,"WHOLE BLOOD",NA,NA,NA,NA,NA,NA,NA,NA,NA,NA,NA,NA,NA,NA,NA,31,"2011-01-10T07:59:11",NA,31,NA,NA,NA,NA,NA,NA
"PDS2014","LB","PDS2014-0006",NA,502,NA,NA,NA,"EOSCE","Eosinophils/Total Cells","HEMATOLOGY",NA,"0.8","%",NA,NA,"0.8",0.8,"%",NA,NA,NA,NA,NA,NA,NA,"WHOLE BLOOD",NA,NA,NA,NA,NA,NA,NA,NA,NA,NA,NA,NA,NA,NA,NA,31,"2011-01-10T07:59:11",NA,31,NA,NA,NA,NA,NA,NA
"PDS2014","LB","PDS2014-0006",NA,503,NA,NA,NA,"PLATCLMP","Platelet Clumps","HEMATOLOGY",NA,"0",NA,NA,NA,"0",0,NA,NA,NA,NA,NA,NA,NA,NA,"WHOLE BLOOD",NA,NA,NA,NA,NA,NA,NA,NA,NA,NA,NA,NA,NA,NA,NA,31,"2011-01-10T07:59:11",NA,31,NA,NA,NA,NA,NA,NA
"PDS2014","LB","PDS2014-0006",NA,504,NA,NA,NA,"WBC","Leukocytes","HEMATOLOGY",NA,"7.58","10^9/L",NA,NA,"7.58",7.58,"10^9/L",NA,NA,NA,NA,NA,NA,NA,"WHOLE BLOOD",NA,NA,NA,NA,NA,NA,NA,NA,NA,NA,NA,NA,NA,NA,NA,31,"2011-01-10T07:59:11",NA,31,NA,NA,NA,NA,NA,NA
"PDS2014","LB","PDS2014-0006",NA,505,NA,NA,NA,"LYM","Lymphocytes","HEMATOLOGY",NA,"6.23","10^9/L",NA,NA,"6.23",6.23,"10^9/L",NA,NA,NA,NA,NA,NA,NA,"WHOLE BLOOD",NA,NA,NA,NA,NA,NA,NA,NA,NA,NA,NA,NA,NA,NA,NA,31,"2011-01-10T07:59:11",NA,31,NA,NA,NA,NA,NA,NA
"PDS2014","LB","PDS2014-0006",NA,506,NA,NA,NA,"LGUNSCE","Large Unstained Cells","HEMATOLOGY",NA,"0.03","10^9/L",NA,NA,"0.03",0.03,"10^9/L",NA,NA,NA,NA,NA,NA,NA,"WHOLE BLOOD",NA,NA,NA,NA,NA,NA,NA,NA,NA,NA,NA,NA,NA,NA,NA,31,"2011-01-10T07:59:11",NA,31,NA,NA,NA,NA,NA,NA
"PDS2014","LB","PDS2014-0006",NA,507,NA,NA,NA,"GLOBUL","Globulin","HEMATOLOGY",NA,"1.88","g/dL",NA,NA,"1.88",1.88,"g/dL",NA,NA,NA,NA,NA,NA,NA,"WHOLE BLOOD",NA,NA,NA,NA,NA,NA,NA,NA,NA,NA,NA,NA,NA,NA,NA,31,"2011-01-10T07:59:11",NA,31,NA,NA,NA,NA,NA,NA
"PDS2014","LB","PDS2014-0006",NA,508,NA,NA,NA,"PLAT","Platelets","HEMATOLOGY",NA,"1070","10^9/L",NA,NA,"1070",1070,"10^9/L",NA,NA,NA,NA,NA,NA,NA,"WHOLE BLOOD",NA,NA,NA,NA,NA,NA,NA,NA,NA,NA,NA,NA,NA,NA,NA,31,"2011-01-10T07:59:11",NA,31,NA,NA,NA,NA,NA,NA
"PDS2014","LB","PDS2014-0006",NA,509,NA,NA,NA,"NEUT","Neutrophils","HEMATOLOGY",NA,"0.98","10^9/L",NA,NA,"0.98",0.98,"10^9/L",NA,NA,NA,NA,NA,NA,NA,"WHOLE BLOOD",NA,NA,NA,NA,NA,NA,NA,NA,NA,NA,NA,NA,NA,NA,NA,31,"2011-01-10T07:59:11",NA,31,NA,NA,NA,NA,NA,NA
"PDS2014","LB","PDS2014-0006",NA,510,NA,NA,NA,"MACROCY","Macrocytes","HEMATOLOGY",NA,"0",NA,NA,NA,"0",0,NA,NA,NA,NA,NA,NA,NA,NA,"WHOLE BLOOD",NA,NA,NA,NA,NA,NA,NA,NA,NA,NA,NA,NA,NA,NA,NA,31,"2011-01-10T07:59:11",NA,31,NA,NA,NA,NA,NA,NA
"PDS2014","LB","PDS2014-0006",NA,511,NA,NA,NA,"RETIRBC","Reticulocytes/Erythrocytes","HEMATOLOGY",NA,"2.1","%",NA,NA,"2.1",2.1,"%",NA,NA,NA,NA,NA,NA,NA,"WHOLE BLOOD",NA,NA,NA,NA,NA,NA,NA,NA,NA,NA,NA,NA,NA,NA,NA,31,"2011-01-10T07:59:11",NA,31,NA,NA,NA,NA,NA,NA
"PDS2014","LB","PDS2014-0006",NA,512,NA,NA,NA,"RBCNUCLE","Nucleated Erythrocytes/Leukocytes","HEMATOLOGY",NA,"NE","%",NA,NA,"NE",NA,"%",NA,NA,NA,NA,NA,NA,NA,"WHOLE BLOOD",NA,NA,NA,NA,NA,NA,NA,NA,NA,NA,NA,NA,NA,NA,NA,31,"2011-01-10T07:59:11",NA,31,NA,NA,NA,NA,NA,NA
"PDS2014","LB","PDS2014-0006",NA,513,NA,NA,NA,"RBC","Erythrocytes","HEMATOLOGY",NA,"8.41","10^12/L",NA,NA,"8.41",8.41,"10^12/L",NA,NA,NA,NA,NA,NA,NA,"WHOLE BLOOD",NA,NA,NA,NA,NA,NA,NA,NA,NA,NA,NA,NA,NA,NA,NA,31,"2011-01-10T07:59:11",NA,31,NA,NA,NA,NA,NA,NA
"PDS2014","LB","PDS2014-0006",NA,514,NA,NA,NA,"NEUTCE","Neutrophils/Total Cells","HEMATOLOGY",NA,"12.9","%",NA,NA,"12.9",12.9,"%",NA,NA,NA,NA,NA,NA,NA,"WHOLE BLOOD",NA,NA,NA,NA,NA,NA,NA,NA,NA,NA,NA,NA,NA,NA,NA,31,"2011-01-10T07:59:11",NA,31,NA,NA,NA,NA,NA,NA
"PDS2014","LB","PDS2014-0006",NA,515,NA,NA,NA,"MCV","Ery. Mean Corpuscular Volume","HEMATOLOGY",NA,"54.7","fL",NA,NA,"54.7",54.7,"fL",NA,NA,NA,NA,NA,NA,NA,"WHOLE BLOOD",NA,NA,NA,NA,NA,NA,NA,NA,NA,NA,NA,NA,NA,NA,NA,31,"2011-01-10T07:59:11",NA,31,NA,NA,NA,NA,NA,NA
"PDS2014","LB","PDS2014-0006",NA,516,NA,NA,NA,"HGB","Hemoglobin","HEMATOLOGY",NA,"15.3","g/dL",NA,NA,"15.3",15.3,"g/dL",NA,NA,NA,NA,NA,NA,NA,"WHOLE BLOOD",NA,NA,NA,NA,NA,NA,NA,NA,NA,NA,NA,NA,NA,NA,NA,31,"2011-01-10T07:59:11",NA,31,NA,NA,NA,NA,NA,NA
"PDS2014","LB","PDS2014-0006",NA,517,NA,NA,NA,"HPOCROM","Hypochromia","HEMATOLOGY",NA,"0",NA,NA,NA,"0",0,NA,NA,NA,NA,NA,NA,NA,NA,"WHOLE BLOOD",NA,NA,NA,NA,NA,NA,NA,NA,NA,NA,NA,NA,NA,NA,NA,31,"2011-01-10T07:59:11",NA,31,NA,NA,NA,NA,NA,NA
"PDS2014","LB","PDS2014-0006",NA,518,NA,NA,NA,"ALBGLOB","Albumin/Globulin","HEMATOLOGY",NA,"1.95","RATIO",NA,NA,"1.95",1.95,"RATIO",NA,NA,NA,NA,NA,NA,NA,"WHOLE BLOOD",NA,NA,NA,NA,NA,NA,NA,NA,NA,NA,NA,NA,NA,NA,NA,31,"2011-01-10T07:59:11",NA,31,NA,NA,NA,NA,NA,NA
"PDS2014","LB","PDS2014-0006",NA,519,NA,NA,NA,"LGLUCLE","Large Unstained Cells/Leukocytes","HEMATOLOGY",NA,"0.5","%",NA,NA,"0.5",0.5,"%",NA,NA,NA,NA,NA,NA,NA,"WHOLE BLOOD",NA,NA,NA,NA,NA,NA,NA,NA,NA,NA,NA,NA,NA,NA,NA,31,"2011-01-10T07:59:11",NA,31,NA,NA,NA,NA,NA,NA
"PDS2014","LB","PDS2014-0006",NA,520,NA,NA,NA,"CSGRAN","Granular Casts","URINALYSIS",NA,"IS",NA,NA,NA,"IS",NA,NA,NA,NA,NA,NA,NA,NA,NA,"URINE",NA,NA,NA,NA,NA,NA,NA,NA,NA,NA,NA,NA,NA,NA,NA,31,"2011-01-10T07:48:47",NA,31,NA,NA,NA,NA,NA,NA
"PDS2014","LB","PDS2014-0006",NA,521,NA,NA,NA,"CSFAT","Fatty Casts","URINALYSIS",NA,"IS",NA,NA,NA,"IS",NA,NA,NA,NA,NA,NA,NA,NA,NA,"URINE",NA,NA,NA,NA,NA,NA,NA,NA,NA,NA,NA,NA,NA,NA,NA,31,"2011-01-10T07:48:47",NA,31,NA,NA,NA,NA,NA,NA
"PDS2014","LB","PDS2014-0006",NA,522,NA,NA,NA,"CSWAX","Waxy Casts","URINALYSIS",NA,"IS",NA,NA,NA,"IS",NA,NA,NA,NA,NA,NA,NA,NA,NA,"URINE",NA,NA,NA,NA,NA,NA,NA,NA,NA,NA,NA,NA,NA,NA,NA,31,"2011-01-10T07:48:47",NA,31,NA,NA,NA,NA,NA,NA
"PDS2014","LB","PDS2014-0006",NA,523,NA,NA,NA,"FATDROP","Fat Droplet","URINALYSIS",NA,"IS",NA,NA,NA,"IS",NA,NA,NA,NA,NA,NA,NA,NA,NA,"URINE",NA,NA,NA,NA,NA,NA,NA,NA,NA,NA,NA,NA,NA,NA,NA,31,"2011-01-10T07:48:47",NA,31,NA,NA,NA,NA,NA,NA
"PDS2014","LB","PDS2014-0006",NA,524,NA,NA,NA,"CSWBC","WBC Casts","URINALYSIS",NA,"IS",NA,NA,NA,"IS",NA,NA,NA,NA,NA,NA,NA,NA,NA,"URINE",NA,NA,NA,NA,NA,NA,NA,NA,NA,NA,NA,NA,NA,NA,NA,31,"2011-01-10T07:48:47",NA,31,NA,NA,NA,NA,NA,NA
"PDS2014","LB","PDS2014-0006",NA,525,NA,NA,NA,"CSEPI","Epithelial Casts","URINALYSIS",NA,"IS",NA,NA,NA,"IS",NA,NA,NA,NA,NA,NA,NA,NA,NA,"URINE",NA,NA,NA,NA,NA,NA,NA,NA,NA,NA,NA,NA,NA,NA,NA,31,"2011-01-10T07:48:47",NA,31,NA,NA,NA,NA,NA,NA
"PDS2014","LB","PDS2014-0006",NA,526,NA,NA,NA,"VOLUME","Volume","URINALYSIS",NA,"4.7","mL",NA,NA,"4.7",4.7,"mL",NA,NA,NA,NA,NA,NA,NA,"URINE",NA,NA,NA,NA,NA,NA,NA,NA,NA,NA,NA,NA,NA,NA,NA,31,"2011-01-10T07:48:47",NA,31,NA,NA,NA,NA,NA,NA
"PDS2014","LB","PDS2014-0006",NA,527,NA,NA,NA,"CSHYAL","Hyaline Casts","URINALYSIS",NA,"IS",NA,NA,NA,"IS",NA,NA,NA,NA,NA,NA,NA,NA,NA,"URINE",NA,NA,NA,NA,NA,NA,NA,NA,NA,NA,NA,NA,NA,NA,NA,31,"2011-01-10T07:48:47",NA,31,NA,NA,NA,NA,NA,NA
"PDS2014","LB","PDS2014-0006",NA,528,NA,NA,NA,"COLOR","Color","URINALYSIS",NA,"YELLO",NA,NA,NA,"YELLO",NA,NA,NA,NA,NA,NA,NA,NA,NA,"URINE",NA,NA,NA,NA,NA,NA,NA,NA,NA,NA,NA,NA,NA,NA,NA,31,"2011-01-10T07:48:47",NA,31,NA,NA,NA,NA,NA,NA
"PDS2014","LB","PDS2014-0006",NA,529,NA,NA,NA,"PROT","Protein","URINALYSIS",NA,"75","mg/dL",NA,NA,"75",75,"mg/dL",NA,NA,NA,NA,NA,NA,NA,"URINE",NA,NA,NA,NA,NA,NA,NA,NA,NA,NA,NA,NA,NA,NA,NA,31,"2011-01-10T07:48:47",NA,31,NA,NA,NA,NA,NA,NA
"PDS2014","LB","PDS2014-0006",NA,530,NA,NA,NA,"CSRBC","RBC Casts","URINALYSIS",NA,"IS",NA,NA,NA,"IS",NA,NA,NA,NA,NA,NA,NA,NA,NA,"URINE",NA,NA,NA,NA,NA,NA,NA,NA,NA,NA,NA,NA,NA,NA,NA,31,"2011-01-10T07:48:47",NA,31,NA,NA,NA,NA,NA,NA
"PDS2014","LB","PDS2014-0006",NA,531,NA,NA,NA,"CLARITY","Clarity","URINALYSIS",NA,"TURBD",NA,NA,NA,"TURBD",NA,NA,NA,NA,NA,NA,NA,NA,NA,"URINE",NA,NA,NA,NA,NA,NA,NA,NA,NA,NA,NA,NA,NA,NA,NA,31,"2011-01-10T07:48:47",NA,31,NA,NA,NA,NA,NA,NA
"PDS2014","LB","PDS2014-0006",NA,532,NA,NA,NA,"KETONES","Ketones","URINALYSIS",NA,"15","mg/dL",NA,NA,"15",15,"mg/dL",NA,NA,NA,NA,NA,NA,NA,"URINE",NA,NA,NA,NA,NA,NA,NA,NA,NA,NA,NA,NA,NA,NA,NA,31,"2011-01-10T07:48:47",NA,31,NA,NA,NA,NA,NA,NA
"PDS2014","LB","PDS2014-0006",NA,533,NA,NA,NA,"OCCBLD","Occult Blood","URINALYSIS",NA,"25","/uL",NA,NA,"25",25,"/uL",NA,NA,NA,NA,NA,NA,NA,"URINE",NA,NA,NA,NA,NA,NA,NA,NA,NA,NA,NA,NA,NA,NA,NA,31,"2011-01-10T07:48:47",NA,31,NA,NA,NA,NA,NA,NA
"PDS2014","LB","PDS2014-0006",NA,534,NA,NA,NA,"CYCAPHOS","Calcium Phosphate Crystals","URINALYSIS",NA,"IS",NA,NA,NA,"IS",NA,NA,NA,NA,NA,NA,NA,NA,NA,"URINE",NA,NA,NA,NA,NA,NA,NA,NA,NA,NA,NA,NA,NA,NA,NA,31,"2011-01-10T07:48:47",NA,31,NA,NA,NA,NA,NA,NA
"PDS2014","LB","PDS2014-0006",NA,535,NA,NA,NA,"RBC","Erythrocytes","URINALYSIS",NA,"IS",NA,NA,NA,"IS",NA,NA,NA,NA,NA,NA,NA,NA,NA,"URINE",NA,NA,NA,NA,NA,NA,NA,NA,NA,NA,NA,NA,NA,NA,NA,31,"2011-01-10T07:48:47",NA,31,NA,NA,NA,NA,NA,NA
"PDS2014","LB","PDS2014-0006",NA,536,NA,NA,NA,"CYBILI","Bilirubin Crystals","URINALYSIS",NA,"IS",NA,NA,NA,"IS",NA,NA,NA,NA,NA,NA,NA,NA,NA,"URINE",NA,NA,NA,NA,NA,NA,NA,NA,NA,NA,NA,NA,NA,NA,NA,31,"2011-01-10T07:48:47",NA,31,NA,NA,NA,NA,NA,NA
"PDS2014","LB","PDS2014-0006",NA,537,NA,NA,NA,"CYURIAC","Uric Acid Crystals","URINALYSIS",NA,"IS",NA,NA,NA,"IS",NA,NA,NA,NA,NA,NA,NA,NA,NA,"URINE",NA,NA,NA,NA,NA,NA,NA,NA,NA,NA,NA,NA,NA,NA,NA,31,"2011-01-10T07:48:47",NA,31,NA,NA,NA,NA,NA,NA
"PDS2014","LB","PDS2014-0006",NA,538,NA,NA,NA,"EPISQCE","Squamous Epithelial Cells","URINALYSIS",NA,"IS",NA,NA,NA,"IS",NA,NA,NA,NA,NA,NA,NA,NA,NA,"URINE",NA,NA,NA,NA,NA,NA,NA,NA,NA,NA,NA,NA,NA,NA,NA,31,"2011-01-10T07:48:47",NA,31,NA,NA,NA,NA,NA,NA
"PDS2014","LB","PDS2014-0006",NA,539,NA,NA,NA,"PH","pH","URINALYSIS",NA,"7",NA,NA,NA,"7",7,NA,NA,NA,NA,NA,NA,NA,NA,"URINE",NA,NA,NA,NA,NA,NA,NA,NA,NA,NA,NA,NA,NA,NA,NA,31,"2011-01-10T07:48:47",NA,31,NA,NA,NA,NA,NA,NA
"PDS2014","LB","PDS2014-0006",NA,540,NA,NA,NA,"EPIC","Epithelial Cells","URINALYSIS",NA,"IS",NA,NA,NA,"IS",NA,NA,NA,NA,NA,NA,NA,NA,NA,"URINE",NA,NA,NA,NA,NA,NA,NA,NA,NA,NA,NA,NA,NA,NA,NA,31,"2011-01-10T07:48:47",NA,31,NA,NA,NA,NA,NA,NA
"PDS2014","LB","PDS2014-0006",NA,541,NA,NA,NA,"GLUC","Glucose","URINALYSIS",NA,"NORM",NA,NA,NA,"NORM",NA,NA,NA,NA,NA,NA,NA,NA,NA,"URINE",NA,NA,NA,NA,NA,NA,NA,NA,NA,NA,NA,NA,NA,NA,NA,31,"2011-01-10T07:48:47",NA,31,NA,NA,NA,NA,NA,NA
"PDS2014","LB","PDS2014-0006",NA,542,NA,NA,NA,"GLOBUL","Globulin","URINALYSIS",NA,"1.88","g/dL",NA,NA,"1.88",1.88,"g/dL",NA,NA,NA,NA,NA,NA,NA,"URINE",NA,NA,NA,NA,NA,NA,NA,NA,NA,NA,NA,NA,NA,NA,NA,31,"2011-01-10T07:48:47",NA,31,NA,NA,NA,NA,NA,NA
"PDS2014","LB","PDS2014-0006",NA,543,NA,NA,NA,"WBC","Leukocytes","URINALYSIS",NA,"IS",NA,NA,NA,"IS",NA,NA,NA,NA,NA,NA,NA,NA,NA,"URINE",NA,NA,NA,NA,NA,NA,NA,NA,NA,NA,NA,NA,NA,NA,NA,31,"2011-01-10T07:48:47",NA,31,NA,NA,NA,NA,NA,NA
"PDS2014","LB","PDS2014-0006",NA,544,NA,NA,NA,"SPGRAV","Specific Gravity","URINALYSIS",NA,"1.05","RATIO",NA,NA,"1.05",1.05,"RATIO",NA,NA,NA,NA,NA,NA,NA,"URINE",NA,NA,NA,NA,NA,NA,NA,NA,NA,NA,NA,NA,NA,NA,NA,31,"2011-01-10T07:48:47",NA,31,NA,NA,NA,NA,NA,NA
"PDS2014","LB","PDS2014-0006",NA,545,NA,NA,NA,"CASULPH","Calcium Sulphate","URINALYSIS",NA,"IS",NA,NA,NA,"IS",NA,NA,NA,NA,NA,NA,NA,NA,NA,"URINE",NA,NA,NA,NA,NA,NA,NA,NA,NA,NA,NA,NA,NA,NA,NA,31,"2011-01-10T07:48:47",NA,31,NA,NA,NA,NA,NA,NA
"PDS2014","LB","PDS2014-0006",NA,546,NA,NA,NA,"CYTRPHOS","Triple Phosphate Crystals","URINALYSIS",NA,"IS",NA,NA,NA,"IS",NA,NA,NA,NA,NA,NA,NA,NA,NA,"URINE",NA,NA,NA,NA,NA,NA,NA,NA,NA,NA,NA,NA,NA,NA,NA,31,"2011-01-10T07:48:47",NA,31,NA,NA,NA,NA,NA,NA
"PDS2014","LB","PDS2014-0006",NA,547,NA,NA,NA,"CYSTARCH","Starch Crystals","URINALYSIS",NA,"IS",NA,NA,NA,"IS",NA,NA,NA,NA,NA,NA,NA,NA,NA,"URINE",NA,NA,NA,NA,NA,NA,NA,NA,NA,NA,NA,NA,NA,NA,NA,31,"2011-01-10T07:48:47",NA,31,NA,NA,NA,NA,NA,NA
"PDS2014","LB","PDS2014-0006",NA,548,NA,NA,NA,"EPITUCE","Tubular Epithelial Cells","URINALYSIS",NA,"IS",NA,NA,NA,"IS",NA,NA,NA,NA,NA,NA,NA,NA,NA,"URINE",NA,NA,NA,NA,NA,NA,NA,NA,NA,NA,NA,NA,NA,NA,NA,31,"2011-01-10T07:48:47",NA,31,NA,NA,NA,NA,NA,NA
"PDS2014","LB","PDS2014-0006",NA,549,NA,NA,NA,"CYCHOL","Cholesterol Crystals","URINALYSIS",NA,"IS",NA,NA,NA,"IS",NA,NA,NA,NA,NA,NA,NA,NA,NA,"URINE",NA,NA,NA,NA,NA,NA,NA,NA,NA,NA,NA,NA,NA,NA,NA,31,"2011-01-10T07:48:47",NA,31,NA,NA,NA,NA,NA,NA
"PDS2014","LB","PDS2014-0006",NA,550,NA,NA,NA,"CYTYRO","Tyrosine Crystals","URINALYSIS",NA,"IS",NA,NA,NA,"IS",NA,NA,NA,NA,NA,NA,NA,NA,NA,"URINE",NA,NA,NA,NA,NA,NA,NA,NA,NA,NA,NA,NA,NA,NA,NA,31,"2011-01-10T07:48:47",NA,31,NA,NA,NA,NA,NA,NA
"PDS2014","LB","PDS2014-0006",NA,551,NA,NA,NA,"CYCYSTIN","Cystine Crystals","URINALYSIS",NA,"IS",NA,NA,NA,"IS",NA,NA,NA,NA,NA,NA,NA,NA,NA,"URINE",NA,NA,NA,NA,NA,NA,NA,NA,NA,NA,NA,NA,NA,NA,NA,31,"2011-01-10T07:48:47",NA,31,NA,NA,NA,NA,NA,NA
"PDS2014","LB","PDS2014-0006",NA,552,NA,NA,NA,"YEAST","Yeast Cells","URINALYSIS",NA,"IS",NA,NA,NA,"IS",NA,NA,NA,NA,NA,NA,NA,NA,NA,"URINE",NA,NA,NA,NA,NA,NA,NA,NA,NA,NA,NA,NA,NA,NA,NA,31,"2011-01-10T07:48:47",NA,31,NA,NA,NA,NA,NA,NA
"PDS2014","LB","PDS2014-0006",NA,553,NA,NA,NA,"ALBGLOB","Albumin/Globulin","URINALYSIS",NA,"1.95","RATIO",NA,NA,"1.95",1.95,"RATIO",NA,NA,NA,NA,NA,NA,NA,"URINE",NA,NA,NA,NA,NA,NA,NA,NA,NA,NA,NA,NA,NA,NA,NA,31,"2011-01-10T07:48:47",NA,31,NA,NA,NA,NA,NA,NA
"PDS2014","LB","PDS2014-0006",NA,554,NA,NA,NA,"AMORPHSD","Amorphous Sediment","URINALYSIS",NA,"IS",NA,NA,NA,"IS",NA,NA,NA,NA,NA,NA,NA,NA,NA,"URINE",NA,NA,NA,NA,NA,NA,NA,NA,NA,NA,NA,NA,NA,NA,NA,31,"2011-01-10T07:48:47",NA,31,NA,NA,NA,NA,NA,NA
"PDS2014","LB","PDS2014-0006",NA,555,NA,NA,NA,"CYCAOXA","Calcium Oxalate Crystals","URINALYSIS",NA,"IS",NA,NA,NA,"IS",NA,NA,NA,NA,NA,NA,NA,NA,NA,"URINE",NA,NA,NA,NA,NA,NA,NA,NA,NA,NA,NA,NA,NA,NA,NA,31,"2011-01-10T07:48:47",NA,31,NA,NA,NA,NA,NA,NA
"PDS2014","LB","PDS2014-0006",NA,556,NA,NA,NA,"CYCACAR","Calcium Carbonate Crystals","URINALYSIS",NA,"IS",NA,NA,NA,"IS",NA,NA,NA,NA,NA,NA,NA,NA,NA,"URINE",NA,NA,NA,NA,NA,NA,NA,NA,NA,NA,NA,NA,NA,NA,NA,31,"2011-01-10T07:48:47",NA,31,NA,NA,NA,NA,NA,NA
"PDS2014","LB","PDS2014-0006",NA,557,NA,NA,NA,"BACT","Bacteria","URINALYSIS",NA,"IS",NA,NA,NA,"IS",NA,NA,NA,NA,NA,NA,NA,NA,NA,"URINE",NA,NA,NA,NA,NA,NA,NA,NA,NA,NA,NA,NA,NA,NA,NA,31,"2011-01-10T07:48:47",NA,31,NA,NA,NA,NA,NA,NA
"PDS2014","LB","PDS2014-0006",NA,558,NA,NA,NA,"SPERM","Spermatozoa","URINALYSIS",NA,"IS",NA,NA,NA,"IS",NA,NA,NA,NA,NA,NA,NA,NA,NA,"URINE",NA,NA,NA,NA,NA,NA,NA,NA,NA,NA,NA,NA,NA,NA,NA,31,"2011-01-10T07:48:47",NA,31,NA,NA,NA,NA,NA,NA
"PDS2014","LB","PDS2014-0006",NA,559,NA,NA,NA,"GGT","Gamma Glutamyl Transferase","CLINICAL CHEMISTRY",NA,"LO","U/L",NA,NA,"LO",NA,"U/L",NA,NA,NA,NA,NA,NA,NA,"SERUM",NA,NA,NA,NA,NA,NA,NA,NA,NA,NA,NA,NA,NA,NA,NA,31,"2011-01-10T07:59:23",NA,31,NA,NA,NA,NA,NA,NA
"PDS2014","LB","PDS2014-0006",NA,560,NA,NA,NA,"GLOBUL","Globulin","CLINICAL CHEMISTRY",NA,"1.88","g/dL",NA,NA,"1.88",1.88,"g/dL",NA,NA,NA,NA,NA,NA,NA,"SERUM",NA,NA,NA,NA,NA,NA,NA,NA,NA,NA,NA,NA,NA,NA,NA,31,"2011-01-10T07:59:23",NA,31,NA,NA,NA,NA,NA,NA
"PDS2014","LB","PDS2014-0006",NA,561,NA,NA,NA,"CA","Calcium","CLINICAL CHEMISTRY",NA,"9.97","mg/dL",NA,NA,"9.97",9.97,"mg/dL",NA,NA,NA,NA,NA,NA,NA,"SERUM",NA,NA,NA,NA,NA,NA,NA,NA,NA,NA,NA,NA,NA,NA,NA,31,"2011-01-10T07:59:23",NA,31,NA,NA,NA,NA,NA,NA
"PDS2014","LB","PDS2014-0006",NA,562,NA,NA,NA,"PROT","Protein","CLINICAL CHEMISTRY",NA,"5.55","g/dL",NA,NA,"5.55",5.55,"g/dL",NA,NA,NA,NA,NA,NA,NA,"SERUM",NA,NA,NA,NA,NA,NA,NA,NA,NA,NA,NA,NA,NA,NA,NA,31,"2011-01-10T07:59:23",NA,31,NA,NA,NA,NA,NA,NA
"PDS2014","LB","PDS2014-0006",NA,563,NA,NA,NA,"CL","Chloride","CLINICAL CHEMISTRY",NA,"103","mmol/L",NA,NA,"103",103,"mmol/L",NA,NA,NA,NA,NA,NA,NA,"SERUM",NA,NA,NA,NA,NA,NA,NA,NA,NA,NA,NA,NA,NA,NA,NA,31,"2011-01-10T07:59:23",NA,31,NA,NA,NA,NA,NA,NA
"PDS2014","LB","PDS2014-0006",NA,564,NA,NA,NA,"AST","Aspartate Aminotransferase","CLINICAL CHEMISTRY",NA,"157","U/L",NA,NA,"157",157,"U/L",NA,NA,NA,NA,NA,NA,NA,"SERUM",NA,NA,NA,NA,NA,NA,NA,NA,NA,NA,NA,NA,NA,NA,NA,31,"2011-01-10T07:59:23",NA,31,NA,NA,NA,NA,NA,NA
"PDS2014","LB","PDS2014-0006",NA,565,NA,NA,NA,"SODIUM","Sodium","CLINICAL CHEMISTRY",NA,"143","mmol/L",NA,NA,"143",143,"mmol/L",NA,NA,NA,NA,NA,NA,NA,"SERUM",NA,NA,NA,NA,NA,NA,NA,NA,NA,NA,NA,NA,NA,NA,NA,31,"2011-01-10T07:59:23",NA,31,NA,NA,NA,NA,NA,NA
"PDS2014","LB","PDS2014-0006",NA,566,NA,NA,NA,"CREAT","Creatinine","CLINICAL CHEMISTRY",NA,"0.22","mg/dL",NA,NA,"0.22",0.22,"mg/dL",NA,NA,NA,NA,NA,NA,NA,"SERUM",NA,NA,NA,NA,NA,NA,NA,NA,NA,NA,NA,NA,NA,NA,NA,31,"2011-01-10T07:59:23",NA,31,NA,NA,NA,NA,NA,NA
"PDS2014","LB","PDS2014-0006",NA,567,NA,NA,NA,"ALP","Alkaline Phosphatase","CLINICAL CHEMISTRY",NA,"134.8","U/L",NA,NA,"134.8",134.8,"U/L",NA,NA,NA,NA,NA,NA,NA,"SERUM",NA,NA,NA,NA,NA,NA,NA,NA,NA,NA,NA,NA,NA,NA,NA,31,"2011-01-10T07:59:23",NA,31,NA,NA,NA,NA,NA,NA
"PDS2014","LB","PDS2014-0006",NA,568,NA,NA,NA,"K","Potassium","CLINICAL CHEMISTRY",NA,"5.65","mmol/L",NA,NA,"5.65",5.65,"mmol/L",NA,NA,NA,NA,NA,NA,NA,"SERUM",NA,NA,NA,NA,NA,NA,NA,NA,NA,NA,NA,NA,NA,NA,NA,31,"2011-01-10T07:59:23",NA,31,NA,NA,NA,NA,NA,NA
"PDS2014","LB","PDS2014-0006",NA,569,NA,NA,NA,"ALB","Albumin","CLINICAL CHEMISTRY",NA,"3.67","g/dL",NA,NA,"3.67",3.67,"g/dL",NA,NA,NA,NA,NA,NA,NA,"SERUM",NA,NA,NA,NA,NA,NA,NA,NA,NA,NA,NA,NA,NA,NA,NA,31,"2011-01-10T07:59:23",NA,31,NA,NA,NA,NA,NA,NA
"PDS2014","LB","PDS2014-0006",NA,570,NA,NA,NA,"BILI","Bilirubin","CLINICAL CHEMISTRY",NA,"0.045","mg/dL",NA,NA,"0.045",0.045,"mg/dL",NA,NA,NA,NA,NA,NA,NA,"SERUM",NA,NA,NA,NA,NA,NA,NA,NA,NA,NA,NA,NA,NA,NA,NA,31,"2011-01-10T07:59:23",NA,31,NA,NA,NA,NA,NA,NA
"PDS2014","LB","PDS2014-0006",NA,571,NA,NA,NA,"CHOL","Cholesterol","CLINICAL CHEMISTRY",NA,"43","mg/dL",NA,NA,"43",43,"mg/dL",NA,NA,NA,NA,NA,NA,NA,"SERUM",NA,NA,NA,NA,NA,NA,NA,NA,NA,NA,NA,NA,NA,NA,NA,31,"2011-01-10T07:59:23",NA,31,NA,NA,NA,NA,NA,NA
"PDS2014","LB","PDS2014-0006",NA,572,NA,NA,NA,"ALBGLOB","Albumin/Globulin","CLINICAL CHEMISTRY",NA,"1.95","RATIO",NA,NA,"1.95",1.95,"RATIO",NA,NA,NA,NA,NA,NA,NA,"SERUM",NA,NA,NA,NA,NA,NA,NA,NA,NA,NA,NA,NA,NA,NA,NA,31,"2011-01-10T07:59:23",NA,31,NA,NA,NA,NA,NA,NA
"PDS2014","LB","PDS2014-0006",NA,573,NA,NA,NA,"BUN","Blood Urea Nitrogen","CLINICAL CHEMISTRY",NA,"13.2","mg/dL",NA,NA,"13.2",13.2,"mg/dL",NA,NA,NA,NA,NA,NA,NA,"SERUM",NA,NA,NA,NA,NA,NA,NA,NA,NA,NA,NA,NA,NA,NA,NA,31,"2011-01-10T07:59:23",NA,31,NA,NA,NA,NA,NA,NA
"PDS2014","LB","PDS2014-0006",NA,574,NA,NA,NA,"ALT","Alanine Aminotransferase","CLINICAL CHEMISTRY",NA,"28.9","U/L",NA,NA,"28.9",28.9,"U/L",NA,NA,NA,NA,NA,NA,NA,"SERUM",NA,NA,NA,NA,NA,NA,NA,NA,NA,NA,NA,NA,NA,NA,NA,31,"2011-01-10T07:59:23",NA,31,NA,NA,NA,NA,NA,NA
"PDS2014","LB","PDS2014-0006",NA,575,NA,NA,NA,"GLUC","Glucose","CLINICAL CHEMISTRY",NA,"92","mg/dL",NA,NA,"92",92,"mg/dL",NA,NA,NA,NA,NA,NA,NA,"SERUM",NA,NA,NA,NA,NA,NA,NA,NA,NA,NA,NA,NA,NA,NA,NA,31,"2011-01-10T07:59:23",NA,31,NA,NA,NA,NA,NA,NA
"PDS2014","LB","PDS2014-0006",NA,576,NA,NA,NA,"PHOS","Phosphate","CLINICAL CHEMISTRY",NA,"7.37","mg/dL",NA,NA,"7.37",7.37,"mg/dL",NA,NA,NA,NA,NA,NA,NA,"SERUM",NA,NA,NA,NA,NA,NA,NA,NA,NA,NA,NA,NA,NA,NA,NA,31,"2011-01-10T07:59:23",NA,31,NA,NA,NA,NA,NA,NA
"PDS2014","LB","PDS2014-0006",NA,577,NA,NA,NA,"TRIG","Triglycerides","CLINICAL CHEMISTRY",NA,"40.1","mg/dL",NA,NA,"40.1",40.1,"mg/dL",NA,NA,NA,NA,NA,NA,NA,"SERUM",NA,NA,NA,NA,NA,NA,NA,NA,NA,NA,NA,NA,NA,NA,NA,31,"2011-01-10T07:59:23",NA,31,NA,NA,NA,NA,NA,NA
"PDS2014","LB","PDS2014-0006",NA,578,NA,NA,NA,"FIBRINO","Fibrinogen","COAGULATION",NA,"162","mg/dL",NA,NA,"162",162,"mg/dL",NA,NA,NA,NA,NA,NA,NA,"PLASMA",NA,NA,NA,NA,NA,NA,NA,NA,NA,NA,NA,NA,NA,NA,NA,31,"2011-01-10T07:59:16",NA,31,NA,NA,NA,NA,NA,NA
"PDS2014","LB","PDS2014-0006",NA,579,NA,NA,NA,"GLOBUL","Globulin","COAGULATION",NA,"1.88","g/dL",NA,NA,"1.88",1.88,"g/dL",NA,NA,NA,NA,NA,NA,NA,"PLASMA",NA,NA,NA,NA,NA,NA,NA,NA,NA,NA,NA,NA,NA,NA,NA,31,"2011-01-10T07:59:16",NA,31,NA,NA,NA,NA,NA,NA
"PDS2014","LB","PDS2014-0006",NA,580,NA,NA,NA,"APTT","Activated Partial Thromboplastin Time","COAGULATION",NA,"13.2","sec",NA,NA,"13.2",13.2,"sec",NA,NA,NA,NA,NA,NA,NA,"PLASMA",NA,NA,NA,NA,NA,NA,NA,NA,NA,NA,NA,NA,NA,NA,NA,31,"2011-01-10T07:59:16",NA,31,NA,NA,NA,NA,NA,NA
"PDS2014","LB","PDS2014-0006",NA,581,NA,NA,NA,"ALBGLOB","Albumin/Globulin","COAGULATION",NA,"1.95","RATIO",NA,NA,"1.95",1.95,"RATIO",NA,NA,NA,NA,NA,NA,NA,"PLASMA",NA,NA,NA,NA,NA,NA,NA,NA,NA,NA,NA,NA,NA,NA,NA,31,"2011-01-10T07:59:16",NA,31,NA,NA,NA,NA,NA,NA
"PDS2014","LB","PDS2014-0006",NA,582,NA,NA,NA,"PT","Prothrombin Time","COAGULATION",NA,"14.4","sec",NA,NA,"14.4",14.4,"sec",NA,NA,NA,NA,NA,NA,NA,"PLASMA",NA,NA,NA,NA,NA,NA,NA,NA,NA,NA,NA,NA,NA,NA,NA,31,"2011-01-10T07:59:16",NA,31,NA,NA,NA,NA,NA,NA
"PDS2014","LB","PDS2014-0007",NA,583,NA,NA,NA,"PT","Prothrombin Time","COAGULATION",NA,"12.8","sec",NA,NA,"12.8",12.8,"sec",NA,NA,NA,NA,NA,NA,NA,"PLASMA",NA,NA,NA,NA,NA,NA,NA,NA,NA,NA,NA,NA,NA,NA,NA,31,"2011-01-10T08:05:34",NA,31,NA,NA,NA,NA,NA,NA
"PDS2014","LB","PDS2014-0007",NA,584,NA,NA,NA,"ALBGLOB","Albumin/Globulin","COAGULATION",NA,"1.86","RATIO",NA,NA,"1.86",1.86,"RATIO",NA,NA,NA,NA,NA,NA,NA,"PLASMA",NA,NA,NA,NA,NA,NA,NA,NA,NA,NA,NA,NA,NA,NA,NA,31,"2011-01-10T08:05:34",NA,31,NA,NA,NA,NA,NA,NA
"PDS2014","LB","PDS2014-0007",NA,585,NA,NA,NA,"GLOBUL","Globulin","COAGULATION",NA,"1.97","g/dL",NA,NA,"1.97",1.97,"g/dL",NA,NA,NA,NA,NA,NA,NA,"PLASMA",NA,NA,NA,NA,NA,NA,NA,NA,NA,NA,NA,NA,NA,NA,NA,31,"2011-01-10T08:05:34",NA,31,NA,NA,NA,NA,NA,NA
"PDS2014","LB","PDS2014-0007",NA,586,NA,NA,NA,"APTT","Activated Partial Thromboplastin Time","COAGULATION",NA,"16","sec",NA,NA,"16",16,"sec",NA,NA,NA,NA,NA,NA,NA,"PLASMA",NA,NA,NA,NA,NA,NA,NA,NA,NA,NA,NA,NA,NA,NA,NA,31,"2011-01-10T08:05:34",NA,31,NA,NA,NA,NA,NA,NA
"PDS2014","LB","PDS2014-0007",NA,587,NA,NA,NA,"FIBRINO","Fibrinogen","COAGULATION",NA,"145","mg/dL",NA,NA,"145",145,"mg/dL",NA,NA,NA,NA,NA,NA,NA,"PLASMA",NA,NA,NA,NA,NA,NA,NA,NA,NA,NA,NA,NA,NA,NA,NA,31,"2011-01-10T08:05:34",NA,31,NA,NA,NA,NA,NA,NA
"PDS2014","LB","PDS2014-0007",NA,588,NA,NA,NA,"FATACFR","Free Fatty Acid","CLINICAL CHEMISTRY",NA,"0.31","mmol/L",NA,NA,"0.31",0.31,"mmol/L",NA,NA,NA,NA,NA,NA,NA,"SERUM",NA,NA,NA,NA,NA,NA,NA,NA,NA,NA,NA,NA,NA,NA,NA,31,"2011-01-10T13:28:39",NA,31,NA,NA,NA,NA,NA,NA
"PDS2014","LB","PDS2014-0007",NA,589,NA,NA,NA,"MICROCY","Microcytes","HEMATOLOGY",NA,"0",NA,NA,NA,"0",0,NA,NA,NA,NA,NA,NA,NA,NA,"WHOLE BLOOD",NA,NA,NA,NA,NA,NA,NA,NA,NA,NA,NA,NA,NA,NA,NA,31,"2011-01-10T08:05:26",NA,31,NA,NA,NA,NA,NA,NA
"PDS2014","LB","PDS2014-0007",NA,590,NA,NA,NA,"BASO","Basophils","HEMATOLOGY",NA,"0.03","10^9/L",NA,NA,"0.03",0.03,"10^9/L",NA,NA,NA,NA,NA,NA,NA,"WHOLE BLOOD",NA,NA,NA,NA,NA,NA,NA,NA,NA,NA,NA,NA,NA,NA,NA,31,"2011-01-10T08:05:26",NA,31,NA,NA,NA,NA,NA,NA
"PDS2014","LB","PDS2014-0007",NA,591,NA,NA,NA,"HPOCROM","Hypochromia","HEMATOLOGY",NA,"0",NA,NA,NA,"0",0,NA,NA,NA,NA,NA,NA,NA,NA,"WHOLE BLOOD",NA,NA,NA,NA,NA,NA,NA,NA,NA,NA,NA,NA,NA,NA,NA,31,"2011-01-10T08:05:26",NA,31,NA,NA,NA,NA,NA,NA
"PDS2014","LB","PDS2014-0007",NA,592,NA,NA,NA,"RBCNUCLE","Nucleated Erythrocytes/Leukocytes","HEMATOLOGY",NA,"NE","%",NA,NA,"NE",NA,"%",NA,NA,NA,NA,NA,NA,NA,"WHOLE BLOOD",NA,NA,NA,NA,NA,NA,NA,NA,NA,NA,NA,NA,NA,NA,NA,31,"2011-01-10T08:05:26",NA,31,NA,NA,NA,NA,NA,NA
"PDS2014","LB","PDS2014-0007",NA,593,NA,NA,NA,"PLATLRG","Large Platelets","HEMATOLOGY",NA,"0",NA,NA,NA,"0",0,NA,NA,NA,NA,NA,NA,NA,NA,"WHOLE BLOOD",NA,NA,NA,NA,NA,NA,NA,NA,NA,NA,NA,NA,NA,NA,NA,31,"2011-01-10T08:05:26",NA,31,NA,NA,NA,NA,NA,NA
"PDS2014","LB","PDS2014-0007",NA,594,NA,NA,NA,"LYM","Lymphocytes","HEMATOLOGY",NA,"9.19","10^9/L",NA,NA,"9.19",9.19,"10^9/L",NA,NA,NA,NA,NA,NA,NA,"WHOLE BLOOD",NA,NA,NA,NA,NA,NA,NA,NA,NA,NA,NA,NA,NA,NA,NA,31,"2011-01-10T08:05:26",NA,31,NA,NA,NA,NA,NA,NA
"PDS2014","LB","PDS2014-0007",NA,595,NA,NA,NA,"ANISO","Anisocytes","HEMATOLOGY",NA,"0",NA,NA,NA,"0",0,NA,NA,NA,NA,NA,NA,NA,NA,"WHOLE BLOOD",NA,NA,NA,NA,NA,NA,NA,NA,NA,NA,NA,NA,NA,NA,NA,31,"2011-01-10T08:05:26",NA,31,NA,NA,NA,NA,NA,NA
"PDS2014","LB","PDS2014-0007",NA,596,NA,NA,NA,"LGLUCLE","Large Unstained Cells/Leukocytes","HEMATOLOGY",NA,"0.4","%",NA,NA,"0.4",0.4,"%",NA,NA,NA,NA,NA,NA,NA,"WHOLE BLOOD",NA,NA,NA,NA,NA,NA,NA,NA,NA,NA,NA,NA,NA,NA,NA,31,"2011-01-10T08:05:26",NA,31,NA,NA,NA,NA,NA,NA
"PDS2014","LB","PDS2014-0007",NA,597,NA,NA,NA,"MCHC","Ery. Mean Corpuscular HGB Concentration","HEMATOLOGY",NA,"33.6","g/dL",NA,NA,"33.6",33.6,"g/dL",NA,NA,NA,NA,NA,NA,NA,"WHOLE BLOOD",NA,NA,NA,NA,NA,NA,NA,NA,NA,NA,NA,NA,NA,NA,NA,31,"2011-01-10T08:05:26",NA,31,NA,NA,NA,NA,NA,NA
"PDS2014","LB","PDS2014-0007",NA,598,NA,NA,NA,"ALBGLOB","Albumin/Globulin","HEMATOLOGY",NA,"1.86","RATIO",NA,NA,"1.86",1.86,"RATIO",NA,NA,NA,NA,NA,NA,NA,"WHOLE BLOOD",NA,NA,NA,NA,NA,NA,NA,NA,NA,NA,NA,NA,NA,NA,NA,31,"2011-01-10T08:05:26",NA,31,NA,NA,NA,NA,NA,NA
"PDS2014","LB","PDS2014-0007",NA,599,NA,NA,NA,"HGB","Hemoglobin","HEMATOLOGY",NA,"15.9","g/dL",NA,NA,"15.9",15.9,"g/dL",NA,NA,NA,NA,NA,NA,NA,"WHOLE BLOOD",NA,NA,NA,NA,NA,NA,NA,NA,NA,NA,NA,NA,NA,NA,NA,31,"2011-01-10T08:05:26",NA,31,NA,NA,NA,NA,NA,NA
"PDS2014","LB","PDS2014-0007",NA,600,NA,NA,NA,"MONOCE","Monocytes/Total Cells","HEMATOLOGY",NA,"1.9","%",NA,NA,"1.9",1.9,"%",NA,NA,NA,NA,NA,NA,NA,"WHOLE BLOOD",NA,NA,NA,NA,NA,NA,NA,NA,NA,NA,NA,NA,NA,NA,NA,31,"2011-01-10T08:05:26",NA,31,NA,NA,NA,NA,NA,NA
"PDS2014","LB","PDS2014-0007",NA,601,NA,NA,NA,"PLAT","Platelets","HEMATOLOGY",NA,"751","10^9/L",NA,NA,"751",751,"10^9/L",NA,NA,NA,NA,NA,NA,NA,"WHOLE BLOOD",NA,NA,NA,NA,NA,NA,NA,NA,NA,NA,NA,NA,NA,NA,NA,31,"2011-01-10T08:05:26",NA,31,NA,NA,NA,NA,NA,NA
"PDS2014","LB","PDS2014-0007",NA,602,NA,NA,NA,"EOS","Eosinophils","HEMATOLOGY",NA,"0.09","10^9/L",NA,NA,"0.09",0.09,"10^9/L",NA,NA,NA,NA,NA,NA,NA,"WHOLE BLOOD",NA,NA,NA,NA,NA,NA,NA,NA,NA,NA,NA,NA,NA,NA,NA,31,"2011-01-10T08:05:26",NA,31,NA,NA,NA,NA,NA,NA
"PDS2014","LB","PDS2014-0007",NA,603,NA,NA,NA,"MCV","Ery. Mean Corpuscular Volume","HEMATOLOGY",NA,"58.8","fL",NA,NA,"58.8",58.8,"fL",NA,NA,NA,NA,NA,NA,NA,"WHOLE BLOOD",NA,NA,NA,NA,NA,NA,NA,NA,NA,NA,NA,NA,NA,NA,NA,31,"2011-01-10T08:05:26",NA,31,NA,NA,NA,NA,NA,NA
"PDS2014","LB","PDS2014-0007",NA,604,NA,NA,NA,"MCH","Ery. Mean Corpuscular Hemoglobin","HEMATOLOGY",NA,"19.9","pg",NA,NA,"19.9",19.9,"pg",NA,NA,NA,NA,NA,NA,NA,"WHOLE BLOOD",NA,NA,NA,NA,NA,NA,NA,NA,NA,NA,NA,NA,NA,NA,NA,31,"2011-01-10T08:05:26",NA,31,NA,NA,NA,NA,NA,NA
"PDS2014","LB","PDS2014-0007",NA,605,NA,NA,NA,"WBC","Leukocytes","HEMATOLOGY",NA,"10.59","10^9/L",NA,NA,"10.59",10.59,"10^9/L",NA,NA,NA,NA,NA,NA,NA,"WHOLE BLOOD",NA,NA,NA,NA,NA,NA,NA,NA,NA,NA,NA,NA,NA,NA,NA,31,"2011-01-10T08:05:26",NA,31,NA,NA,NA,NA,NA,NA
"PDS2014","LB","PDS2014-0007",NA,606,NA,NA,NA,"NEUT","Neutrophils","HEMATOLOGY",NA,"1.03","10^9/L",NA,NA,"1.03",1.03,"10^9/L",NA,NA,NA,NA,NA,NA,NA,"WHOLE BLOOD",NA,NA,NA,NA,NA,NA,NA,NA,NA,NA,NA,NA,NA,NA,NA,31,"2011-01-10T08:05:26",NA,31,NA,NA,NA,NA,NA,NA
"PDS2014","LB","PDS2014-0007",NA,607,NA,NA,NA,"RDW","Erythrocytes Distribution Width","HEMATOLOGY",NA,"12.8","%",NA,NA,"12.8",12.8,"%",NA,NA,NA,NA,NA,NA,NA,"WHOLE BLOOD",NA,NA,NA,NA,NA,NA,NA,NA,NA,NA,NA,NA,NA,NA,NA,31,"2011-01-10T08:05:26",NA,31,NA,NA,NA,NA,NA,NA
"PDS2014","LB","PDS2014-0007",NA,608,NA,NA,NA,"BASOCE","Basophils/Total Cells","HEMATOLOGY",NA,"0.3","%",NA,NA,"0.3",0.3,"%",NA,NA,NA,NA,NA,NA,NA,"WHOLE BLOOD",NA,NA,NA,NA,NA,NA,NA,NA,NA,NA,NA,NA,NA,NA,NA,31,"2011-01-10T08:05:26",NA,31,NA,NA,NA,NA,NA,NA
"PDS2014","LB","PDS2014-0007",NA,609,NA,NA,NA,"HCT","Hematocrit","HEMATOLOGY",NA,"47","%",NA,NA,"47",47,"%",NA,NA,NA,NA,NA,NA,NA,"WHOLE BLOOD",NA,NA,NA,NA,NA,NA,NA,NA,NA,NA,NA,NA,NA,NA,NA,31,"2011-01-10T08:05:26",NA,31,NA,NA,NA,NA,NA,NA
"PDS2014","LB","PDS2014-0007",NA,610,NA,NA,NA,"EOSCE","Eosinophils/Total Cells","HEMATOLOGY",NA,"0.8","%",NA,NA,"0.8",0.8,"%",NA,NA,NA,NA,NA,NA,NA,"WHOLE BLOOD",NA,NA,NA,NA,NA,NA,NA,NA,NA,NA,NA,NA,NA,NA,NA,31,"2011-01-10T08:05:26",NA,31,NA,NA,NA,NA,NA,NA
"PDS2014","LB","PDS2014-0007",NA,611,NA,NA,NA,"LYMCE","Lymphocytes/Total Cells","HEMATOLOGY",NA,"86.8","%",NA,NA,"86.8",86.8,"%",NA,NA,NA,NA,NA,NA,NA,"WHOLE BLOOD",NA,NA,NA,NA,NA,NA,NA,NA,NA,NA,NA,NA,NA,NA,NA,31,"2011-01-10T08:05:26",NA,31,NA,NA,NA,NA,NA,NA
"PDS2014","LB","PDS2014-0007",NA,612,NA,NA,NA,"PLATCLMP","Platelet Clumps","HEMATOLOGY",NA,"0",NA,NA,NA,"0",0,NA,NA,NA,NA,NA,NA,NA,NA,"WHOLE BLOOD",NA,NA,NA,NA,NA,NA,NA,NA,NA,NA,NA,NA,NA,NA,NA,31,"2011-01-10T08:05:26",NA,31,NA,NA,NA,NA,NA,NA
"PDS2014","LB","PDS2014-0007",NA,613,NA,NA,NA,"MONO","Monocytes","HEMATOLOGY",NA,"0.2","10^9/L",NA,NA,"0.2",0.2,"10^9/L",NA,NA,NA,NA,NA,NA,NA,"WHOLE BLOOD",NA,NA,NA,NA,NA,NA,NA,NA,NA,NA,NA,NA,NA,NA,NA,31,"2011-01-10T08:05:26",NA,31,NA,NA,NA,NA,NA,NA
"PDS2014","LB","PDS2014-0007",NA,614,NA,NA,NA,"LGUNSCE","Large Unstained Cells","HEMATOLOGY",NA,"0.04","10^9/L",NA,NA,"0.04",0.04,"10^9/L",NA,NA,NA,NA,NA,NA,NA,"WHOLE BLOOD",NA,NA,NA,NA,NA,NA,NA,NA,NA,NA,NA,NA,NA,NA,NA,31,"2011-01-10T08:05:26",NA,31,NA,NA,NA,NA,NA,NA
"PDS2014","LB","PDS2014-0007",NA,615,NA,NA,NA,"RETIRBC","Reticulocytes/Erythrocytes","HEMATOLOGY",NA,"1.8","%",NA,NA,"1.8",1.8,"%",NA,NA,NA,NA,NA,NA,NA,"WHOLE BLOOD",NA,NA,NA,NA,NA,NA,NA,NA,NA,NA,NA,NA,NA,NA,NA,31,"2011-01-10T08:05:26",NA,31,NA,NA,NA,NA,NA,NA
"PDS2014","LB","PDS2014-0007",NA,616,NA,NA,NA,"GLOBUL","Globulin","HEMATOLOGY",NA,"1.97","g/dL",NA,NA,"1.97",1.97,"g/dL",NA,NA,NA,NA,NA,NA,NA,"WHOLE BLOOD",NA,NA,NA,NA,NA,NA,NA,NA,NA,NA,NA,NA,NA,NA,NA,31,"2011-01-10T08:05:26",NA,31,NA,NA,NA,NA,NA,NA
"PDS2014","LB","PDS2014-0007",NA,617,NA,NA,NA,"MACROCY","Macrocytes","HEMATOLOGY",NA,"0",NA,NA,NA,"0",0,NA,NA,NA,NA,NA,NA,NA,NA,"WHOLE BLOOD",NA,NA,NA,NA,NA,NA,NA,NA,NA,NA,NA,NA,NA,NA,NA,31,"2011-01-10T08:05:26",NA,31,NA,NA,NA,NA,NA,NA
"PDS2014","LB","PDS2014-0007",NA,618,NA,NA,NA,"RBC","Erythrocytes","HEMATOLOGY",NA,"7.99","10^12/L",NA,NA,"7.99",7.99,"10^12/L",NA,NA,NA,NA,NA,NA,NA,"WHOLE BLOOD",NA,NA,NA,NA,NA,NA,NA,NA,NA,NA,NA,NA,NA,NA,NA,31,"2011-01-10T08:05:26",NA,31,NA,NA,NA,NA,NA,NA
"PDS2014","LB","PDS2014-0007",NA,619,NA,NA,NA,"NEUTCE","Neutrophils/Total Cells","HEMATOLOGY",NA,"9.8","%",NA,NA,"9.8",9.8,"%",NA,NA,NA,NA,NA,NA,NA,"WHOLE BLOOD",NA,NA,NA,NA,NA,NA,NA,NA,NA,NA,NA,NA,NA,NA,NA,31,"2011-01-10T08:05:26",NA,31,NA,NA,NA,NA,NA,NA
"PDS2014","LB","PDS2014-0007",NA,620,NA,NA,NA,"RETI","Reticulocytes","HEMATOLOGY",NA,"142.7","10^9/L",NA,NA,"142.7",142.7,"10^9/L",NA,NA,NA,NA,NA,NA,NA,"WHOLE BLOOD",NA,NA,NA,NA,NA,NA,NA,NA,NA,NA,NA,NA,NA,NA,NA,31,"2011-01-10T08:05:26",NA,31,NA,NA,NA,NA,NA,NA
"PDS2014","LB","PDS2014-0007",NA,621,NA,NA,NA,"HYPERCHR","Hyperchromia","HEMATOLOGY",NA,"0",NA,NA,NA,"0",0,NA,NA,NA,NA,NA,NA,NA,NA,"WHOLE BLOOD",NA,NA,NA,NA,NA,NA,NA,NA,NA,NA,NA,NA,NA,NA,NA,31,"2011-01-10T08:05:26",NA,31,NA,NA,NA,NA,NA,NA
"PDS2014","LB","PDS2014-0007",NA,622,NA,NA,NA,"YEAST","Yeast Cells","URINALYSIS",NA,"0",NA,NA,NA,"0",0,NA,NA,NA,NA,NA,NA,NA,NA,"URINE",NA,NA,NA,NA,NA,NA,NA,NA,NA,NA,NA,NA,NA,NA,NA,31,"2011-01-10T07:48:53",NA,31,NA,NA,NA,NA,NA,NA
"PDS2014","LB","PDS2014-0007",NA,623,NA,NA,NA,"CSFAT","Fatty Casts","URINALYSIS",NA,"0",NA,NA,NA,"0",0,NA,NA,NA,NA,NA,NA,NA,NA,"URINE",NA,NA,NA,NA,NA,NA,NA,NA,NA,NA,NA,NA,NA,NA,NA,31,"2011-01-10T07:48:53",NA,31,NA,NA,NA,NA,NA,NA
"PDS2014","LB","PDS2014-0007",NA,624,NA,NA,NA,"BACT","Bacteria","URINALYSIS",NA,"2",NA,NA,NA,"2",2,NA,NA,NA,NA,NA,NA,NA,NA,"URINE",NA,NA,NA,NA,NA,NA,NA,NA,NA,NA,NA,NA,NA,NA,NA,31,"2011-01-10T07:48:53",NA,31,NA,NA,NA,NA,NA,NA
"PDS2014","LB","PDS2014-0007",NA,625,NA,NA,NA,"RBC","Erythrocytes","URINALYSIS",NA,"1",NA,NA,NA,"1",1,NA,NA,NA,NA,NA,NA,NA,NA,"URINE",NA,NA,NA,NA,NA,NA,NA,NA,NA,NA,NA,NA,NA,NA,NA,31,"2011-01-10T07:48:53",NA,31,NA,NA,NA,NA,NA,NA
"PDS2014","LB","PDS2014-0007",NA,626,NA,NA,NA,"EPITUCE","Tubular Epithelial Cells","URINALYSIS",NA,"0",NA,NA,NA,"0",0,NA,NA,NA,NA,NA,NA,NA,NA,"URINE",NA,NA,NA,NA,NA,NA,NA,NA,NA,NA,NA,NA,NA,NA,NA,31,"2011-01-10T07:48:53",NA,31,NA,NA,NA,NA,NA,NA
"PDS2014","LB","PDS2014-0007",NA,627,NA,NA,NA,"SPGRAV","Specific Gravity","URINALYSIS",NA,"1.039","RATIO",NA,NA,"1.039",1.039,"RATIO",NA,NA,NA,NA,NA,NA,NA,"URINE",NA,NA,NA,NA,NA,NA,NA,NA,NA,NA,NA,NA,NA,NA,NA,31,"2011-01-10T07:48:53",NA,31,NA,NA,NA,NA,NA,NA
"PDS2014","LB","PDS2014-0007",NA,628,NA,NA,NA,"CYTRPHOS","Triple Phosphate Crystals","URINALYSIS",NA,"3",NA,NA,NA,"3",3,NA,NA,NA,NA,NA,NA,NA,NA,"URINE",NA,NA,NA,NA,NA,NA,NA,NA,NA,NA,NA,NA,NA,NA,NA,31,"2011-01-10T07:48:53",NA,31,NA,NA,NA,NA,NA,NA
"PDS2014","LB","PDS2014-0007",NA,629,NA,NA,NA,"CSWBC","WBC Casts","URINALYSIS",NA,"0",NA,NA,NA,"0",0,NA,NA,NA,NA,NA,NA,NA,NA,"URINE",NA,NA,NA,NA,NA,NA,NA,NA,NA,NA,NA,NA,NA,NA,NA,31,"2011-01-10T07:48:53",NA,31,NA,NA,NA,NA,NA,NA
"PDS2014","LB","PDS2014-0007",NA,630,NA,NA,NA,"CSRBC","RBC Casts","URINALYSIS",NA,"0",NA,NA,NA,"0",0,NA,NA,NA,NA,NA,NA,NA,NA,"URINE",NA,NA,NA,NA,NA,NA,NA,NA,NA,NA,NA,NA,NA,NA,NA,31,"2011-01-10T07:48:53",NA,31,NA,NA,NA,NA,NA,NA
"PDS2014","LB","PDS2014-0007",NA,631,NA,NA,NA,"GLUC","Glucose","URINALYSIS",NA,"NORM",NA,NA,NA,"NORM",NA,NA,NA,NA,NA,NA,NA,NA,NA,"URINE",NA,NA,NA,NA,NA,NA,NA,NA,NA,NA,NA,NA,NA,NA,NA,31,"2011-01-10T07:48:53",NA,31,NA,NA,NA,NA,NA,NA
"PDS2014","LB","PDS2014-0007",NA,632,NA,NA,NA,"SPERM","Spermatozoa","URINALYSIS",NA,"2",NA,NA,NA,"2",2,NA,NA,NA,NA,NA,NA,NA,NA,"URINE",NA,NA,NA,NA,NA,NA,NA,NA,NA,NA,NA,NA,NA,NA,NA,31,"2011-01-10T07:48:53",NA,31,NA,NA,NA,NA,NA,NA
"PDS2014","LB","PDS2014-0007",NA,633,NA,NA,NA,"PH","pH","URINALYSIS",NA,"6.4",NA,NA,NA,"6.4",6.4,NA,NA,NA,NA,NA,NA,NA,NA,"URINE",NA,NA,NA,NA,NA,NA,NA,NA,NA,NA,NA,NA,NA,NA,NA,31,"2011-01-10T07:48:53",NA,31,NA,NA,NA,NA,NA,NA
"PDS2014","LB","PDS2014-0007",NA,634,NA,NA,NA,"CYCHOL","Cholesterol Crystals","URINALYSIS",NA,"0",NA,NA,NA,"0",0,NA,NA,NA,NA,NA,NA,NA,NA,"URINE",NA,NA,NA,NA,NA,NA,NA,NA,NA,NA,NA,NA,NA,NA,NA,31,"2011-01-10T07:48:53",NA,31,NA,NA,NA,NA,NA,NA
"PDS2014","LB","PDS2014-0007",NA,635,NA,NA,NA,"OCCBLD","Occult Blood","URINALYSIS",NA,"10","/uL",NA,NA,"10",10,"/uL",NA,NA,NA,NA,NA,NA,NA,"URINE",NA,NA,NA,NA,NA,NA,NA,NA,NA,NA,NA,NA,NA,NA,NA,31,"2011-01-10T07:48:53",NA,31,NA,NA,NA,NA,NA,NA
"PDS2014","LB","PDS2014-0007",NA,636,NA,NA,NA,"ALBGLOB","Albumin/Globulin","URINALYSIS",NA,"1.86","RATIO",NA,NA,"1.86",1.86,"RATIO",NA,NA,NA,NA,NA,NA,NA,"URINE",NA,NA,NA,NA,NA,NA,NA,NA,NA,NA,NA,NA,NA,NA,NA,31,"2011-01-10T07:48:53",NA,31,NA,NA,NA,NA,NA,NA
"PDS2014","LB","PDS2014-0007",NA,637,NA,NA,NA,"WBC","Leukocytes","URINALYSIS",NA,"0",NA,NA,NA,"0",0,NA,NA,NA,NA,NA,NA,NA,NA,"URINE",NA,NA,NA,NA,NA,NA,NA,NA,NA,NA,NA,NA,NA,NA,NA,31,"2011-01-10T07:48:53",NA,31,NA,NA,NA,NA,NA,NA
"PDS2014","LB","PDS2014-0007",NA,638,NA,NA,NA,"CSWAX","Waxy Casts","URINALYSIS",NA,"0",NA,NA,NA,"0",0,NA,NA,NA,NA,NA,NA,NA,NA,"URINE",NA,NA,NA,NA,NA,NA,NA,NA,NA,NA,NA,NA,NA,NA,NA,31,"2011-01-10T07:48:53",NA,31,NA,NA,NA,NA,NA,NA
"PDS2014","LB","PDS2014-0007",NA,639,NA,NA,NA,"CLARITY","Clarity","URINALYSIS",NA,"CLEAR",NA,NA,NA,"CLEAR",NA,NA,NA,NA,NA,NA,NA,NA,NA,"URINE",NA,NA,NA,NA,NA,NA,NA,NA,NA,NA,NA,NA,NA,NA,NA,31,"2011-01-10T07:48:53",NA,31,NA,NA,NA,NA,NA,NA
"PDS2014","LB","PDS2014-0007",NA,640,NA,NA,NA,"PROT","Protein","URINALYSIS",NA,"25","mg/dL",NA,NA,"25",25,"mg/dL",NA,NA,NA,NA,NA,NA,NA,"URINE",NA,NA,NA,NA,NA,NA,NA,NA,NA,NA,NA,NA,NA,NA,NA,31,"2011-01-10T07:48:53",NA,31,NA,NA,NA,NA,NA,NA
"PDS2014","LB","PDS2014-0007",NA,641,NA,NA,NA,"EPISQCE","Squamous Epithelial Cells","URINALYSIS",NA,"1",NA,NA,NA,"1",1,NA,NA,NA,NA,NA,NA,NA,NA,"URINE",NA,NA,NA,NA,NA,NA,NA,NA,NA,NA,NA,NA,NA,NA,NA,31,"2011-01-10T07:48:53",NA,31,NA,NA,NA,NA,NA,NA
"PDS2014","LB","PDS2014-0007",NA,642,NA,NA,NA,"CYTYRO","Tyrosine Crystals","URINALYSIS",NA,"0",NA,NA,NA,"0",0,NA,NA,NA,NA,NA,NA,NA,NA,"URINE",NA,NA,NA,NA,NA,NA,NA,NA,NA,NA,NA,NA,NA,NA,NA,31,"2011-01-10T07:48:53",NA,31,NA,NA,NA,NA,NA,NA
"PDS2014","LB","PDS2014-0007",NA,643,NA,NA,NA,"CSEPI","Epithelial Casts","URINALYSIS",NA,"0",NA,NA,NA,"0",0,NA,NA,NA,NA,NA,NA,NA,NA,"URINE",NA,NA,NA,NA,NA,NA,NA,NA,NA,NA,NA,NA,NA,NA,NA,31,"2011-01-10T07:48:53",NA,31,NA,NA,NA,NA,NA,NA
"PDS2014","LB","PDS2014-0007",NA,644,NA,NA,NA,"CYCACAR","Calcium Carbonate Crystals","URINALYSIS",NA,"0",NA,NA,NA,"0",0,NA,NA,NA,NA,NA,NA,NA,NA,"URINE",NA,NA,NA,NA,NA,NA,NA,NA,NA,NA,NA,NA,NA,NA,NA,31,"2011-01-10T07:48:53",NA,31,NA,NA,NA,NA,NA,NA
"PDS2014","LB","PDS2014-0007",NA,645,NA,NA,NA,"KETONES","Ketones","URINALYSIS",NA,"15","mg/dL",NA,NA,"15",15,"mg/dL",NA,NA,NA,NA,NA,NA,NA,"URINE",NA,NA,NA,NA,NA,NA,NA,NA,NA,NA,NA,NA,NA,NA,NA,31,"2011-01-10T07:48:53",NA,31,NA,NA,NA,NA,NA,NA
"PDS2014","LB","PDS2014-0007",NA,646,NA,NA,NA,"COLOR","Color","URINALYSIS",NA,"PALE",NA,NA,NA,"PALE",NA,NA,NA,NA,NA,NA,NA,NA,NA,"URINE",NA,NA,NA,NA,NA,NA,NA,NA,NA,NA,NA,NA,NA,NA,NA,31,"2011-01-10T07:48:53",NA,31,NA,NA,NA,NA,NA,NA
"PDS2014","LB","PDS2014-0007",NA,647,NA,NA,NA,"CSGRAN","Granular Casts","URINALYSIS",NA,"0",NA,NA,NA,"0",0,NA,NA,NA,NA,NA,NA,NA,NA,"URINE",NA,NA,NA,NA,NA,NA,NA,NA,NA,NA,NA,NA,NA,NA,NA,31,"2011-01-10T07:48:53",NA,31,NA,NA,NA,NA,NA,NA
"PDS2014","LB","PDS2014-0007",NA,648,NA,NA,NA,"CYCYSTIN","Cystine Crystals","URINALYSIS",NA,"0",NA,NA,NA,"0",0,NA,NA,NA,NA,NA,NA,NA,NA,"URINE",NA,NA,NA,NA,NA,NA,NA,NA,NA,NA,NA,NA,NA,NA,NA,31,"2011-01-10T07:48:53",NA,31,NA,NA,NA,NA,NA,NA
"PDS2014","LB","PDS2014-0007",NA,649,NA,NA,NA,"EPIC","Epithelial Cells","URINALYSIS",NA,"0",NA,NA,NA,"0",0,NA,NA,NA,NA,NA,NA,NA,NA,"URINE",NA,NA,NA,NA,NA,NA,NA,NA,NA,NA,NA,NA,NA,NA,NA,31,"2011-01-10T07:48:53",NA,31,NA,NA,NA,NA,NA,NA
"PDS2014","LB","PDS2014-0007",NA,650,NA,NA,NA,"GLOBUL","Globulin","URINALYSIS",NA,"1.97","g/dL",NA,NA,"1.97",1.97,"g/dL",NA,NA,NA,NA,NA,NA,NA,"URINE",NA,NA,NA,NA,NA,NA,NA,NA,NA,NA,NA,NA,NA,NA,NA,31,"2011-01-10T07:48:53",NA,31,NA,NA,NA,NA,NA,NA
"PDS2014","LB","PDS2014-0007",NA,651,NA,NA,NA,"CYBILI","Bilirubin Crystals","URINALYSIS",NA,"0",NA,NA,NA,"0",0,NA,NA,NA,NA,NA,NA,NA,NA,"URINE",NA,NA,NA,NA,NA,NA,NA,NA,NA,NA,NA,NA,NA,NA,NA,31,"2011-01-10T07:48:53",NA,31,NA,NA,NA,NA,NA,NA
"PDS2014","LB","PDS2014-0007",NA,652,NA,NA,NA,"VOLUME","Volume","URINALYSIS",NA,"11.6","mL",NA,NA,"11.6",11.6,"mL",NA,NA,NA,NA,NA,NA,NA,"URINE",NA,NA,NA,NA,NA,NA,NA,NA,NA,NA,NA,NA,NA,NA,NA,31,"2011-01-10T07:48:53",NA,31,NA,NA,NA,NA,NA,NA
"PDS2014","LB","PDS2014-0007",NA,653,NA,NA,NA,"CYCAOXA","Calcium Oxalate Crystals","URINALYSIS",NA,"0",NA,NA,NA,"0",0,NA,NA,NA,NA,NA,NA,NA,NA,"URINE",NA,NA,NA,NA,NA,NA,NA,NA,NA,NA,NA,NA,NA,NA,NA,31,"2011-01-10T07:48:53",NA,31,NA,NA,NA,NA,NA,NA
"PDS2014","LB","PDS2014-0007",NA,654,NA,NA,NA,"CASULPH","Calcium Sulphate","URINALYSIS",NA,"0",NA,NA,NA,"0",0,NA,NA,NA,NA,NA,NA,NA,NA,"URINE",NA,NA,NA,NA,NA,NA,NA,NA,NA,NA,NA,NA,NA,NA,NA,31,"2011-01-10T07:48:53",NA,31,NA,NA,NA,NA,NA,NA
"PDS2014","LB","PDS2014-0007",NA,655,NA,NA,NA,"AMORPHSD","Amorphous Sediment","URINALYSIS",NA,"0",NA,NA,NA,"0",0,NA,NA,NA,NA,NA,NA,NA,NA,"URINE",NA,NA,NA,NA,NA,NA,NA,NA,NA,NA,NA,NA,NA,NA,NA,31,"2011-01-10T07:48:53",NA,31,NA,NA,NA,NA,NA,NA
"PDS2014","LB","PDS2014-0007",NA,656,NA,NA,NA,"CYCAPHOS","Calcium Phosphate Crystals","URINALYSIS",NA,"0",NA,NA,NA,"0",0,NA,NA,NA,NA,NA,NA,NA,NA,"URINE",NA,NA,NA,NA,NA,NA,NA,NA,NA,NA,NA,NA,NA,NA,NA,31,"2011-01-10T07:48:53",NA,31,NA,NA,NA,NA,NA,NA
"PDS2014","LB","PDS2014-0007",NA,657,NA,NA,NA,"CYSTARCH","Starch Crystals","URINALYSIS",NA,"0",NA,NA,NA,"0",0,NA,NA,NA,NA,NA,NA,NA,NA,"URINE",NA,NA,NA,NA,NA,NA,NA,NA,NA,NA,NA,NA,NA,NA,NA,31,"2011-01-10T07:48:53",NA,31,NA,NA,NA,NA,NA,NA
"PDS2014","LB","PDS2014-0007",NA,658,NA,NA,NA,"FATDROP","Fat Droplet","URINALYSIS",NA,"0",NA,NA,NA,"0",0,NA,NA,NA,NA,NA,NA,NA,NA,"URINE",NA,NA,NA,NA,NA,NA,NA,NA,NA,NA,NA,NA,NA,NA,NA,31,"2011-01-10T07:48:53",NA,31,NA,NA,NA,NA,NA,NA
"PDS2014","LB","PDS2014-0007",NA,659,NA,NA,NA,"CSHYAL","Hyaline Casts","URINALYSIS",NA,"0",NA,NA,NA,"0",0,NA,NA,NA,NA,NA,NA,NA,NA,"URINE",NA,NA,NA,NA,NA,NA,NA,NA,NA,NA,NA,NA,NA,NA,NA,31,"2011-01-10T07:48:53",NA,31,NA,NA,NA,NA,NA,NA
"PDS2014","LB","PDS2014-0007",NA,660,NA,NA,NA,"CYURIAC","Uric Acid Crystals","URINALYSIS",NA,"0",NA,NA,NA,"0",0,NA,NA,NA,NA,NA,NA,NA,NA,"URINE",NA,NA,NA,NA,NA,NA,NA,NA,NA,NA,NA,NA,NA,NA,NA,31,"2011-01-10T07:48:53",NA,31,NA,NA,NA,NA,NA,NA
"PDS2014","LB","PDS2014-0007",NA,661,NA,NA,NA,"ALP","Alkaline Phosphatase","CLINICAL CHEMISTRY",NA,"181.4","U/L",NA,NA,"181.4",181.4,"U/L",NA,NA,NA,NA,NA,NA,NA,"SERUM",NA,NA,NA,NA,NA,NA,NA,NA,NA,NA,NA,NA,NA,NA,NA,31,"2011-01-10T08:05:38",NA,31,NA,NA,NA,NA,NA,NA
"PDS2014","LB","PDS2014-0007",NA,662,NA,NA,NA,"BUN","Blood Urea Nitrogen","CLINICAL CHEMISTRY",NA,"15.3","mg/dL",NA,NA,"15.3",15.3,"mg/dL",NA,NA,NA,NA,NA,NA,NA,"SERUM",NA,NA,NA,NA,NA,NA,NA,NA,NA,NA,NA,NA,NA,NA,NA,31,"2011-01-10T08:05:38",NA,31,NA,NA,NA,NA,NA,NA
"PDS2014","LB","PDS2014-0007",NA,663,NA,NA,NA,"AST","Aspartate Aminotransferase","CLINICAL CHEMISTRY",NA,"107.3","U/L",NA,NA,"107.3",107.3,"U/L",NA,NA,NA,NA,NA,NA,NA,"SERUM",NA,NA,NA,NA,NA,NA,NA,NA,NA,NA,NA,NA,NA,NA,NA,31,"2011-01-10T08:05:38",NA,31,NA,NA,NA,NA,NA,NA
"PDS2014","LB","PDS2014-0007",NA,664,NA,NA,NA,"TRIG","Triglycerides","CLINICAL CHEMISTRY",NA,"23.4","mg/dL",NA,NA,"23.4",23.4,"mg/dL",NA,NA,NA,NA,NA,NA,NA,"SERUM",NA,NA,NA,NA,NA,NA,NA,NA,NA,NA,NA,NA,NA,NA,NA,31,"2011-01-10T08:05:38",NA,31,NA,NA,NA,NA,NA,NA
"PDS2014","LB","PDS2014-0007",NA,665,NA,NA,NA,"GLOBUL","Globulin","CLINICAL CHEMISTRY",NA,"1.97","g/dL",NA,NA,"1.97",1.97,"g/dL",NA,NA,NA,NA,NA,NA,NA,"SERUM",NA,NA,NA,NA,NA,NA,NA,NA,NA,NA,NA,NA,NA,NA,NA,31,"2011-01-10T08:05:38",NA,31,NA,NA,NA,NA,NA,NA
"PDS2014","LB","PDS2014-0007",NA,666,NA,NA,NA,"ALBGLOB","Albumin/Globulin","CLINICAL CHEMISTRY",NA,"1.86","RATIO",NA,NA,"1.86",1.86,"RATIO",NA,NA,NA,NA,NA,NA,NA,"SERUM",NA,NA,NA,NA,NA,NA,NA,NA,NA,NA,NA,NA,NA,NA,NA,31,"2011-01-10T08:05:38",NA,31,NA,NA,NA,NA,NA,NA
"PDS2014","LB","PDS2014-0007",NA,667,NA,NA,NA,"CREAT","Creatinine","CLINICAL CHEMISTRY",NA,"0.23","mg/dL",NA,NA,"0.23",0.23,"mg/dL",NA,NA,NA,NA,NA,NA,NA,"SERUM",NA,NA,NA,NA,NA,NA,NA,NA,NA,NA,NA,NA,NA,NA,NA,31,"2011-01-10T08:05:38",NA,31,NA,NA,NA,NA,NA,NA
"PDS2014","LB","PDS2014-0007",NA,668,NA,NA,NA,"PROT","Protein","CLINICAL CHEMISTRY",NA,"5.63","g/dL",NA,NA,"5.63",5.63,"g/dL",NA,NA,NA,NA,NA,NA,NA,"SERUM",NA,NA,NA,NA,NA,NA,NA,NA,NA,NA,NA,NA,NA,NA,NA,31,"2011-01-10T08:05:38",NA,31,NA,NA,NA,NA,NA,NA
"PDS2014","LB","PDS2014-0007",NA,669,NA,NA,NA,"GLUC","Glucose","CLINICAL CHEMISTRY",NA,"94","mg/dL",NA,NA,"94",94,"mg/dL",NA,NA,NA,NA,NA,NA,NA,"SERUM",NA,NA,NA,NA,NA,NA,NA,NA,NA,NA,NA,NA,NA,NA,NA,31,"2011-01-10T08:05:38",NA,31,NA,NA,NA,NA,NA,NA
"PDS2014","LB","PDS2014-0007",NA,670,NA,NA,NA,"BILI","Bilirubin","CLINICAL CHEMISTRY",NA,"0.074","mg/dL",NA,NA,"0.074",0.074,"mg/dL",NA,NA,NA,NA,NA,NA,NA,"SERUM",NA,NA,NA,NA,NA,NA,NA,NA,NA,NA,NA,NA,NA,NA,NA,31,"2011-01-10T08:05:38",NA,31,NA,NA,NA,NA,NA,NA
"PDS2014","LB","PDS2014-0007",NA,671,NA,NA,NA,"CL","Chloride","CLINICAL CHEMISTRY",NA,"101.5","mmol/L",NA,NA,"101.5",101.5,"mmol/L",NA,NA,NA,NA,NA,NA,NA,"SERUM",NA,NA,NA,NA,NA,NA,NA,NA,NA,NA,NA,NA,NA,NA,NA,31,"2011-01-10T08:05:38",NA,31,NA,NA,NA,NA,NA,NA
"PDS2014","LB","PDS2014-0007",NA,672,NA,NA,NA,"ALT","Alanine Aminotransferase","CLINICAL CHEMISTRY",NA,"31.4","U/L",NA,NA,"31.4",31.4,"U/L",NA,NA,NA,NA,NA,NA,NA,"SERUM",NA,NA,NA,NA,NA,NA,NA,NA,NA,NA,NA,NA,NA,NA,NA,31,"2011-01-10T08:05:38",NA,31,NA,NA,NA,NA,NA,NA
"PDS2014","LB","PDS2014-0007",NA,673,NA,NA,NA,"K","Potassium","CLINICAL CHEMISTRY",NA,"5.62","mmol/L",NA,NA,"5.62",5.62,"mmol/L",NA,NA,NA,NA,NA,NA,NA,"SERUM",NA,NA,NA,NA,NA,NA,NA,NA,NA,NA,NA,NA,NA,NA,NA,31,"2011-01-10T08:05:38",NA,31,NA,NA,NA,NA,NA,NA
"PDS2014","LB","PDS2014-0007",NA,674,NA,NA,NA,"SODIUM","Sodium","CLINICAL CHEMISTRY",NA,"145","mmol/L",NA,NA,"145",145,"mmol/L",NA,NA,NA,NA,NA,NA,NA,"SERUM",NA,NA,NA,NA,NA,NA,NA,NA,NA,NA,NA,NA,NA,NA,NA,31,"2011-01-10T08:05:38",NA,31,NA,NA,NA,NA,NA,NA
"PDS2014","LB","PDS2014-0007",NA,675,NA,NA,NA,"GGT","Gamma Glutamyl Transferase","CLINICAL CHEMISTRY",NA,"LO","U/L",NA,NA,"LO",NA,"U/L",NA,NA,NA,NA,NA,NA,NA,"SERUM",NA,NA,NA,NA,NA,NA,NA,NA,NA,NA,NA,NA,NA,NA,NA,31,"2011-01-10T08:05:38",NA,31,NA,NA,NA,NA,NA,NA
"PDS2014","LB","PDS2014-0007",NA,676,NA,NA,NA,"CA","Calcium","CLINICAL CHEMISTRY",NA,"9.79","mg/dL",NA,NA,"9.79",9.79,"mg/dL",NA,NA,NA,NA,NA,NA,NA,"SERUM",NA,NA,NA,NA,NA,NA,NA,NA,NA,NA,NA,NA,NA,NA,NA,31,"2011-01-10T08:05:38",NA,31,NA,NA,NA,NA,NA,NA
"PDS2014","LB","PDS2014-0007",NA,677,NA,NA,NA,"PHOS","Phosphate","CLINICAL CHEMISTRY",NA,"8.01","mg/dL",NA,NA,"8.01",8.01,"mg/dL",NA,NA,NA,NA,NA,NA,NA,"SERUM",NA,NA,NA,NA,NA,NA,NA,NA,NA,NA,NA,NA,NA,NA,NA,31,"2011-01-10T08:05:38",NA,31,NA,NA,NA,NA,NA,NA
"PDS2014","LB","PDS2014-0007",NA,678,NA,NA,NA,"CHOL","Cholesterol","CLINICAL CHEMISTRY",NA,"37","mg/dL",NA,NA,"37",37,"mg/dL",NA,NA,NA,NA,NA,NA,NA,"SERUM",NA,NA,NA,NA,NA,NA,NA,NA,NA,NA,NA,NA,NA,NA,NA,31,"2011-01-10T08:05:38",NA,31,NA,NA,NA,NA,NA,NA
"PDS2014","LB","PDS2014-0007",NA,679,NA,NA,NA,"ALB","Albumin","CLINICAL CHEMISTRY",NA,"3.66","g/dL",NA,NA,"3.66",3.66,"g/dL",NA,NA,NA,NA,NA,NA,NA,"SERUM",NA,NA,NA,NA,NA,NA,NA,NA,NA,NA,NA,NA,NA,NA,NA,31,"2011-01-10T08:05:38",NA,31,NA,NA,NA,NA,NA,NA
"PDS2014","LB","PDS2014-0008",NA,680,NA,NA,NA,"GLOBUL","Globulin","COAGULATION",NA,"2.02","g/dL",NA,NA,"2.02",2.02,"g/dL",NA,NA,NA,NA,NA,NA,NA,"PLASMA",NA,NA,NA,NA,NA,NA,NA,NA,NA,NA,NA,NA,NA,NA,NA,31,"2011-01-10T08:06:34",NA,31,NA,NA,NA,NA,NA,NA
"PDS2014","LB","PDS2014-0008",NA,681,NA,NA,NA,"APTT","Activated Partial Thromboplastin Time","COAGULATION",NA,"16.4","sec",NA,NA,"16.4",16.4,"sec",NA,NA,NA,NA,NA,NA,NA,"PLASMA",NA,NA,NA,NA,NA,NA,NA,NA,NA,NA,NA,NA,NA,NA,NA,31,"2011-01-10T08:06:34",NA,31,NA,NA,NA,NA,NA,NA
"PDS2014","LB","PDS2014-0008",NA,682,NA,NA,NA,"ALBGLOB","Albumin/Globulin","COAGULATION",NA,"1.71","RATIO",NA,NA,"1.71",1.71,"RATIO",NA,NA,NA,NA,NA,NA,NA,"PLASMA",NA,NA,NA,NA,NA,NA,NA,NA,NA,NA,NA,NA,NA,NA,NA,31,"2011-01-10T08:06:34",NA,31,NA,NA,NA,NA,NA,NA
"PDS2014","LB","PDS2014-0008",NA,683,NA,NA,NA,"PT","Prothrombin Time","COAGULATION",NA,"13.7","sec",NA,NA,"13.7",13.7,"sec",NA,NA,NA,NA,NA,NA,NA,"PLASMA",NA,NA,NA,NA,NA,NA,NA,NA,NA,NA,NA,NA,NA,NA,NA,31,"2011-01-10T08:06:34",NA,31,NA,NA,NA,NA,NA,NA
"PDS2014","LB","PDS2014-0008",NA,684,NA,NA,NA,"FIBRINO","Fibrinogen","COAGULATION",NA,"169","mg/dL",NA,NA,"169",169,"mg/dL",NA,NA,NA,NA,NA,NA,NA,"PLASMA",NA,NA,NA,NA,NA,NA,NA,NA,NA,NA,NA,NA,NA,NA,NA,31,"2011-01-10T08:06:34",NA,31,NA,NA,NA,NA,NA,NA
"PDS2014","LB","PDS2014-0008",NA,685,NA,NA,NA,"FATACFR","Free Fatty Acid","CLINICAL CHEMISTRY",NA,"0.68","mmol/L",NA,NA,"0.68",0.68,"mmol/L",NA,NA,NA,NA,NA,NA,NA,"SERUM",NA,NA,NA,NA,NA,NA,NA,NA,NA,NA,NA,NA,NA,NA,NA,31,"2011-01-10T10:09:38",NA,31,NA,NA,NA,NA,NA,NA
"PDS2014","LB","PDS2014-0008",NA,686,NA,NA,NA,"LGLUCLE","Large Unstained Cells/Leukocytes","HEMATOLOGY",NA,"0.6","%",NA,NA,"0.6",0.6,"%",NA,NA,NA,NA,NA,NA,NA,"WHOLE BLOOD",NA,NA,NA,NA,NA,NA,NA,NA,NA,NA,NA,NA,NA,NA,NA,31,"2011-01-10T08:06:41",NA,31,NA,NA,NA,NA,NA,NA
"PDS2014","LB","PDS2014-0008",NA,687,NA,NA,NA,"WBC","Leukocytes","HEMATOLOGY",NA,"7.72","10^9/L",NA,NA,"7.72",7.72,"10^9/L",NA,NA,NA,NA,NA,NA,NA,"WHOLE BLOOD",NA,NA,NA,NA,NA,NA,NA,NA,NA,NA,NA,NA,NA,NA,NA,31,"2011-01-10T08:06:41",NA,31,NA,NA,NA,NA,NA,NA
"PDS2014","LB","PDS2014-0008",NA,688,NA,NA,NA,"GLOBUL","Globulin","HEMATOLOGY",NA,"2.02","g/dL",NA,NA,"2.02",2.02,"g/dL",NA,NA,NA,NA,NA,NA,NA,"WHOLE BLOOD",NA,NA,NA,NA,NA,NA,NA,NA,NA,NA,NA,NA,NA,NA,NA,31,"2011-01-10T08:06:41",NA,31,NA,NA,NA,NA,NA,NA
"PDS2014","LB","PDS2014-0008",NA,689,NA,NA,NA,"ALBGLOB","Albumin/Globulin","HEMATOLOGY",NA,"1.71","RATIO",NA,NA,"1.71",1.71,"RATIO",NA,NA,NA,NA,NA,NA,NA,"WHOLE BLOOD",NA,NA,NA,NA,NA,NA,NA,NA,NA,NA,NA,NA,NA,NA,NA,31,"2011-01-10T08:06:41",NA,31,NA,NA,NA,NA,NA,NA
"PDS2014","LB","PDS2014-0008",NA,690,NA,NA,NA,"NEUT","Neutrophils","HEMATOLOGY",NA,"1.04","10^9/L",NA,NA,"1.04",1.04,"10^9/L",NA,NA,NA,NA,NA,NA,NA,"WHOLE BLOOD",NA,NA,NA,NA,NA,NA,NA,NA,NA,NA,NA,NA,NA,NA,NA,31,"2011-01-10T08:06:41",NA,31,NA,NA,NA,NA,NA,NA
"PDS2014","LB","PDS2014-0008",NA,691,NA,NA,NA,"MCH","Ery. Mean Corpuscular Hemoglobin","HEMATOLOGY",NA,"18.8","pg",NA,NA,"18.8",18.8,"pg",NA,NA,NA,NA,NA,NA,NA,"WHOLE BLOOD",NA,NA,NA,NA,NA,NA,NA,NA,NA,NA,NA,NA,NA,NA,NA,31,"2011-01-10T08:06:41",NA,31,NA,NA,NA,NA,NA,NA
"PDS2014","LB","PDS2014-0008",NA,692,NA,NA,NA,"MACROCY","Macrocytes","HEMATOLOGY",NA,"0",NA,NA,NA,"0",0,NA,NA,NA,NA,NA,NA,NA,NA,"WHOLE BLOOD",NA,NA,NA,NA,NA,NA,NA,NA,NA,NA,NA,NA,NA,NA,NA,31,"2011-01-10T08:06:41",NA,31,NA,NA,NA,NA,NA,NA
"PDS2014","LB","PDS2014-0008",NA,693,NA,NA,NA,"MCHC","Ery. Mean Corpuscular HGB Concentration","HEMATOLOGY",NA,"32.7","g/dL",NA,NA,"32.7",32.7,"g/dL",NA,NA,NA,NA,NA,NA,NA,"WHOLE BLOOD",NA,NA,NA,NA,NA,NA,NA,NA,NA,NA,NA,NA,NA,NA,NA,31,"2011-01-10T08:06:41",NA,31,NA,NA,NA,NA,NA,NA
"PDS2014","LB","PDS2014-0008",NA,694,NA,NA,NA,"LGUNSCE","Large Unstained Cells","HEMATOLOGY",NA,"0.04","10^9/L",NA,NA,"0.04",0.04,"10^9/L",NA,NA,NA,NA,NA,NA,NA,"WHOLE BLOOD",NA,NA,NA,NA,NA,NA,NA,NA,NA,NA,NA,NA,NA,NA,NA,31,"2011-01-10T08:06:41",NA,31,NA,NA,NA,NA,NA,NA
"PDS2014","LB","PDS2014-0008",NA,695,NA,NA,NA,"PLATLRG","Large Platelets","HEMATOLOGY",NA,"0",NA,NA,NA,"0",0,NA,NA,NA,NA,NA,NA,NA,NA,"WHOLE BLOOD",NA,NA,NA,NA,NA,NA,NA,NA,NA,NA,NA,NA,NA,NA,NA,31,"2011-01-10T08:06:41",NA,31,NA,NA,NA,NA,NA,NA
"PDS2014","LB","PDS2014-0008",NA,696,NA,NA,NA,"RETIRBC","Reticulocytes/Erythrocytes","HEMATOLOGY",NA,"4.1","%",NA,NA,"4.1",4.1,"%",NA,NA,NA,NA,NA,NA,NA,"WHOLE BLOOD",NA,NA,NA,NA,NA,NA,NA,NA,NA,NA,NA,NA,NA,NA,NA,31,"2011-01-10T08:06:41",NA,31,NA,NA,NA,NA,NA,NA
"PDS2014","LB","PDS2014-0008",NA,697,NA,NA,NA,"EOSCE","Eosinophils/Total Cells","HEMATOLOGY",NA,"1.8","%",NA,NA,"1.8",1.8,"%",NA,NA,NA,NA,NA,NA,NA,"WHOLE BLOOD",NA,NA,NA,NA,NA,NA,NA,NA,NA,NA,NA,NA,NA,NA,NA,31,"2011-01-10T08:06:41",NA,31,NA,NA,NA,NA,NA,NA
"PDS2014","LB","PDS2014-0008",NA,698,NA,NA,NA,"NEUTCE","Neutrophils/Total Cells","HEMATOLOGY",NA,"13.4","%",NA,NA,"13.4",13.4,"%",NA,NA,NA,NA,NA,NA,NA,"WHOLE BLOOD",NA,NA,NA,NA,NA,NA,NA,NA,NA,NA,NA,NA,NA,NA,NA,31,"2011-01-10T08:06:41",NA,31,NA,NA,NA,NA,NA,NA
"PDS2014","LB","PDS2014-0008",NA,699,NA,NA,NA,"MONOCE","Monocytes/Total Cells","HEMATOLOGY",NA,"1.5","%",NA,NA,"1.5",1.5,"%",NA,NA,NA,NA,NA,NA,NA,"WHOLE BLOOD",NA,NA,NA,NA,NA,NA,NA,NA,NA,NA,NA,NA,NA,NA,NA,31,"2011-01-10T08:06:41",NA,31,NA,NA,NA,NA,NA,NA
"PDS2014","LB","PDS2014-0008",NA,700,NA,NA,NA,"RDW","Erythrocytes Distribution Width","HEMATOLOGY",NA,"12.5","%",NA,NA,"12.5",12.5,"%",NA,NA,NA,NA,NA,NA,NA,"WHOLE BLOOD",NA,NA,NA,NA,NA,NA,NA,NA,NA,NA,NA,NA,NA,NA,NA,31,"2011-01-10T08:06:41",NA,31,NA,NA,NA,NA,NA,NA
"PDS2014","LB","PDS2014-0008",NA,701,NA,NA,NA,"LYM","Lymphocytes","HEMATOLOGY",NA,"6.35","10^9/L",NA,NA,"6.35",6.35,"10^9/L",NA,NA,NA,NA,NA,NA,NA,"WHOLE BLOOD",NA,NA,NA,NA,NA,NA,NA,NA,NA,NA,NA,NA,NA,NA,NA,31,"2011-01-10T08:06:41",NA,31,NA,NA,NA,NA,NA,NA
"PDS2014","LB","PDS2014-0008",NA,702,NA,NA,NA,"MICROCY","Microcytes","HEMATOLOGY",NA,"0",NA,NA,NA,"0",0,NA,NA,NA,NA,NA,NA,NA,NA,"WHOLE BLOOD",NA,NA,NA,NA,NA,NA,NA,NA,NA,NA,NA,NA,NA,NA,NA,31,"2011-01-10T08:06:41",NA,31,NA,NA,NA,NA,NA,NA
"PDS2014","LB","PDS2014-0008",NA,703,NA,NA,NA,"HYPERCHR","Hyperchromia","HEMATOLOGY",NA,"0",NA,NA,NA,"0",0,NA,NA,NA,NA,NA,NA,NA,NA,"WHOLE BLOOD",NA,NA,NA,NA,NA,NA,NA,NA,NA,NA,NA,NA,NA,NA,NA,31,"2011-01-10T08:06:41",NA,31,NA,NA,NA,NA,NA,NA
"PDS2014","LB","PDS2014-0008",NA,704,NA,NA,NA,"RETI","Reticulocytes","HEMATOLOGY",NA,"300","10^9/L",NA,NA,"300",300,"10^9/L",NA,NA,NA,NA,NA,NA,NA,"WHOLE BLOOD",NA,NA,NA,NA,NA,NA,NA,NA,NA,NA,NA,NA,NA,NA,NA,31,"2011-01-10T08:06:41",NA,31,NA,NA,NA,NA,NA,NA
"PDS2014","LB","PDS2014-0008",NA,705,NA,NA,NA,"LYMCE","Lymphocytes/Total Cells","HEMATOLOGY",NA,"82.2","%",NA,NA,"82.2",82.2,"%",NA,NA,NA,NA,NA,NA,NA,"WHOLE BLOOD",NA,NA,NA,NA,NA,NA,NA,NA,NA,NA,NA,NA,NA,NA,NA,31,"2011-01-10T08:06:41",NA,31,NA,NA,NA,NA,NA,NA
"PDS2014","LB","PDS2014-0008",NA,706,NA,NA,NA,"BASOCE","Basophils/Total Cells","HEMATOLOGY",NA,"0.5","%",NA,NA,"0.5",0.5,"%",NA,NA,NA,NA,NA,NA,NA,"WHOLE BLOOD",NA,NA,NA,NA,NA,NA,NA,NA,NA,NA,NA,NA,NA,NA,NA,31,"2011-01-10T08:06:41",NA,31,NA,NA,NA,NA,NA,NA
"PDS2014","LB","PDS2014-0008",NA,707,NA,NA,NA,"MCV","Ery. Mean Corpuscular Volume","HEMATOLOGY",NA,"56.4","fL",NA,NA,"56.4",56.4,"fL",NA,NA,NA,NA,NA,NA,NA,"WHOLE BLOOD",NA,NA,NA,NA,NA,NA,NA,NA,NA,NA,NA,NA,NA,NA,NA,31,"2011-01-10T08:06:41",NA,31,NA,NA,NA,NA,NA,NA
"PDS2014","LB","PDS2014-0008",NA,708,NA,NA,NA,"RBCNUCLE","Nucleated Erythrocytes/Leukocytes","HEMATOLOGY",NA,"NE","%",NA,NA,"NE",NA,"%",NA,NA,NA,NA,NA,NA,NA,"WHOLE BLOOD",NA,NA,NA,NA,NA,NA,NA,NA,NA,NA,NA,NA,NA,NA,NA,31,"2011-01-10T08:06:41",NA,31,NA,NA,NA,NA,NA,NA
"PDS2014","LB","PDS2014-0008",NA,709,NA,NA,NA,"PLATCLMP","Platelet Clumps","HEMATOLOGY",NA,"0",NA,NA,NA,"0",0,NA,NA,NA,NA,NA,NA,NA,NA,"WHOLE BLOOD",NA,NA,NA,NA,NA,NA,NA,NA,NA,NA,NA,NA,NA,NA,NA,31,"2011-01-10T08:06:41",NA,31,NA,NA,NA,NA,NA,NA
"PDS2014","LB","PDS2014-0008",NA,710,NA,NA,NA,"HCT","Hematocrit","HEMATOLOGY",NA,"41.2","%",NA,NA,"41.2",41.2,"%",NA,NA,NA,NA,NA,NA,NA,"WHOLE BLOOD",NA,NA,NA,NA,NA,NA,NA,NA,NA,NA,NA,NA,NA,NA,NA,31,"2011-01-10T08:06:41",NA,31,NA,NA,NA,NA,NA,NA
"PDS2014","LB","PDS2014-0008",NA,711,NA,NA,NA,"BASO","Basophils","HEMATOLOGY",NA,"0.04","10^9/L",NA,NA,"0.04",0.04,"10^9/L",NA,NA,NA,NA,NA,NA,NA,"WHOLE BLOOD",NA,NA,NA,NA,NA,NA,NA,NA,NA,NA,NA,NA,NA,NA,NA,31,"2011-01-10T08:06:41",NA,31,NA,NA,NA,NA,NA,NA
"PDS2014","LB","PDS2014-0008",NA,712,NA,NA,NA,"HGB","Hemoglobin","HEMATOLOGY",NA,"13.7","g/dL",NA,NA,"13.7",13.7,"g/dL",NA,NA,NA,NA,NA,NA,NA,"WHOLE BLOOD",NA,NA,NA,NA,NA,NA,NA,NA,NA,NA,NA,NA,NA,NA,NA,31,"2011-01-10T08:06:41",NA,31,NA,NA,NA,NA,NA,NA
"PDS2014","LB","PDS2014-0008",NA,713,NA,NA,NA,"RBC","Erythrocytes","HEMATOLOGY",NA,"7.29","10^12/L",NA,NA,"7.29",7.29,"10^12/L",NA,NA,NA,NA,NA,NA,NA,"WHOLE BLOOD",NA,NA,NA,NA,NA,NA,NA,NA,NA,NA,NA,NA,NA,NA,NA,31,"2011-01-10T08:06:41",NA,31,NA,NA,NA,NA,NA,NA
"PDS2014","LB","PDS2014-0008",NA,714,NA,NA,NA,"EOS","Eosinophils","HEMATOLOGY",NA,"0.14","10^9/L",NA,NA,"0.14",0.14,"10^9/L",NA,NA,NA,NA,NA,NA,NA,"WHOLE BLOOD",NA,NA,NA,NA,NA,NA,NA,NA,NA,NA,NA,NA,NA,NA,NA,31,"2011-01-10T08:06:41",NA,31,NA,NA,NA,NA,NA,NA
"PDS2014","LB","PDS2014-0008",NA,715,NA,NA,NA,"HPOCROM","Hypochromia","HEMATOLOGY",NA,"0",NA,NA,NA,"0",0,NA,NA,NA,NA,NA,NA,NA,NA,"WHOLE BLOOD",NA,NA,NA,NA,NA,NA,NA,NA,NA,NA,NA,NA,NA,NA,NA,31,"2011-01-10T08:06:41",NA,31,NA,NA,NA,NA,NA,NA
"PDS2014","LB","PDS2014-0008",NA,716,NA,NA,NA,"PLAT","Platelets","HEMATOLOGY",NA,"1074","10^9/L",NA,NA,"1074",1074,"10^9/L",NA,NA,NA,NA,NA,NA,NA,"WHOLE BLOOD",NA,NA,NA,NA,NA,NA,NA,NA,NA,NA,NA,NA,NA,NA,NA,31,"2011-01-10T08:06:41",NA,31,NA,NA,NA,NA,NA,NA
"PDS2014","LB","PDS2014-0008",NA,717,NA,NA,NA,"MONO","Monocytes","HEMATOLOGY",NA,"0.12","10^9/L",NA,NA,"0.12",0.12,"10^9/L",NA,NA,NA,NA,NA,NA,NA,"WHOLE BLOOD",NA,NA,NA,NA,NA,NA,NA,NA,NA,NA,NA,NA,NA,NA,NA,31,"2011-01-10T08:06:41",NA,31,NA,NA,NA,NA,NA,NA
"PDS2014","LB","PDS2014-0008",NA,718,NA,NA,NA,"ANISO","Anisocytes","HEMATOLOGY",NA,"0",NA,NA,NA,"0",0,NA,NA,NA,NA,NA,NA,NA,NA,"WHOLE BLOOD",NA,NA,NA,NA,NA,NA,NA,NA,NA,NA,NA,NA,NA,NA,NA,31,"2011-01-10T08:06:41",NA,31,NA,NA,NA,NA,NA,NA
"PDS2014","LB","PDS2014-0008",NA,719,NA,NA,NA,"GLUC","Glucose","URINALYSIS",NA,"NORM",NA,NA,NA,"NORM",NA,NA,NA,NA,NA,NA,NA,NA,NA,"URINE",NA,NA,NA,NA,NA,NA,NA,NA,NA,NA,NA,NA,NA,NA,NA,31,"2011-01-10T07:48:58",NA,31,NA,NA,NA,NA,NA,NA
"PDS2014","LB","PDS2014-0008",NA,720,NA,NA,NA,"PH","pH","URINALYSIS",NA,"6.4",NA,NA,NA,"6.4",6.4,NA,NA,NA,NA,NA,NA,NA,NA,"URINE",NA,NA,NA,NA,NA,NA,NA,NA,NA,NA,NA,NA,NA,NA,NA,31,"2011-01-10T07:48:58",NA,31,NA,NA,NA,NA,NA,NA
"PDS2014","LB","PDS2014-0008",NA,721,NA,NA,NA,"PROT","Protein","URINALYSIS",NA,"75","mg/dL",NA,NA,"75",75,"mg/dL",NA,NA,NA,NA,NA,NA,NA,"URINE",NA,NA,NA,NA,NA,NA,NA,NA,NA,NA,NA,NA,NA,NA,NA,31,"2011-01-10T07:48:58",NA,31,NA,NA,NA,NA,NA,NA
"PDS2014","LB","PDS2014-0008",NA,722,NA,NA,NA,"KETONES","Ketones","URINALYSIS",NA,"50","mg/dL",NA,NA,"50",50,"mg/dL",NA,NA,NA,NA,NA,NA,NA,"URINE",NA,NA,NA,NA,NA,NA,NA,NA,NA,NA,NA,NA,NA,NA,NA,31,"2011-01-10T07:48:58",NA,31,NA,NA,NA,NA,NA,NA
"PDS2014","LB","PDS2014-0008",NA,723,NA,NA,NA,"VOLUME","Volume","URINALYSIS",NA,"3.6","mL",NA,NA,"3.6",3.6,"mL",NA,NA,NA,NA,NA,NA,NA,"URINE",NA,NA,NA,NA,NA,NA,NA,NA,NA,NA,NA,NA,NA,NA,NA,31,"2011-01-10T07:48:58",NA,31,NA,NA,NA,NA,NA,NA
"PDS2014","LB","PDS2014-0008",NA,724,NA,NA,NA,"CLARITY","Clarity","URINALYSIS",NA,"TURBD",NA,NA,NA,"TURBD",NA,NA,NA,NA,NA,NA,NA,NA,NA,"URINE",NA,NA,NA,NA,NA,NA,NA,NA,NA,NA,NA,NA,NA,NA,NA,31,"2011-01-10T07:48:58",NA,31,NA,NA,NA,NA,NA,NA
"PDS2014","LB","PDS2014-0008",NA,725,NA,NA,NA,"COLOR","Color","URINALYSIS",NA,"YELLO",NA,NA,NA,"YELLO",NA,NA,NA,NA,NA,NA,NA,NA,NA,"URINE",NA,NA,NA,NA,NA,NA,NA,NA,NA,NA,NA,NA,NA,NA,NA,31,"2011-01-10T07:48:58",NA,31,NA,NA,NA,NA,NA,NA
"PDS2014","LB","PDS2014-0008",NA,726,NA,NA,NA,"SPGRAV","Specific Gravity","URINALYSIS",NA,"1.05","RATIO",NA,NA,"1.05",1.05,"RATIO",NA,NA,NA,NA,NA,NA,NA,"URINE",NA,NA,NA,NA,NA,NA,NA,NA,NA,NA,NA,NA,NA,NA,NA,31,"2011-01-10T07:48:58",NA,31,NA,NA,NA,NA,NA,NA
"PDS2014","LB","PDS2014-0008",NA,727,NA,NA,NA,"OCCBLD","Occult Blood","URINALYSIS",NA,"25","/uL",NA,NA,"25",25,"/uL",NA,NA,NA,NA,NA,NA,NA,"URINE",NA,NA,NA,NA,NA,NA,NA,NA,NA,NA,NA,NA,NA,NA,NA,31,"2011-01-10T07:48:58",NA,31,NA,NA,NA,NA,NA,NA
"PDS2014","LB","PDS2014-0008",NA,728,NA,NA,NA,"CYTYRO","Tyrosine Crystals","URINALYSIS",NA,"IS",NA,NA,NA,"IS",NA,NA,NA,NA,NA,NA,NA,NA,NA,"URINE",NA,NA,NA,NA,NA,NA,NA,NA,NA,NA,NA,NA,NA,NA,NA,31,"2011-01-10T07:48:58",NA,31,NA,NA,NA,NA,NA,NA
"PDS2014","LB","PDS2014-0008",NA,729,NA,NA,NA,"CYCHOL","Cholesterol Crystals","URINALYSIS",NA,"IS",NA,NA,NA,"IS",NA,NA,NA,NA,NA,NA,NA,NA,NA,"URINE",NA,NA,NA,NA,NA,NA,NA,NA,NA,NA,NA,NA,NA,NA,NA,31,"2011-01-10T07:48:58",NA,31,NA,NA,NA,NA,NA,NA
"PDS2014","LB","PDS2014-0008",NA,730,NA,NA,NA,"CSWAX","Waxy Casts","URINALYSIS",NA,"IS",NA,NA,NA,"IS",NA,NA,NA,NA,NA,NA,NA,NA,NA,"URINE",NA,NA,NA,NA,NA,NA,NA,NA,NA,NA,NA,NA,NA,NA,NA,31,"2011-01-10T07:48:58",NA,31,NA,NA,NA,NA,NA,NA
"PDS2014","LB","PDS2014-0008",NA,731,NA,NA,NA,"FATDROP","Fat Droplet","URINALYSIS",NA,"IS",NA,NA,NA,"IS",NA,NA,NA,NA,NA,NA,NA,NA,NA,"URINE",NA,NA,NA,NA,NA,NA,NA,NA,NA,NA,NA,NA,NA,NA,NA,31,"2011-01-10T07:48:58",NA,31,NA,NA,NA,NA,NA,NA
"PDS2014","LB","PDS2014-0008",NA,732,NA,NA,NA,"CSGRAN","Granular Casts","URINALYSIS",NA,"IS",NA,NA,NA,"IS",NA,NA,NA,NA,NA,NA,NA,NA,NA,"URINE",NA,NA,NA,NA,NA,NA,NA,NA,NA,NA,NA,NA,NA,NA,NA,31,"2011-01-10T07:48:58",NA,31,NA,NA,NA,NA,NA,NA
"PDS2014","LB","PDS2014-0008",NA,733,NA,NA,NA,"CSFAT","Fatty Casts","URINALYSIS",NA,"IS",NA,NA,NA,"IS",NA,NA,NA,NA,NA,NA,NA,NA,NA,"URINE",NA,NA,NA,NA,NA,NA,NA,NA,NA,NA,NA,NA,NA,NA,NA,31,"2011-01-10T07:48:58",NA,31,NA,NA,NA,NA,NA,NA
"PDS2014","LB","PDS2014-0008",NA,734,NA,NA,NA,"CSHYAL","Hyaline Casts","URINALYSIS",NA,"IS",NA,NA,NA,"IS",NA,NA,NA,NA,NA,NA,NA,NA,NA,"URINE",NA,NA,NA,NA,NA,NA,NA,NA,NA,NA,NA,NA,NA,NA,NA,31,"2011-01-10T07:48:58",NA,31,NA,NA,NA,NA,NA,NA
"PDS2014","LB","PDS2014-0008",NA,735,NA,NA,NA,"CSWBC","WBC Casts","URINALYSIS",NA,"IS",NA,NA,NA,"IS",NA,NA,NA,NA,NA,NA,NA,NA,NA,"URINE",NA,NA,NA,NA,NA,NA,NA,NA,NA,NA,NA,NA,NA,NA,NA,31,"2011-01-10T07:48:58",NA,31,NA,NA,NA,NA,NA,NA
"PDS2014","LB","PDS2014-0008",NA,736,NA,NA,NA,"ALBGLOB","Albumin/Globulin","URINALYSIS",NA,"1.71","RATIO",NA,NA,"1.71",1.71,"RATIO",NA,NA,NA,NA,NA,NA,NA,"URINE",NA,NA,NA,NA,NA,NA,NA,NA,NA,NA,NA,NA,NA,NA,NA,31,"2011-01-10T07:48:58",NA,31,NA,NA,NA,NA,NA,NA
"PDS2014","LB","PDS2014-0008",NA,737,NA,NA,NA,"CSEPI","Epithelial Casts","URINALYSIS",NA,"IS",NA,NA,NA,"IS",NA,NA,NA,NA,NA,NA,NA,NA,NA,"URINE",NA,NA,NA,NA,NA,NA,NA,NA,NA,NA,NA,NA,NA,NA,NA,31,"2011-01-10T07:48:58",NA,31,NA,NA,NA,NA,NA,NA
"PDS2014","LB","PDS2014-0008",NA,738,NA,NA,NA,"GLOBUL","Globulin","URINALYSIS",NA,"2.02","g/dL",NA,NA,"2.02",2.02,"g/dL",NA,NA,NA,NA,NA,NA,NA,"URINE",NA,NA,NA,NA,NA,NA,NA,NA,NA,NA,NA,NA,NA,NA,NA,31,"2011-01-10T07:48:58",NA,31,NA,NA,NA,NA,NA,NA
"PDS2014","LB","PDS2014-0008",NA,739,NA,NA,NA,"CSRBC","RBC Casts","URINALYSIS",NA,"IS",NA,NA,NA,"IS",NA,NA,NA,NA,NA,NA,NA,NA,NA,"URINE",NA,NA,NA,NA,NA,NA,NA,NA,NA,NA,NA,NA,NA,NA,NA,31,"2011-01-10T07:48:58",NA,31,NA,NA,NA,NA,NA,NA
"PDS2014","LB","PDS2014-0008",NA,740,NA,NA,NA,"SPERM","Spermatozoa","URINALYSIS",NA,"IS",NA,NA,NA,"IS",NA,NA,NA,NA,NA,NA,NA,NA,NA,"URINE",NA,NA,NA,NA,NA,NA,NA,NA,NA,NA,NA,NA,NA,NA,NA,31,"2011-01-10T07:48:58",NA,31,NA,NA,NA,NA,NA,NA
"PDS2014","LB","PDS2014-0008",NA,741,NA,NA,NA,"BACT","Bacteria","URINALYSIS",NA,"IS",NA,NA,NA,"IS",NA,NA,NA,NA,NA,NA,NA,NA,NA,"URINE",NA,NA,NA,NA,NA,NA,NA,NA,NA,NA,NA,NA,NA,NA,NA,31,"2011-01-10T07:48:58",NA,31,NA,NA,NA,NA,NA,NA
"PDS2014","LB","PDS2014-0008",NA,742,NA,NA,NA,"CYBILI","Bilirubin Crystals","URINALYSIS",NA,"IS",NA,NA,NA,"IS",NA,NA,NA,NA,NA,NA,NA,NA,NA,"URINE",NA,NA,NA,NA,NA,NA,NA,NA,NA,NA,NA,NA,NA,NA,NA,31,"2011-01-10T07:48:58",NA,31,NA,NA,NA,NA,NA,NA
"PDS2014","LB","PDS2014-0008",NA,743,NA,NA,NA,"CYURIAC","Uric Acid Crystals","URINALYSIS",NA,"IS",NA,NA,NA,"IS",NA,NA,NA,NA,NA,NA,NA,NA,NA,"URINE",NA,NA,NA,NA,NA,NA,NA,NA,NA,NA,NA,NA,NA,NA,NA,31,"2011-01-10T07:48:58",NA,31,NA,NA,NA,NA,NA,NA
"PDS2014","LB","PDS2014-0008",NA,744,NA,NA,NA,"CYCAPHOS","Calcium Phosphate Crystals","URINALYSIS",NA,"IS",NA,NA,NA,"IS",NA,NA,NA,NA,NA,NA,NA,NA,NA,"URINE",NA,NA,NA,NA,NA,NA,NA,NA,NA,NA,NA,NA,NA,NA,NA,31,"2011-01-10T07:48:58",NA,31,NA,NA,NA,NA,NA,NA
"PDS2014","LB","PDS2014-0008",NA,745,NA,NA,NA,"RBC","Erythrocytes","URINALYSIS",NA,"IS",NA,NA,NA,"IS",NA,NA,NA,NA,NA,NA,NA,NA,NA,"URINE",NA,NA,NA,NA,NA,NA,NA,NA,NA,NA,NA,NA,NA,NA,NA,31,"2011-01-10T07:48:58",NA,31,NA,NA,NA,NA,NA,NA
"PDS2014","LB","PDS2014-0008",NA,746,NA,NA,NA,"AMORPHSD","Amorphous Sediment","URINALYSIS",NA,"IS",NA,NA,NA,"IS",NA,NA,NA,NA,NA,NA,NA,NA,NA,"URINE",NA,NA,NA,NA,NA,NA,NA,NA,NA,NA,NA,NA,NA,NA,NA,31,"2011-01-10T07:48:58",NA,31,NA,NA,NA,NA,NA,NA
"PDS2014","LB","PDS2014-0008",NA,747,NA,NA,NA,"WBC","Leukocytes","URINALYSIS",NA,"IS",NA,NA,NA,"IS",NA,NA,NA,NA,NA,NA,NA,NA,NA,"URINE",NA,NA,NA,NA,NA,NA,NA,NA,NA,NA,NA,NA,NA,NA,NA,31,"2011-01-10T07:48:58",NA,31,NA,NA,NA,NA,NA,NA
"PDS2014","LB","PDS2014-0008",NA,748,NA,NA,NA,"CYCACAR","Calcium Carbonate Crystals","URINALYSIS",NA,"IS",NA,NA,NA,"IS",NA,NA,NA,NA,NA,NA,NA,NA,NA,"URINE",NA,NA,NA,NA,NA,NA,NA,NA,NA,NA,NA,NA,NA,NA,NA,31,"2011-01-10T07:48:58",NA,31,NA,NA,NA,NA,NA,NA
"PDS2014","LB","PDS2014-0008",NA,749,NA,NA,NA,"CYCAOXA","Calcium Oxalate Crystals","URINALYSIS",NA,"IS",NA,NA,NA,"IS",NA,NA,NA,NA,NA,NA,NA,NA,NA,"URINE",NA,NA,NA,NA,NA,NA,NA,NA,NA,NA,NA,NA,NA,NA,NA,31,"2011-01-10T07:48:58",NA,31,NA,NA,NA,NA,NA,NA
"PDS2014","LB","PDS2014-0008",NA,750,NA,NA,NA,"EPISQCE","Squamous Epithelial Cells","URINALYSIS",NA,"IS",NA,NA,NA,"IS",NA,NA,NA,NA,NA,NA,NA,NA,NA,"URINE",NA,NA,NA,NA,NA,NA,NA,NA,NA,NA,NA,NA,NA,NA,NA,31,"2011-01-10T07:48:58",NA,31,NA,NA,NA,NA,NA,NA
"PDS2014","LB","PDS2014-0008",NA,751,NA,NA,NA,"CYSTARCH","Starch Crystals","URINALYSIS",NA,"IS",NA,NA,NA,"IS",NA,NA,NA,NA,NA,NA,NA,NA,NA,"URINE",NA,NA,NA,NA,NA,NA,NA,NA,NA,NA,NA,NA,NA,NA,NA,31,"2011-01-10T07:48:58",NA,31,NA,NA,NA,NA,NA,NA
"PDS2014","LB","PDS2014-0008",NA,752,NA,NA,NA,"EPIC","Epithelial Cells","URINALYSIS",NA,"IS",NA,NA,NA,"IS",NA,NA,NA,NA,NA,NA,NA,NA,NA,"URINE",NA,NA,NA,NA,NA,NA,NA,NA,NA,NA,NA,NA,NA,NA,NA,31,"2011-01-10T07:48:58",NA,31,NA,NA,NA,NA,NA,NA
"PDS2014","LB","PDS2014-0008",NA,753,NA,NA,NA,"EPITUCE","Tubular Epithelial Cells","URINALYSIS",NA,"IS",NA,NA,NA,"IS",NA,NA,NA,NA,NA,NA,NA,NA,NA,"URINE",NA,NA,NA,NA,NA,NA,NA,NA,NA,NA,NA,NA,NA,NA,NA,31,"2011-01-10T07:48:58",NA,31,NA,NA,NA,NA,NA,NA
"PDS2014","LB","PDS2014-0008",NA,754,NA,NA,NA,"CASULPH","Calcium Sulphate","URINALYSIS",NA,"IS",NA,NA,NA,"IS",NA,NA,NA,NA,NA,NA,NA,NA,NA,"URINE",NA,NA,NA,NA,NA,NA,NA,NA,NA,NA,NA,NA,NA,NA,NA,31,"2011-01-10T07:48:58",NA,31,NA,NA,NA,NA,NA,NA
"PDS2014","LB","PDS2014-0008",NA,755,NA,NA,NA,"CYTRPHOS","Triple Phosphate Crystals","URINALYSIS",NA,"IS",NA,NA,NA,"IS",NA,NA,NA,NA,NA,NA,NA,NA,NA,"URINE",NA,NA,NA,NA,NA,NA,NA,NA,NA,NA,NA,NA,NA,NA,NA,31,"2011-01-10T07:48:58",NA,31,NA,NA,NA,NA,NA,NA
"PDS2014","LB","PDS2014-0008",NA,756,NA,NA,NA,"YEAST","Yeast Cells","URINALYSIS",NA,"IS",NA,NA,NA,"IS",NA,NA,NA,NA,NA,NA,NA,NA,NA,"URINE",NA,NA,NA,NA,NA,NA,NA,NA,NA,NA,NA,NA,NA,NA,NA,31,"2011-01-10T07:48:58",NA,31,NA,NA,NA,NA,NA,NA
"PDS2014","LB","PDS2014-0008",NA,757,NA,NA,NA,"CYCYSTIN","Cystine Crystals","URINALYSIS",NA,"IS",NA,NA,NA,"IS",NA,NA,NA,NA,NA,NA,NA,NA,NA,"URINE",NA,NA,NA,NA,NA,NA,NA,NA,NA,NA,NA,NA,NA,NA,NA,31,"2011-01-10T07:48:58",NA,31,NA,NA,NA,NA,NA,NA
"PDS2014","LB","PDS2014-0008",NA,758,NA,NA,NA,"CL","Chloride","CLINICAL CHEMISTRY",NA,"105","mmol/L",NA,NA,"105",105,"mmol/L",NA,NA,NA,NA,NA,NA,NA,"SERUM",NA,NA,NA,NA,NA,NA,NA,NA,NA,NA,NA,NA,NA,NA,NA,31,"2011-01-10T08:06:38",NA,31,NA,NA,NA,NA,NA,NA
"PDS2014","LB","PDS2014-0008",NA,759,NA,NA,NA,"ALP","Alkaline Phosphatase","CLINICAL CHEMISTRY",NA,"103.9","U/L",NA,NA,"103.9",103.9,"U/L",NA,NA,NA,NA,NA,NA,NA,"SERUM",NA,NA,NA,NA,NA,NA,NA,NA,NA,NA,NA,NA,NA,NA,NA,31,"2011-01-10T08:06:38",NA,31,NA,NA,NA,NA,NA,NA
"PDS2014","LB","PDS2014-0008",NA,760,NA,NA,NA,"GLUC","Glucose","CLINICAL CHEMISTRY",NA,"113","mg/dL",NA,NA,"113",113,"mg/dL",NA,NA,NA,NA,NA,NA,NA,"SERUM",NA,NA,NA,NA,NA,NA,NA,NA,NA,NA,NA,NA,NA,NA,NA,31,"2011-01-10T08:06:38",NA,31,NA,NA,NA,NA,NA,NA
"PDS2014","LB","PDS2014-0008",NA,761,NA,NA,NA,"CHOL","Cholesterol","CLINICAL CHEMISTRY",NA,"51","mg/dL",NA,NA,"51",51,"mg/dL",NA,NA,NA,NA,NA,NA,NA,"SERUM",NA,NA,NA,NA,NA,NA,NA,NA,NA,NA,NA,NA,NA,NA,NA,31,"2011-01-10T08:06:38",NA,31,NA,NA,NA,NA,NA,NA
"PDS2014","LB","PDS2014-0008",NA,762,NA,NA,NA,"AST","Aspartate Aminotransferase","CLINICAL CHEMISTRY",NA,"134.9","U/L",NA,NA,"134.9",134.9,"U/L",NA,NA,NA,NA,NA,NA,NA,"SERUM",NA,NA,NA,NA,NA,NA,NA,NA,NA,NA,NA,NA,NA,NA,NA,31,"2011-01-10T08:06:38",NA,31,NA,NA,NA,NA,NA,NA
"PDS2014","LB","PDS2014-0008",NA,763,NA,NA,NA,"CA","Calcium","CLINICAL CHEMISTRY",NA,"10.02","mg/dL",NA,NA,"10.02",10.02,"mg/dL",NA,NA,NA,NA,NA,NA,NA,"SERUM",NA,NA,NA,NA,NA,NA,NA,NA,NA,NA,NA,NA,NA,NA,NA,31,"2011-01-10T08:06:38",NA,31,NA,NA,NA,NA,NA,NA
"PDS2014","LB","PDS2014-0008",NA,764,NA,NA,NA,"GLOBUL","Globulin","CLINICAL CHEMISTRY",NA,"2.02","g/dL",NA,NA,"2.02",2.02,"g/dL",NA,NA,NA,NA,NA,NA,NA,"SERUM",NA,NA,NA,NA,NA,NA,NA,NA,NA,NA,NA,NA,NA,NA,NA,31,"2011-01-10T08:06:38",NA,31,NA,NA,NA,NA,NA,NA
"PDS2014","LB","PDS2014-0008",NA,765,NA,NA,NA,"BUN","Blood Urea Nitrogen","CLINICAL CHEMISTRY",NA,"14.9","mg/dL",NA,NA,"14.9",14.9,"mg/dL",NA,NA,NA,NA,NA,NA,NA,"SERUM",NA,NA,NA,NA,NA,NA,NA,NA,NA,NA,NA,NA,NA,NA,NA,31,"2011-01-10T08:06:38",NA,31,NA,NA,NA,NA,NA,NA
"PDS2014","LB","PDS2014-0008",NA,766,NA,NA,NA,"PHOS","Phosphate","CLINICAL CHEMISTRY",NA,"7","mg/dL",NA,NA,"7",7,"mg/dL",NA,NA,NA,NA,NA,NA,NA,"SERUM",NA,NA,NA,NA,NA,NA,NA,NA,NA,NA,NA,NA,NA,NA,NA,31,"2011-01-10T08:06:38",NA,31,NA,NA,NA,NA,NA,NA
"PDS2014","LB","PDS2014-0008",NA,767,NA,NA,NA,"TRIG","Triglycerides","CLINICAL CHEMISTRY",NA,"31","mg/dL",NA,NA,"31",31,"mg/dL",NA,NA,NA,NA,NA,NA,NA,"SERUM",NA,NA,NA,NA,NA,NA,NA,NA,NA,NA,NA,NA,NA,NA,NA,31,"2011-01-10T08:06:38",NA,31,NA,NA,NA,NA,NA,NA
"PDS2014","LB","PDS2014-0008",NA,768,NA,NA,NA,"K","Potassium","CLINICAL CHEMISTRY",NA,"4.98","mmol/L",NA,NA,"4.98",4.98,"mmol/L",NA,NA,NA,NA,NA,NA,NA,"SERUM",NA,NA,NA,NA,NA,NA,NA,NA,NA,NA,NA,NA,NA,NA,NA,31,"2011-01-10T08:06:38",NA,31,NA,NA,NA,NA,NA,NA
"PDS2014","LB","PDS2014-0008",NA,769,NA,NA,NA,"PROT","Protein","CLINICAL CHEMISTRY",NA,"5.48","g/dL",NA,NA,"5.48",5.48,"g/dL",NA,NA,NA,NA,NA,NA,NA,"SERUM",NA,NA,NA,NA,NA,NA,NA,NA,NA,NA,NA,NA,NA,NA,NA,31,"2011-01-10T08:06:38",NA,31,NA,NA,NA,NA,NA,NA
"PDS2014","LB","PDS2014-0008",NA,770,NA,NA,NA,"SODIUM","Sodium","CLINICAL CHEMISTRY",NA,"145","mmol/L",NA,NA,"145",145,"mmol/L",NA,NA,NA,NA,NA,NA,NA,"SERUM",NA,NA,NA,NA,NA,NA,NA,NA,NA,NA,NA,NA,NA,NA,NA,31,"2011-01-10T08:06:38",NA,31,NA,NA,NA,NA,NA,NA
"PDS2014","LB","PDS2014-0008",NA,771,NA,NA,NA,"CREAT","Creatinine","CLINICAL CHEMISTRY",NA,"0.24","mg/dL",NA,NA,"0.24",0.24,"mg/dL",NA,NA,NA,NA,NA,NA,NA,"SERUM",NA,NA,NA,NA,NA,NA,NA,NA,NA,NA,NA,NA,NA,NA,NA,31,"2011-01-10T08:06:38",NA,31,NA,NA,NA,NA,NA,NA
"PDS2014","LB","PDS2014-0008",NA,772,NA,NA,NA,"BILI","Bilirubin","CLINICAL CHEMISTRY",NA,"0.048","mg/dL",NA,NA,"0.048",0.048,"mg/dL",NA,NA,NA,NA,NA,NA,NA,"SERUM",NA,NA,NA,NA,NA,NA,NA,NA,NA,NA,NA,NA,NA,NA,NA,31,"2011-01-10T08:06:38",NA,31,NA,NA,NA,NA,NA,NA
"PDS2014","LB","PDS2014-0008",NA,773,NA,NA,NA,"ALB","Albumin","CLINICAL CHEMISTRY",NA,"3.46","g/dL",NA,NA,"3.46",3.46,"g/dL",NA,NA,NA,NA,NA,NA,NA,"SERUM",NA,NA,NA,NA,NA,NA,NA,NA,NA,NA,NA,NA,NA,NA,NA,31,"2011-01-10T08:06:38",NA,31,NA,NA,NA,NA,NA,NA
"PDS2014","LB","PDS2014-0008",NA,774,NA,NA,NA,"ALT","Alanine Aminotransferase","CLINICAL CHEMISTRY",NA,"28.4","U/L",NA,NA,"28.4",28.4,"U/L",NA,NA,NA,NA,NA,NA,NA,"SERUM",NA,NA,NA,NA,NA,NA,NA,NA,NA,NA,NA,NA,NA,NA,NA,31,"2011-01-10T08:06:38",NA,31,NA,NA,NA,NA,NA,NA
"PDS2014","LB","PDS2014-0008",NA,775,NA,NA,NA,"GGT","Gamma Glutamyl Transferase","CLINICAL CHEMISTRY",NA,"LO","U/L",NA,NA,"LO",NA,"U/L",NA,NA,NA,NA,NA,NA,NA,"SERUM",NA,NA,NA,NA,NA,NA,NA,NA,NA,NA,NA,NA,NA,NA,NA,31,"2011-01-10T08:06:38",NA,31,NA,NA,NA,NA,NA,NA
"PDS2014","LB","PDS2014-0008",NA,776,NA,NA,NA,"ALBGLOB","Albumin/Globulin","CLINICAL CHEMISTRY",NA,"1.71","RATIO",NA,NA,"1.71",1.71,"RATIO",NA,NA,NA,NA,NA,NA,NA,"SERUM",NA,NA,NA,NA,NA,NA,NA,NA,NA,NA,NA,NA,NA,NA,NA,31,"2011-01-10T08:06:38",NA,31,NA,NA,NA,NA,NA,NA
"PDS2014","LB","PDS2014-0009",NA,777,NA,NA,NA,"ALBGLOB","Albumin/Globulin","COAGULATION",NA,"2.15","RATIO",NA,NA,"2.15",2.15,"RATIO",NA,NA,NA,NA,NA,NA,NA,"PLASMA",NA,NA,NA,NA,NA,NA,NA,NA,NA,NA,NA,NA,NA,NA,NA,31,"2011-01-10T08:08:01",NA,31,NA,NA,NA,NA,NA,NA
"PDS2014","LB","PDS2014-0009",NA,778,NA,NA,NA,"PT","Prothrombin Time","COAGULATION",NA,"13.1","sec",NA,NA,"13.1",13.1,"sec",NA,NA,NA,NA,NA,NA,NA,"PLASMA",NA,NA,NA,NA,NA,NA,NA,NA,NA,NA,NA,NA,NA,NA,NA,31,"2011-01-10T08:08:01",NA,31,NA,NA,NA,NA,NA,NA
"PDS2014","LB","PDS2014-0009",NA,779,NA,NA,NA,"GLOBUL","Globulin","COAGULATION",NA,"1.75","g/dL",NA,NA,"1.75",1.75,"g/dL",NA,NA,NA,NA,NA,NA,NA,"PLASMA",NA,NA,NA,NA,NA,NA,NA,NA,NA,NA,NA,NA,NA,NA,NA,31,"2011-01-10T08:08:01",NA,31,NA,NA,NA,NA,NA,NA
"PDS2014","LB","PDS2014-0009",NA,780,NA,NA,NA,"APTT","Activated Partial Thromboplastin Time","COAGULATION",NA,"14","sec",NA,NA,"14",14,"sec",NA,NA,NA,NA,NA,NA,NA,"PLASMA",NA,NA,NA,NA,NA,NA,NA,NA,NA,NA,NA,NA,NA,NA,NA,31,"2011-01-10T08:08:01",NA,31,NA,NA,NA,NA,NA,NA
"PDS2014","LB","PDS2014-0009",NA,781,NA,NA,NA,"FIBRINO","Fibrinogen","COAGULATION",NA,"155","mg/dL",NA,NA,"155",155,"mg/dL",NA,NA,NA,NA,NA,NA,NA,"PLASMA",NA,NA,NA,NA,NA,NA,NA,NA,NA,NA,NA,NA,NA,NA,NA,31,"2011-01-10T08:08:01",NA,31,NA,NA,NA,NA,NA,NA
"PDS2014","LB","PDS2014-0009",NA,782,NA,NA,NA,"FATACFR","Free Fatty Acid","CLINICAL CHEMISTRY",NA,"0.68","mmol/L",NA,NA,"0.68",0.68,"mmol/L",NA,NA,NA,NA,NA,NA,NA,"SERUM",NA,NA,NA,NA,NA,NA,NA,NA,NA,NA,NA,NA,NA,NA,NA,31,"2011-01-10T13:34:06",NA,31,NA,NA,NA,NA,NA,NA
"PDS2014","LB","PDS2014-0009",NA,783,NA,NA,NA,"RETI","Reticulocytes","HEMATOLOGY",NA,"184.3","10^9/L",NA,NA,"184.3",184.3,"10^9/L",NA,NA,NA,NA,NA,NA,NA,"WHOLE BLOOD",NA,NA,NA,NA,NA,NA,NA,NA,NA,NA,NA,NA,NA,NA,NA,31,"2011-01-10T08:07:53",NA,31,NA,NA,NA,NA,NA,NA
"PDS2014","LB","PDS2014-0009",NA,784,NA,NA,NA,"LYMCE","Lymphocytes/Total Cells","HEMATOLOGY",NA,"78.9","%",NA,NA,"78.9",78.9,"%",NA,NA,NA,NA,NA,NA,NA,"WHOLE BLOOD",NA,NA,NA,NA,NA,NA,NA,NA,NA,NA,NA,NA,NA,NA,NA,31,"2011-01-10T08:07:53",NA,31,NA,NA,NA,NA,NA,NA
"PDS2014","LB","PDS2014-0009",NA,785,NA,NA,NA,"GLOBUL","Globulin","HEMATOLOGY",NA,"1.75","g/dL",NA,NA,"1.75",1.75,"g/dL",NA,NA,NA,NA,NA,NA,NA,"WHOLE BLOOD",NA,NA,NA,NA,NA,NA,NA,NA,NA,NA,NA,NA,NA,NA,NA,31,"2011-01-10T08:07:53",NA,31,NA,NA,NA,NA,NA,NA
"PDS2014","LB","PDS2014-0009",NA,786,NA,NA,NA,"LGUNSCE","Large Unstained Cells","HEMATOLOGY",NA,"0.02","10^9/L",NA,NA,"0.02",0.02,"10^9/L",NA,NA,NA,NA,NA,NA,NA,"WHOLE BLOOD",NA,NA,NA,NA,NA,NA,NA,NA,NA,NA,NA,NA,NA,NA,NA,31,"2011-01-10T08:07:53",NA,31,NA,NA,NA,NA,NA,NA
"PDS2014","LB","PDS2014-0009",NA,787,NA,NA,NA,"MCV","Ery. Mean Corpuscular Volume","HEMATOLOGY",NA,"53.5","fL",NA,NA,"53.5",53.5,"fL",NA,NA,NA,NA,NA,NA,NA,"WHOLE BLOOD",NA,NA,NA,NA,NA,NA,NA,NA,NA,NA,NA,NA,NA,NA,NA,31,"2011-01-10T08:07:53",NA,31,NA,NA,NA,NA,NA,NA
"PDS2014","LB","PDS2014-0009",NA,788,NA,NA,NA,"MICROCY","Microcytes","HEMATOLOGY",NA,"0",NA,NA,NA,"0",0,NA,NA,NA,NA,NA,NA,NA,NA,"WHOLE BLOOD",NA,NA,NA,NA,NA,NA,NA,NA,NA,NA,NA,NA,NA,NA,NA,31,"2011-01-10T08:07:53",NA,31,NA,NA,NA,NA,NA,NA
"PDS2014","LB","PDS2014-0009",NA,789,NA,NA,NA,"NEUTCE","Neutrophils/Total Cells","HEMATOLOGY",NA,"17.7","%",NA,NA,"17.7",17.7,"%",NA,NA,NA,NA,NA,NA,NA,"WHOLE BLOOD",NA,NA,NA,NA,NA,NA,NA,NA,NA,NA,NA,NA,NA,NA,NA,31,"2011-01-10T08:07:53",NA,31,NA,NA,NA,NA,NA,NA
"PDS2014","LB","PDS2014-0009",NA,790,NA,NA,NA,"MCH","Ery. Mean Corpuscular Hemoglobin","HEMATOLOGY",NA,"18.4","pg",NA,NA,"18.4",18.4,"pg",NA,NA,NA,NA,NA,NA,NA,"WHOLE BLOOD",NA,NA,NA,NA,NA,NA,NA,NA,NA,NA,NA,NA,NA,NA,NA,31,"2011-01-10T08:07:53",NA,31,NA,NA,NA,NA,NA,NA
"PDS2014","LB","PDS2014-0009",NA,791,NA,NA,NA,"BASOCE","Basophils/Total Cells","HEMATOLOGY",NA,"0.3","%",NA,NA,"0.3",0.3,"%",NA,NA,NA,NA,NA,NA,NA,"WHOLE BLOOD",NA,NA,NA,NA,NA,NA,NA,NA,NA,NA,NA,NA,NA,NA,NA,31,"2011-01-10T08:07:53",NA,31,NA,NA,NA,NA,NA,NA
"PDS2014","LB","PDS2014-0009",NA,792,NA,NA,NA,"ALBGLOB","Albumin/Globulin","HEMATOLOGY",NA,"2.15","RATIO",NA,NA,"2.15",2.15,"RATIO",NA,NA,NA,NA,NA,NA,NA,"WHOLE BLOOD",NA,NA,NA,NA,NA,NA,NA,NA,NA,NA,NA,NA,NA,NA,NA,31,"2011-01-10T08:07:53",NA,31,NA,NA,NA,NA,NA,NA
"PDS2014","LB","PDS2014-0009",NA,793,NA,NA,NA,"RBC","Erythrocytes","HEMATOLOGY",NA,"8.27","10^12/L",NA,NA,"8.27",8.27,"10^12/L",NA,NA,NA,NA,NA,NA,NA,"WHOLE BLOOD",NA,NA,NA,NA,NA,NA,NA,NA,NA,NA,NA,NA,NA,NA,NA,31,"2011-01-10T08:07:53",NA,31,NA,NA,NA,NA,NA,NA
"PDS2014","LB","PDS2014-0009",NA,794,NA,NA,NA,"RBCNUCLE","Nucleated Erythrocytes/Leukocytes","HEMATOLOGY",NA,"NE","%",NA,NA,"NE",NA,"%",NA,NA,NA,NA,NA,NA,NA,"WHOLE BLOOD",NA,NA,NA,NA,NA,NA,NA,NA,NA,NA,NA,NA,NA,NA,NA,31,"2011-01-10T08:07:53",NA,31,NA,NA,NA,NA,NA,NA
"PDS2014","LB","PDS2014-0009",NA,795,NA,NA,NA,"LGLUCLE","Large Unstained Cells/Leukocytes","HEMATOLOGY",NA,"0.3","%",NA,NA,"0.3",0.3,"%",NA,NA,NA,NA,NA,NA,NA,"WHOLE BLOOD",NA,NA,NA,NA,NA,NA,NA,NA,NA,NA,NA,NA,NA,NA,NA,31,"2011-01-10T08:07:53",NA,31,NA,NA,NA,NA,NA,NA
"PDS2014","LB","PDS2014-0009",NA,796,NA,NA,NA,"HPOCROM","Hypochromia","HEMATOLOGY",NA,"0",NA,NA,NA,"0",0,NA,NA,NA,NA,NA,NA,NA,NA,"WHOLE BLOOD",NA,NA,NA,NA,NA,NA,NA,NA,NA,NA,NA,NA,NA,NA,NA,31,"2011-01-10T08:07:53",NA,31,NA,NA,NA,NA,NA,NA
"PDS2014","LB","PDS2014-0009",NA,797,NA,NA,NA,"MONOCE","Monocytes/Total Cells","HEMATOLOGY",NA,"2","%",NA,NA,"2",2,"%",NA,NA,NA,NA,NA,NA,NA,"WHOLE BLOOD",NA,NA,NA,NA,NA,NA,NA,NA,NA,NA,NA,NA,NA,NA,NA,31,"2011-01-10T08:07:53",NA,31,NA,NA,NA,NA,NA,NA
"PDS2014","LB","PDS2014-0009",NA,798,NA,NA,NA,"HGB","Hemoglobin","HEMATOLOGY",NA,"15.2","g/dL",NA,NA,"15.2",15.2,"g/dL",NA,NA,NA,NA,NA,NA,NA,"WHOLE BLOOD",NA,NA,NA,NA,NA,NA,NA,NA,NA,NA,NA,NA,NA,NA,NA,31,"2011-01-10T08:07:53",NA,31,NA,NA,NA,NA,NA,NA
"PDS2014","LB","PDS2014-0009",NA,799,NA,NA,NA,"EOSCE","Eosinophils/Total Cells","HEMATOLOGY",NA,"0.8","%",NA,NA,"0.8",0.8,"%",NA,NA,NA,NA,NA,NA,NA,"WHOLE BLOOD",NA,NA,NA,NA,NA,NA,NA,NA,NA,NA,NA,NA,NA,NA,NA,31,"2011-01-10T08:07:53",NA,31,NA,NA,NA,NA,NA,NA
"PDS2014","LB","PDS2014-0009",NA,800,NA,NA,NA,"MONO","Monocytes","HEMATOLOGY",NA,"0.18","10^9/L",NA,NA,"0.18",0.18,"10^9/L",NA,NA,NA,NA,NA,NA,NA,"WHOLE BLOOD",NA,NA,NA,NA,NA,NA,NA,NA,NA,NA,NA,NA,NA,NA,NA,31,"2011-01-10T08:07:53",NA,31,NA,NA,NA,NA,NA,NA
"PDS2014","LB","PDS2014-0009",NA,801,NA,NA,NA,"MCHC","Ery. Mean Corpuscular HGB Concentration","HEMATOLOGY",NA,"33.8","g/dL",NA,NA,"33.8",33.8,"g/dL",NA,NA,NA,NA,NA,NA,NA,"WHOLE BLOOD",NA,NA,NA,NA,NA,NA,NA,NA,NA,NA,NA,NA,NA,NA,NA,31,"2011-01-10T08:07:53",NA,31,NA,NA,NA,NA,NA,NA
"PDS2014","LB","PDS2014-0009",NA,802,NA,NA,NA,"BASO","Basophils","HEMATOLOGY",NA,"0.03","10^9/L",NA,NA,"0.03",0.03,"10^9/L",NA,NA,NA,NA,NA,NA,NA,"WHOLE BLOOD",NA,NA,NA,NA,NA,NA,NA,NA,NA,NA,NA,NA,NA,NA,NA,31,"2011-01-10T08:07:53",NA,31,NA,NA,NA,NA,NA,NA
"PDS2014","LB","PDS2014-0009",NA,803,NA,NA,NA,"RETIRBC","Reticulocytes/Erythrocytes","HEMATOLOGY",NA,"2.2","%",NA,NA,"2.2",2.2,"%",NA,NA,NA,NA,NA,NA,NA,"WHOLE BLOOD",NA,NA,NA,NA,NA,NA,NA,NA,NA,NA,NA,NA,NA,NA,NA,31,"2011-01-10T08:07:53",NA,31,NA,NA,NA,NA,NA,NA
