"STUDYID","DOMAIN","USUBJID","MASEQ","MAGRPID","MAREFID","MASPID","MATESTCD","MATEST","MABODSYS","MAORRES","MASTRESC","MASTAT","MAREASND","MANAM","MASPEC","MAANTREG","MASPCCND","MASPCUFL","MALAT","MADIR","MAPORTOT","MAEVAL","MASEV","MADTHREL","MADTC","MADY"
"PDS2014","MA","PDS2014-0001",1,NA,NA,NA,"GROSPATH","Gross Pathological Examination",NA,"frozen sample (co2-ice)","frozen sample (co2-ice)",NA,NA,NA,"LIVER",NA,NA,NA,NA,NA,NA,"SUPERVISING PATHOLOGIST",NA,NA,"2011-01-09T09:59:00",30
"PDS2014","MA","PDS2014-0001",2,NA,NA,NA,"GROSPATH","Gross Pathological Examination",NA,"frozen sample (liquid nitrogen)","frozen sample (liquid nitrogen)",NA,NA,NA,"LIVER",NA,NA,NA,NA,NA,NA,"SUPERVISING PATHOLOGIST",NA,NA,"2011-01-09T09:59:00",30
"PDS2014","MA","PDS2014-0001",3,NA,NA,NA,"GROSPATH","Gross Pathological Examination",NA,"NORMAL","NORMAL",NA,NA,NA,"NERVE, SCIATIC",NA,NA,NA,NA,NA,NA,"SUPERVISING PATHOLOGIST",NA,NA,"2011-01-09T09:59:00",30
"PDS2014","MA","PDS2014-0001",4,NA,NA,NA,"GROSPATH","Gross Pathological Examination",NA,"NORMAL","NORMAL",NA,NA,NA,"MUSCLE, QUADRICEPS FEMORIS",NA,NA,NA,NA,NA,NA,"SUPERVISING PATHOLOGIST",NA,NA,"2011-01-09T09:59:00",30
"PDS2014","MA","PDS2014-0001",5,NA,NA,NA,"GROSPATH","Gross Pathological Examination",NA,"NORMAL","NORMAL",NA,NA,NA,"GLAND, SALIVARY, PAROTID",NA,NA,NA,NA,NA,NA,"SUPERVISING PATHOLOGIST",NA,NA,"2011-01-09T09:59:00",30
"PDS2014","MA","PDS2014-0001",6,NA,NA,NA,"GROSPATH","Gross Pathological Examination",NA,"NORMAL","NORMAL",NA,NA,NA,"GLAND, THYROID",NA,NA,NA,NA,NA,NA,"SUPERVISING PATHOLOGIST",NA,NA,"2011-01-09T09:59:00",30
"PDS2014","MA","PDS2014-0001",7,NA,NA,NA,"GROSPATH","Gross Pathological Examination",NA,"NORMAL","NORMAL",NA,NA,NA,"GLAND, PARATHYROID",NA,NA,NA,NA,NA,NA,"SUPERVISING PATHOLOGIST",NA,NA,"2011-01-09T09:59:00",30
"PDS2014","MA","PDS2014-0001",8,NA,NA,NA,"GROSPATH","Gross Pathological Examination",NA,"NORMAL","NORMAL",NA,NA,NA,"LARYNX",NA,NA,NA,NA,NA,NA,"SUPERVISING PATHOLOGIST",NA,NA,"2011-01-09T09:59:00",30
"PDS2014","MA","PDS2014-0001",9,NA,NA,NA,"GROSPATH","Gross Pathological Examination",NA,"NORMAL","NORMAL",NA,NA,NA,"BRAIN",NA,NA,NA,NA,NA,NA,"SUPERVISING PATHOLOGIST",NA,NA,"2011-01-09T09:59:00",30
"PDS2014","MA","PDS2014-0001",10,NA,NA,NA,"GROSPATH","Gross Pathological Examination",NA,"NORMAL","NORMAL",NA,NA,NA,"GLAND, PITUITARY",NA,NA,NA,NA,NA,NA,"SUPERVISING PATHOLOGIST",NA,NA,"2011-01-09T09:59:00",30
"PDS2014","MA","PDS2014-0001",11,NA,NA,NA,"GROSPATH","Gross Pathological Examination",NA,"NORMAL","NORMAL",NA,NA,NA,"EYE",NA,NA,NA,NA,NA,NA,"SUPERVISING PATHOLOGIST",NA,NA,"2011-01-09T09:59:00",30
"PDS2014","MA","PDS2014-0001",12,NA,NA,NA,"GROSPATH","Gross Pathological Examination",NA,"NORMAL","NORMAL",NA,NA,NA,"GLAND, HARDERIAN",NA,NA,NA,NA,NA,NA,"SUPERVISING PATHOLOGIST",NA,NA,"2011-01-09T09:59:00",30
"PDS2014","MA","PDS2014-0001",13,NA,NA,NA,"GROSPATH","Gross Pathological Examination",NA,"NORMAL","NORMAL",NA,NA,NA,"NOSE",NA,NA,NA,NA,NA,NA,"SUPERVISING PATHOLOGIST",NA,NA,"2011-01-09T09:59:00",30
"PDS2014","MA","PDS2014-0001",14,NA,NA,NA,"GROSPATH","Gross Pathological Examination",NA,"NORMAL","NORMAL",NA,NA,NA,"TONGUE",NA,NA,NA,NA,NA,NA,"SUPERVISING PATHOLOGIST",NA,NA,"2011-01-09T09:59:00",30
"PDS2014","MA","PDS2014-0001",15,NA,NA,NA,"GROSPATH","Gross Pathological Examination",NA,"NORMAL","NORMAL",NA,NA,NA,"SKIN",NA,NA,NA,NA,NA,NA,"SUPERVISING PATHOLOGIST",NA,NA,"2011-01-09T09:59:00",30
"PDS2014","MA","PDS2014-0001",16,NA,NA,NA,"GROSPATH","Gross Pathological Examination",NA,"NORMAL","NORMAL",NA,NA,NA,"GLAND, PREPUTIAL",NA,NA,NA,NA,NA,NA,"SUPERVISING PATHOLOGIST",NA,NA,"2011-01-09T09:59:00",30
"PDS2014","MA","PDS2014-0001",17,NA,NA,NA,"GROSPATH","Gross Pathological Examination",NA,"NORMAL","NORMAL",NA,NA,NA,"GLAND, MAMMARY",NA,NA,NA,NA,NA,NA,"SUPERVISING PATHOLOGIST",NA,NA,"2011-01-09T09:59:00",30
"PDS2014","MA","PDS2014-0001",18,NA,NA,NA,"GROSPATH","Gross Pathological Examination",NA,"NORMAL","NORMAL",NA,NA,NA,"BONE MARROW, STERNUM",NA,NA,NA,NA,NA,NA,"SUPERVISING PATHOLOGIST",NA,NA,"2011-01-09T09:59:00",30
"PDS2014","MA","PDS2014-0001",19,NA,NA,NA,"GROSPATH","Gross Pathological Examination",NA,"NORMAL","NORMAL",NA,NA,NA,"THYMUS",NA,NA,NA,NA,NA,NA,"SUPERVISING PATHOLOGIST",NA,NA,"2011-01-09T09:59:00",30
"PDS2014","MA","PDS2014-0001",20,NA,NA,NA,"GROSPATH","Gross Pathological Examination",NA,"NORMAL","NORMAL",NA,NA,NA,"HEART",NA,NA,NA,NA,NA,NA,"SUPERVISING PATHOLOGIST",NA,NA,"2011-01-09T09:59:00",30
"PDS2014","MA","PDS2014-0001",21,NA,NA,NA,"GROSPATH","Gross Pathological Examination",NA,"NORMAL","NORMAL",NA,NA,NA,"TRACHEA",NA,NA,NA,NA,NA,NA,"SUPERVISING PATHOLOGIST",NA,NA,"2011-01-09T09:59:00",30
"PDS2014","MA","PDS2014-0001",22,NA,NA,NA,"GROSPATH","Gross Pathological Examination",NA,"NORMAL","NORMAL",NA,NA,NA,"LUNG",NA,NA,NA,NA,NA,NA,"SUPERVISING PATHOLOGIST",NA,NA,"2011-01-09T09:59:00",30
"PDS2014","MA","PDS2014-0001",23,NA,NA,NA,"GROSPATH","Gross Pathological Examination",NA,"NORMAL","NORMAL",NA,NA,NA,"ESOPHAGUS",NA,NA,NA,NA,NA,NA,"SUPERVISING PATHOLOGIST",NA,NA,"2011-01-09T09:59:00",30
"PDS2014","MA","PDS2014-0001",24,NA,NA,NA,"GROSPATH","Gross Pathological Examination",NA,"NORMAL","NORMAL",NA,NA,NA,"ARTERY, AORTA",NA,NA,NA,NA,NA,NA,"SUPERVISING PATHOLOGIST",NA,NA,"2011-01-09T09:59:00",30
"PDS2014","MA","PDS2014-0001",25,NA,NA,NA,"GROSPATH","Gross Pathological Examination",NA,"NORMAL","NORMAL",NA,NA,NA,"SPLEEN",NA,NA,NA,NA,NA,NA,"SUPERVISING PATHOLOGIST",NA,NA,"2011-01-09T09:59:00",30
"PDS2014","MA","PDS2014-0001",26,NA,NA,NA,"GROSPATH","Gross Pathological Examination",NA,"NORMAL","NORMAL",NA,NA,NA,"PANCREAS",NA,NA,NA,NA,NA,NA,"SUPERVISING PATHOLOGIST",NA,NA,"2011-01-09T09:59:00",30
"PDS2014","MA","PDS2014-0001",27,NA,NA,NA,"GROSPATH","Gross Pathological Examination",NA,"NORMAL","NORMAL",NA,NA,NA,"STOMACH",NA,NA,NA,NA,NA,NA,"SUPERVISING PATHOLOGIST",NA,NA,"2011-01-09T09:59:00",30
"PDS2014","MA","PDS2014-0001",28,NA,NA,NA,"GROSPATH","Gross Pathological Examination",NA,"NORMAL","NORMAL",NA,NA,NA,"SMALL INTESTINE, DUODENUM",NA,NA,NA,NA,NA,NA,"SUPERVISING PATHOLOGIST",NA,NA,"2011-01-09T09:59:00",30
"PDS2014","MA","PDS2014-0001",29,NA,NA,NA,"GROSPATH","Gross Pathological Examination",NA,"NORMAL","NORMAL",NA,NA,NA,"SMALL INTESTINE, JEJUNUM",NA,NA,NA,NA,NA,NA,"SUPERVISING PATHOLOGIST",NA,NA,"2011-01-09T09:59:00",30
"PDS2014","MA","PDS2014-0001",30,NA,NA,NA,"GROSPATH","Gross Pathological Examination",NA,"NORMAL","NORMAL",NA,NA,NA,"LYMPH NODE, MESENTERIC",NA,NA,NA,NA,NA,NA,"SUPERVISING PATHOLOGIST",NA,NA,"2011-01-09T09:59:00",30
"PDS2014","MA","PDS2014-0001",31,NA,NA,NA,"GROSPATH","Gross Pathological Examination",NA,"NORMAL","NORMAL",NA,NA,NA,"LARGE INTESTINE, CECUM",NA,NA,NA,NA,NA,NA,"SUPERVISING PATHOLOGIST",NA,NA,"2011-01-09T09:59:00",30
"PDS2014","MA","PDS2014-0001",32,NA,NA,NA,"GROSPATH","Gross Pathological Examination",NA,"NORMAL","NORMAL",NA,NA,NA,"LARGE INTESTINE, COLON",NA,NA,NA,NA,NA,NA,"SUPERVISING PATHOLOGIST",NA,NA,"2011-01-09T09:59:00",30
"PDS2014","MA","PDS2014-0001",33,NA,NA,NA,"GROSPATH","Gross Pathological Examination",NA,"NORMAL","NORMAL",NA,NA,NA,"SMALL INTESTINE, ILEUM",NA,NA,NA,NA,NA,NA,"SUPERVISING PATHOLOGIST",NA,NA,"2011-01-09T09:59:00",30
"PDS2014","MA","PDS2014-0001",34,NA,NA,NA,"GROSPATH","Gross Pathological Examination",NA,"NORMAL","NORMAL",NA,NA,NA,"GLAND, ADRENAL",NA,NA,NA,NA,NA,NA,"SUPERVISING PATHOLOGIST",NA,NA,"2011-01-09T09:59:00",30
"PDS2014","MA","PDS2014-0001",35,NA,NA,NA,"GROSPATH","Gross Pathological Examination",NA,"NORMAL","NORMAL",NA,NA,NA,"URETER",NA,NA,NA,NA,NA,NA,"SUPERVISING PATHOLOGIST",NA,NA,"2011-01-09T09:59:00",30
"PDS2014","MA","PDS2014-0001",36,NA,NA,NA,"GROSPATH","Gross Pathological Examination",NA,"NORMAL","NORMAL",NA,NA,NA,"KIDNEY",NA,NA,NA,NA,NA,NA,"SUPERVISING PATHOLOGIST",NA,NA,"2011-01-09T09:59:00",30
"PDS2014","MA","PDS2014-0001",37,NA,NA,NA,"GROSPATH","Gross Pathological Examination",NA,"NORMAL","NORMAL",NA,NA,NA,"URINARY BLADDER",NA,NA,NA,NA,NA,NA,"SUPERVISING PATHOLOGIST",NA,NA,"2011-01-09T09:59:00",30
"PDS2014","MA","PDS2014-0001",38,NA,NA,NA,"GROSPATH","Gross Pathological Examination",NA,"NORMAL","NORMAL",NA,NA,NA,"TESTIS",NA,NA,NA,NA,NA,NA,"SUPERVISING PATHOLOGIST",NA,NA,"2011-01-09T09:59:00",30
"PDS2014","MA","PDS2014-0001",39,NA,NA,NA,"GROSPATH","Gross Pathological Examination",NA,"NORMAL","NORMAL",NA,NA,NA,"EPIDIDYMIS",NA,NA,NA,NA,NA,NA,"SUPERVISING PATHOLOGIST",NA,NA,"2011-01-09T09:59:00",30
"PDS2014","MA","PDS2014-0001",40,NA,NA,NA,"GROSPATH","Gross Pathological Examination",NA,"NORMAL","NORMAL",NA,NA,NA,"GLAND, PROSTATE",NA,NA,NA,NA,NA,NA,"SUPERVISING PATHOLOGIST",NA,NA,"2011-01-09T09:59:00",30
"PDS2014","MA","PDS2014-0001",41,NA,NA,NA,"GROSPATH","Gross Pathological Examination",NA,"NORMAL","NORMAL",NA,NA,NA,"GLAND, SEMINAL VESICLE",NA,NA,NA,NA,NA,NA,"SUPERVISING PATHOLOGIST",NA,NA,"2011-01-09T09:59:00",30
"PDS2014","MA","PDS2014-0001",42,NA,NA,NA,"GROSPATH","Gross Pathological Examination",NA,"NORMAL","NORMAL",NA,NA,NA,"SITE, MICROCHIP",NA,NA,NA,NA,NA,NA,"SUPERVISING PATHOLOGIST",NA,NA,"2011-01-09T09:59:00",30
"PDS2014","MA","PDS2014-0001",43,NA,NA,NA,"GROSPATH","Gross Pathological Examination",NA,"NORMAL","NORMAL",NA,NA,NA,"LARGE INTESTINE, RECTUM",NA,NA,NA,NA,NA,NA,"SUPERVISING PATHOLOGIST",NA,NA,"2011-01-09T09:59:00",30
"PDS2014","MA","PDS2014-0001",44,NA,NA,NA,"GROSPATH","Gross Pathological Examination",NA,"NORMAL","NORMAL",NA,NA,NA,"BONE MARROW, FEMUR",NA,NA,NA,NA,NA,NA,"SUPERVISING PATHOLOGIST",NA,NA,"2011-01-09T09:59:00",30
"PDS2014","MA","PDS2014-0002",45,NA,NA,NA,"GROSPATH","Gross Pathological Examination",NA,"frozen sample (co2-ice)","frozen sample (co2-ice)",NA,NA,NA,"LIVER",NA,NA,NA,NA,NA,NA,"SUPERVISING PATHOLOGIST",NA,NA,"2011-01-09T11:38:00",30
"PDS2014","MA","PDS2014-0002",46,NA,NA,NA,"GROSPATH","Gross Pathological Examination",NA,"NORMAL","NORMAL",NA,NA,NA,"NERVE, SCIATIC",NA,NA,NA,NA,NA,NA,"SUPERVISING PATHOLOGIST",NA,NA,"2011-01-09T11:38:00",30
"PDS2014","MA","PDS2014-0002",47,NA,NA,NA,"GROSPATH","Gross Pathological Examination",NA,"NORMAL","NORMAL",NA,NA,NA,"MUSCLE, QUADRICEPS FEMORIS",NA,NA,NA,NA,NA,NA,"SUPERVISING PATHOLOGIST",NA,NA,"2011-01-09T11:38:00",30
"PDS2014","MA","PDS2014-0002",48,NA,NA,NA,"GROSPATH","Gross Pathological Examination",NA,"NORMAL","NORMAL",NA,NA,NA,"GLAND, SALIVARY, PAROTID",NA,NA,NA,NA,NA,NA,"SUPERVISING PATHOLOGIST",NA,NA,"2011-01-09T11:38:00",30
"PDS2014","MA","PDS2014-0002",49,NA,NA,NA,"GROSPATH","Gross Pathological Examination",NA,"NORMAL","NORMAL",NA,NA,NA,"GLAND, THYROID",NA,NA,NA,NA,NA,NA,"SUPERVISING PATHOLOGIST",NA,NA,"2011-01-09T11:38:00",30
"PDS2014","MA","PDS2014-0002",50,NA,NA,NA,"GROSPATH","Gross Pathological Examination",NA,"NORMAL","NORMAL",NA,NA,NA,"GLAND, PARATHYROID",NA,NA,NA,NA,NA,NA,"SUPERVISING PATHOLOGIST",NA,NA,"2011-01-09T11:38:00",30
"PDS2014","MA","PDS2014-0002",51,NA,NA,NA,"GROSPATH","Gross Pathological Examination",NA,"NORMAL","NORMAL",NA,NA,NA,"LARYNX",NA,NA,NA,NA,NA,NA,"SUPERVISING PATHOLOGIST",NA,NA,"2011-01-09T11:38:00",30
"PDS2014","MA","PDS2014-0002",52,NA,NA,NA,"GROSPATH","Gross Pathological Examination",NA,"NORMAL","NORMAL",NA,NA,NA,"BRAIN",NA,NA,NA,NA,NA,NA,"SUPERVISING PATHOLOGIST",NA,NA,"2011-01-09T11:38:00",30
"PDS2014","MA","PDS2014-0002",53,NA,NA,NA,"GROSPATH","Gross Pathological Examination",NA,"NORMAL","NORMAL",NA,NA,NA,"GLAND, PITUITARY",NA,NA,NA,NA,NA,NA,"SUPERVISING PATHOLOGIST",NA,NA,"2011-01-09T11:38:00",30
"PDS2014","MA","PDS2014-0002",54,NA,NA,NA,"GROSPATH","Gross Pathological Examination",NA,"NORMAL","NORMAL",NA,NA,NA,"EYE",NA,NA,NA,NA,NA,NA,"SUPERVISING PATHOLOGIST",NA,NA,"2011-01-09T11:38:00",30
"PDS2014","MA","PDS2014-0002",55,NA,NA,NA,"GROSPATH","Gross Pathological Examination",NA,"NORMAL","NORMAL",NA,NA,NA,"GLAND, HARDERIAN",NA,NA,NA,NA,NA,NA,"SUPERVISING PATHOLOGIST",NA,NA,"2011-01-09T11:38:00",30
"PDS2014","MA","PDS2014-0002",56,NA,NA,NA,"GROSPATH","Gross Pathological Examination",NA,"NORMAL","NORMAL",NA,NA,NA,"NOSE",NA,NA,NA,NA,NA,NA,"SUPERVISING PATHOLOGIST",NA,NA,"2011-01-09T11:38:00",30
"PDS2014","MA","PDS2014-0002",57,NA,NA,NA,"GROSPATH","Gross Pathological Examination",NA,"NORMAL","NORMAL",NA,NA,NA,"TONGUE",NA,NA,NA,NA,NA,NA,"SUPERVISING PATHOLOGIST",NA,NA,"2011-01-09T11:38:00",30
"PDS2014","MA","PDS2014-0002",58,NA,NA,NA,"GROSPATH","Gross Pathological Examination",NA,"NORMAL","NORMAL",NA,NA,NA,"SKIN",NA,NA,NA,NA,NA,NA,"SUPERVISING PATHOLOGIST",NA,NA,"2011-01-09T11:38:00",30
"PDS2014","MA","PDS2014-0002",59,NA,NA,NA,"GROSPATH","Gross Pathological Examination",NA,"NORMAL","NORMAL",NA,NA,NA,"GLAND, PREPUTIAL",NA,NA,NA,NA,NA,NA,"SUPERVISING PATHOLOGIST",NA,NA,"2011-01-09T11:38:00",30
"PDS2014","MA","PDS2014-0002",60,NA,NA,NA,"GROSPATH","Gross Pathological Examination",NA,"NORMAL","NORMAL",NA,NA,NA,"GLAND, MAMMARY",NA,NA,NA,NA,NA,NA,"SUPERVISING PATHOLOGIST",NA,NA,"2011-01-09T11:38:00",30
"PDS2014","MA","PDS2014-0002",61,NA,NA,NA,"GROSPATH","Gross Pathological Examination",NA,"NORMAL","NORMAL",NA,NA,NA,"BONE MARROW, STERNUM",NA,NA,NA,NA,NA,NA,"SUPERVISING PATHOLOGIST",NA,NA,"2011-01-09T11:38:00",30
"PDS2014","MA","PDS2014-0002",62,NA,NA,NA,"GROSPATH","Gross Pathological Examination",NA,"NORMAL","NORMAL",NA,NA,NA,"THYMUS",NA,NA,NA,NA,NA,NA,"SUPERVISING PATHOLOGIST",NA,NA,"2011-01-09T11:38:00",30
"PDS2014","MA","PDS2014-0002",63,NA,NA,NA,"GROSPATH","Gross Pathological Examination",NA,"NORMAL","NORMAL",NA,NA,NA,"HEART",NA,NA,NA,NA,NA,NA,"SUPERVISING PATHOLOGIST",NA,NA,"2011-01-09T11:38:00",30
"PDS2014","MA","PDS2014-0002",64,NA,NA,NA,"GROSPATH","Gross Pathological Examination",NA,"NORMAL","NORMAL",NA,NA,NA,"TRACHEA",NA,NA,NA,NA,NA,NA,"SUPERVISING PATHOLOGIST",NA,NA,"2011-01-09T11:38:00",30
"PDS2014","MA","PDS2014-0002",65,NA,NA,NA,"GROSPATH","Gross Pathological Examination",NA,"NORMAL","NORMAL",NA,NA,NA,"LUNG",NA,NA,NA,NA,NA,NA,"SUPERVISING PATHOLOGIST",NA,NA,"2011-01-09T11:38:00",30
"PDS2014","MA","PDS2014-0002",66,NA,NA,NA,"GROSPATH","Gross Pathological Examination",NA,"NORMAL","NORMAL",NA,NA,NA,"ESOPHAGUS",NA,NA,NA,NA,NA,NA,"SUPERVISING PATHOLOGIST",NA,NA,"2011-01-09T11:38:00",30
"PDS2014","MA","PDS2014-0002",67,NA,NA,NA,"GROSPATH","Gross Pathological Examination",NA,"NORMAL","NORMAL",NA,NA,NA,"ARTERY, AORTA",NA,NA,NA,NA,NA,NA,"SUPERVISING PATHOLOGIST",NA,NA,"2011-01-09T11:38:00",30
"PDS2014","MA","PDS2014-0002",68,NA,NA,NA,"GROSPATH","Gross Pathological Examination",NA,"NORMAL","NORMAL",NA,NA,NA,"SPLEEN",NA,NA,NA,NA,NA,NA,"SUPERVISING PATHOLOGIST",NA,NA,"2011-01-09T11:38:00",30
"PDS2014","MA","PDS2014-0002",69,NA,NA,NA,"GROSPATH","Gross Pathological Examination",NA,"NORMAL","NORMAL",NA,NA,NA,"PANCREAS",NA,NA,NA,NA,NA,NA,"SUPERVISING PATHOLOGIST",NA,NA,"2011-01-09T11:38:00",30
"PDS2014","MA","PDS2014-0002",70,NA,NA,NA,"GROSPATH","Gross Pathological Examination",NA,"NORMAL","NORMAL",NA,NA,NA,"STOMACH",NA,NA,NA,NA,NA,NA,"SUPERVISING PATHOLOGIST",NA,NA,"2011-01-09T11:38:00",30
"PDS2014","MA","PDS2014-0002",71,NA,NA,NA,"GROSPATH","Gross Pathological Examination",NA,"NORMAL","NORMAL",NA,NA,NA,"SMALL INTESTINE, DUODENUM",NA,NA,NA,NA,NA,NA,"SUPERVISING PATHOLOGIST",NA,NA,"2011-01-09T11:38:00",30
"PDS2014","MA","PDS2014-0002",72,NA,NA,NA,"GROSPATH","Gross Pathological Examination",NA,"NORMAL","NORMAL",NA,NA,NA,"SMALL INTESTINE, JEJUNUM",NA,NA,NA,NA,NA,NA,"SUPERVISING PATHOLOGIST",NA,NA,"2011-01-09T11:38:00",30
"PDS2014","MA","PDS2014-0002",73,NA,NA,NA,"GROSPATH","Gross Pathological Examination",NA,"NORMAL","NORMAL",NA,NA,NA,"LYMPH NODE, MESENTERIC",NA,NA,NA,NA,NA,NA,"SUPERVISING PATHOLOGIST",NA,NA,"2011-01-09T11:38:00",30
"PDS2014","MA","PDS2014-0002",74,NA,NA,NA,"GROSPATH","Gross Pathological Examination",NA,"NORMAL","NORMAL",NA,NA,NA,"LARGE INTESTINE, CECUM",NA,NA,NA,NA,NA,NA,"SUPERVISING PATHOLOGIST",NA,NA,"2011-01-09T11:38:00",30
"PDS2014","MA","PDS2014-0002",75,NA,NA,NA,"GROSPATH","Gross Pathological Examination",NA,"NORMAL","NORMAL",NA,NA,NA,"LARGE INTESTINE, COLON",NA,NA,NA,NA,NA,NA,"SUPERVISING PATHOLOGIST",NA,NA,"2011-01-09T11:38:00",30
"PDS2014","MA","PDS2014-0002",76,NA,NA,NA,"GROSPATH","Gross Pathological Examination",NA,"NORMAL","NORMAL",NA,NA,NA,"SMALL INTESTINE, ILEUM",NA,NA,NA,NA,NA,NA,"SUPERVISING PATHOLOGIST",NA,NA,"2011-01-09T11:38:00",30
"PDS2014","MA","PDS2014-0002",77,NA,NA,NA,"GROSPATH","Gross Pathological Examination",NA,"NORMAL","NORMAL",NA,NA,NA,"GLAND, ADRENAL",NA,NA,NA,NA,NA,NA,"SUPERVISING PATHOLOGIST",NA,NA,"2011-01-09T11:38:00",30
"PDS2014","MA","PDS2014-0002",78,NA,NA,NA,"GROSPATH","Gross Pathological Examination",NA,"NORMAL","NORMAL",NA,NA,NA,"URETER",NA,NA,NA,NA,NA,NA,"SUPERVISING PATHOLOGIST",NA,NA,"2011-01-09T11:38:00",30
"PDS2014","MA","PDS2014-0002",79,NA,NA,NA,"GROSPATH","Gross Pathological Examination",NA,"NORMAL","NORMAL",NA,NA,NA,"KIDNEY",NA,NA,NA,NA,NA,NA,"SUPERVISING PATHOLOGIST",NA,NA,"2011-01-09T11:38:00",30
"PDS2014","MA","PDS2014-0002",80,NA,NA,NA,"GROSPATH","Gross Pathological Examination",NA,"NORMAL","NORMAL",NA,NA,NA,"URINARY BLADDER",NA,NA,NA,NA,NA,NA,"SUPERVISING PATHOLOGIST",NA,NA,"2011-01-09T11:38:00",30
"PDS2014","MA","PDS2014-0002",81,NA,NA,NA,"GROSPATH","Gross Pathological Examination",NA,"NORMAL","NORMAL",NA,NA,NA,"TESTIS",NA,NA,NA,NA,NA,NA,"SUPERVISING PATHOLOGIST",NA,NA,"2011-01-09T11:38:00",30
"PDS2014","MA","PDS2014-0002",82,NA,NA,NA,"GROSPATH","Gross Pathological Examination",NA,"NORMAL","NORMAL",NA,NA,NA,"EPIDIDYMIS",NA,NA,NA,NA,NA,NA,"SUPERVISING PATHOLOGIST",NA,NA,"2011-01-09T11:38:00",30
"PDS2014","MA","PDS2014-0002",83,NA,NA,NA,"GROSPATH","Gross Pathological Examination",NA,"NORMAL","NORMAL",NA,NA,NA,"GLAND, PROSTATE",NA,NA,NA,NA,NA,NA,"SUPERVISING PATHOLOGIST",NA,NA,"2011-01-09T11:38:00",30
"PDS2014","MA","PDS2014-0002",84,NA,NA,NA,"GROSPATH","Gross Pathological Examination",NA,"NORMAL","NORMAL",NA,NA,NA,"GLAND, SEMINAL VESICLE",NA,NA,NA,NA,NA,NA,"SUPERVISING PATHOLOGIST",NA,NA,"2011-01-09T11:38:00",30
"PDS2014","MA","PDS2014-0002",85,NA,NA,NA,"GROSPATH","Gross Pathological Examination",NA,"NORMAL","NORMAL",NA,NA,NA,"SITE, MICROCHIP",NA,NA,NA,NA,NA,NA,"SUPERVISING PATHOLOGIST",NA,NA,"2011-01-09T11:38:00",30
"PDS2014","MA","PDS2014-0002",86,NA,NA,NA,"GROSPATH","Gross Pathological Examination",NA,"NORMAL","NORMAL",NA,NA,NA,"LARGE INTESTINE, RECTUM",NA,NA,NA,NA,NA,NA,"SUPERVISING PATHOLOGIST",NA,NA,"2011-01-09T11:38:00",30
"PDS2014","MA","PDS2014-0002",87,NA,NA,NA,"GROSPATH","Gross Pathological Examination",NA,"NORMAL","NORMAL",NA,NA,NA,"BONE MARROW, FEMUR",NA,NA,NA,NA,NA,NA,"SUPERVISING PATHOLOGIST",NA,NA,"2011-01-09T11:38:00",30
"PDS2014","MA","PDS2014-0003",88,NA,NA,NA,"GROSPATH","Gross Pathological Examination",NA,"frozen sample (co2-ice)","frozen sample (co2-ice)",NA,NA,NA,"LIVER",NA,NA,NA,NA,NA,NA,"SUPERVISING PATHOLOGIST",NA,NA,"2011-01-09T14:16:00",30
"PDS2014","MA","PDS2014-0003",89,NA,NA,NA,"GROSPATH","Gross Pathological Examination",NA,"NORMAL","NORMAL",NA,NA,NA,"NERVE, SCIATIC",NA,NA,NA,NA,NA,NA,"SUPERVISING PATHOLOGIST",NA,NA,"2011-01-09T14:16:00",30
"PDS2014","MA","PDS2014-0003",90,NA,NA,NA,"GROSPATH","Gross Pathological Examination",NA,"NORMAL","NORMAL",NA,NA,NA,"MUSCLE, QUADRICEPS FEMORIS",NA,NA,NA,NA,NA,NA,"SUPERVISING PATHOLOGIST",NA,NA,"2011-01-09T14:16:00",30
"PDS2014","MA","PDS2014-0003",91,NA,NA,NA,"GROSPATH","Gross Pathological Examination",NA,"NORMAL","NORMAL",NA,NA,NA,"GLAND, SALIVARY, PAROTID",NA,NA,NA,NA,NA,NA,"SUPERVISING PATHOLOGIST",NA,NA,"2011-01-09T14:16:00",30
"PDS2014","MA","PDS2014-0003",92,NA,NA,NA,"GROSPATH","Gross Pathological Examination",NA,"NORMAL","NORMAL",NA,NA,NA,"GLAND, THYROID",NA,NA,NA,NA,NA,NA,"SUPERVISING PATHOLOGIST",NA,NA,"2011-01-09T14:16:00",30
"PDS2014","MA","PDS2014-0003",93,NA,NA,NA,"GROSPATH","Gross Pathological Examination",NA,"NORMAL","NORMAL",NA,NA,NA,"GLAND, PARATHYROID",NA,NA,NA,NA,NA,NA,"SUPERVISING PATHOLOGIST",NA,NA,"2011-01-09T14:16:00",30
"PDS2014","MA","PDS2014-0003",94,NA,NA,NA,"GROSPATH","Gross Pathological Examination",NA,"NORMAL","NORMAL",NA,NA,NA,"LARYNX",NA,NA,NA,NA,NA,NA,"SUPERVISING PATHOLOGIST",NA,NA,"2011-01-09T14:16:00",30
"PDS2014","MA","PDS2014-0003",95,NA,NA,NA,"GROSPATH","Gross Pathological Examination",NA,"NORMAL","NORMAL",NA,NA,NA,"BRAIN",NA,NA,NA,NA,NA,NA,"SUPERVISING PATHOLOGIST",NA,NA,"2011-01-09T14:16:00",30
"PDS2014","MA","PDS2014-0003",96,NA,NA,NA,"GROSPATH","Gross Pathological Examination",NA,"NORMAL","NORMAL",NA,NA,NA,"GLAND, PITUITARY",NA,NA,NA,NA,NA,NA,"SUPERVISING PATHOLOGIST",NA,NA,"2011-01-09T14:16:00",30
"PDS2014","MA","PDS2014-0003",97,NA,NA,NA,"GROSPATH","Gross Pathological Examination",NA,"NORMAL","NORMAL",NA,NA,NA,"EYE",NA,NA,NA,NA,NA,NA,"SUPERVISING PATHOLOGIST",NA,NA,"2011-01-09T14:16:00",30
"PDS2014","MA","PDS2014-0003",98,NA,NA,NA,"GROSPATH","Gross Pathological Examination",NA,"NORMAL","NORMAL",NA,NA,NA,"GLAND, HARDERIAN",NA,NA,NA,NA,NA,NA,"SUPERVISING PATHOLOGIST",NA,NA,"2011-01-09T14:16:00",30
"PDS2014","MA","PDS2014-0003",99,NA,NA,NA,"GROSPATH","Gross Pathological Examination",NA,"NORMAL","NORMAL",NA,NA,NA,"NOSE",NA,NA,NA,NA,NA,NA,"SUPERVISING PATHOLOGIST",NA,NA,"2011-01-09T14:16:00",30
"PDS2014","MA","PDS2014-0003",100,NA,NA,NA,"GROSPATH","Gross Pathological Examination",NA,"NORMAL","NORMAL",NA,NA,NA,"TONGUE",NA,NA,NA,NA,NA,NA,"SUPERVISING PATHOLOGIST",NA,NA,"2011-01-09T14:16:00",30
"PDS2014","MA","PDS2014-0003",101,NA,NA,NA,"GROSPATH","Gross Pathological Examination",NA,"NORMAL","NORMAL",NA,NA,NA,"SKIN",NA,NA,NA,NA,NA,NA,"SUPERVISING PATHOLOGIST",NA,NA,"2011-01-09T14:16:00",30
"PDS2014","MA","PDS2014-0003",102,NA,NA,NA,"GROSPATH","Gross Pathological Examination",NA,"NORMAL","NORMAL",NA,NA,NA,"GLAND, PREPUTIAL",NA,NA,NA,NA,NA,NA,"SUPERVISING PATHOLOGIST",NA,NA,"2011-01-09T14:16:00",30
"PDS2014","MA","PDS2014-0003",103,NA,NA,NA,"GROSPATH","Gross Pathological Examination",NA,"NORMAL","NORMAL",NA,NA,NA,"GLAND, MAMMARY",NA,NA,NA,NA,NA,NA,"SUPERVISING PATHOLOGIST",NA,NA,"2011-01-09T14:16:00",30
"PDS2014","MA","PDS2014-0003",104,NA,NA,NA,"GROSPATH","Gross Pathological Examination",NA,"NORMAL","NORMAL",NA,NA,NA,"BONE MARROW, STERNUM",NA,NA,NA,NA,NA,NA,"SUPERVISING PATHOLOGIST",NA,NA,"2011-01-09T14:16:00",30
"PDS2014","MA","PDS2014-0003",105,NA,NA,NA,"GROSPATH","Gross Pathological Examination",NA,"NORMAL","NORMAL",NA,NA,NA,"THYMUS",NA,NA,NA,NA,NA,NA,"SUPERVISING PATHOLOGIST",NA,NA,"2011-01-09T14:16:00",30
"PDS2014","MA","PDS2014-0003",106,NA,NA,NA,"GROSPATH","Gross Pathological Examination",NA,"NORMAL","NORMAL",NA,NA,NA,"HEART",NA,NA,NA,NA,NA,NA,"SUPERVISING PATHOLOGIST",NA,NA,"2011-01-09T14:16:00",30
"PDS2014","MA","PDS2014-0003",107,NA,NA,NA,"GROSPATH","Gross Pathological Examination",NA,"NORMAL","NORMAL",NA,NA,NA,"TRACHEA",NA,NA,NA,NA,NA,NA,"SUPERVISING PATHOLOGIST",NA,NA,"2011-01-09T14:16:00",30
"PDS2014","MA","PDS2014-0003",108,NA,NA,NA,"GROSPATH","Gross Pathological Examination",NA,"NORMAL","NORMAL",NA,NA,NA,"LUNG",NA,NA,NA,NA,NA,NA,"SUPERVISING PATHOLOGIST",NA,NA,"2011-01-09T14:16:00",30
"PDS2014","MA","PDS2014-0003",109,NA,NA,NA,"GROSPATH","Gross Pathological Examination",NA,"NORMAL","NORMAL",NA,NA,NA,"ESOPHAGUS",NA,NA,NA,NA,NA,NA,"SUPERVISING PATHOLOGIST",NA,NA,"2011-01-09T14:16:00",30
"PDS2014","MA","PDS2014-0003",110,NA,NA,NA,"GROSPATH","Gross Pathological Examination",NA,"NORMAL","NORMAL",NA,NA,NA,"ARTERY, AORTA",NA,NA,NA,NA,NA,NA,"SUPERVISING PATHOLOGIST",NA,NA,"2011-01-09T14:16:00",30
"PDS2014","MA","PDS2014-0003",111,NA,NA,NA,"GROSPATH","Gross Pathological Examination",NA,"NORMAL","NORMAL",NA,NA,NA,"SPLEEN",NA,NA,NA,NA,NA,NA,"SUPERVISING PATHOLOGIST",NA,NA,"2011-01-09T14:16:00",30
"PDS2014","MA","PDS2014-0003",112,NA,NA,NA,"GROSPATH","Gross Pathological Examination",NA,"NORMAL","NORMAL",NA,NA,NA,"PANCREAS",NA,NA,NA,NA,NA,NA,"SUPERVISING PATHOLOGIST",NA,NA,"2011-01-09T14:16:00",30
"PDS2014","MA","PDS2014-0003",113,NA,NA,NA,"GROSPATH","Gross Pathological Examination",NA,"NORMAL","NORMAL",NA,NA,NA,"STOMACH",NA,NA,NA,NA,NA,NA,"SUPERVISING PATHOLOGIST",NA,NA,"2011-01-09T14:16:00",30
"PDS2014","MA","PDS2014-0003",114,NA,NA,NA,"GROSPATH","Gross Pathological Examination",NA,"NORMAL","NORMAL",NA,NA,NA,"SMALL INTESTINE, DUODENUM",NA,NA,NA,NA,NA,NA,"SUPERVISING PATHOLOGIST",NA,NA,"2011-01-09T14:16:00",30
"PDS2014","MA","PDS2014-0003",115,NA,NA,NA,"GROSPATH","Gross Pathological Examination",NA,"NORMAL","NORMAL",NA,NA,NA,"SMALL INTESTINE, JEJUNUM",NA,NA,NA,NA,NA,NA,"SUPERVISING PATHOLOGIST",NA,NA,"2011-01-09T14:16:00",30
"PDS2014","MA","PDS2014-0003",116,NA,NA,NA,"GROSPATH","Gross Pathological Examination",NA,"NORMAL","NORMAL",NA,NA,NA,"LYMPH NODE, MESENTERIC",NA,NA,NA,NA,NA,NA,"SUPERVISING PATHOLOGIST",NA,NA,"2011-01-09T14:16:00",30
"PDS2014","MA","PDS2014-0003",117,NA,NA,NA,"GROSPATH","Gross Pathological Examination",NA,"NORMAL","NORMAL",NA,NA,NA,"LARGE INTESTINE, CECUM",NA,NA,NA,NA,NA,NA,"SUPERVISING PATHOLOGIST",NA,NA,"2011-01-09T14:16:00",30
"PDS2014","MA","PDS2014-0003",118,NA,NA,NA,"GROSPATH","Gross Pathological Examination",NA,"NORMAL","NORMAL",NA,NA,NA,"LARGE INTESTINE, COLON",NA,NA,NA,NA,NA,NA,"SUPERVISING PATHOLOGIST",NA,NA,"2011-01-09T14:16:00",30
"PDS2014","MA","PDS2014-0003",119,NA,NA,NA,"GROSPATH","Gross Pathological Examination",NA,"NORMAL","NORMAL",NA,NA,NA,"SMALL INTESTINE, ILEUM",NA,NA,NA,NA,NA,NA,"SUPERVISING PATHOLOGIST",NA,NA,"2011-01-09T14:16:00",30
"PDS2014","MA","PDS2014-0003",120,NA,NA,NA,"GROSPATH","Gross Pathological Examination",NA,"NORMAL","NORMAL",NA,NA,NA,"GLAND, ADRENAL",NA,NA,NA,NA,NA,NA,"SUPERVISING PATHOLOGIST",NA,NA,"2011-01-09T14:16:00",30
"PDS2014","MA","PDS2014-0003",121,NA,NA,NA,"GROSPATH","Gross Pathological Examination",NA,"NORMAL","NORMAL",NA,NA,NA,"URETER",NA,NA,NA,NA,NA,NA,"SUPERVISING PATHOLOGIST",NA,NA,"2011-01-09T14:16:00",30
"PDS2014","MA","PDS2014-0003",122,NA,NA,NA,"GROSPATH","Gross Pathological Examination",NA,"NORMAL","NORMAL",NA,NA,NA,"KIDNEY",NA,NA,NA,NA,NA,NA,"SUPERVISING PATHOLOGIST",NA,NA,"2011-01-09T14:16:00",30
"PDS2014","MA","PDS2014-0003",123,NA,NA,NA,"GROSPATH","Gross Pathological Examination",NA,"NORMAL","NORMAL",NA,NA,NA,"URINARY BLADDER",NA,NA,NA,NA,NA,NA,"SUPERVISING PATHOLOGIST",NA,NA,"2011-01-09T14:16:00",30
"PDS2014","MA","PDS2014-0003",124,NA,NA,NA,"GROSPATH","Gross Pathological Examination",NA,"NORMAL","NORMAL",NA,NA,NA,"TESTIS",NA,NA,NA,NA,NA,NA,"SUPERVISING PATHOLOGIST",NA,NA,"2011-01-09T14:16:00",30
"PDS2014","MA","PDS2014-0003",125,NA,NA,NA,"GROSPATH","Gross Pathological Examination",NA,"NORMAL","NORMAL",NA,NA,NA,"EPIDIDYMIS",NA,NA,NA,NA,NA,NA,"SUPERVISING PATHOLOGIST",NA,NA,"2011-01-09T14:16:00",30
"PDS2014","MA","PDS2014-0003",126,NA,NA,NA,"GROSPATH","Gross Pathological Examination",NA,"NORMAL","NORMAL",NA,NA,NA,"GLAND, PROSTATE",NA,NA,NA,NA,NA,NA,"SUPERVISING PATHOLOGIST",NA,NA,"2011-01-09T14:16:00",30
"PDS2014","MA","PDS2014-0003",127,NA,NA,NA,"GROSPATH","Gross Pathological Examination",NA,"NORMAL","NORMAL",NA,NA,NA,"GLAND, SEMINAL VESICLE",NA,NA,NA,NA,NA,NA,"SUPERVISING PATHOLOGIST",NA,NA,"2011-01-09T14:16:00",30
"PDS2014","MA","PDS2014-0003",128,NA,NA,NA,"GROSPATH","Gross Pathological Examination",NA,"NORMAL","NORMAL",NA,NA,NA,"SITE, MICROCHIP",NA,NA,NA,NA,NA,NA,"SUPERVISING PATHOLOGIST",NA,NA,"2011-01-09T14:16:00",30
"PDS2014","MA","PDS2014-0003",129,NA,NA,NA,"GROSPATH","Gross Pathological Examination",NA,"NORMAL","NORMAL",NA,NA,NA,"LARGE INTESTINE, RECTUM",NA,NA,NA,NA,NA,NA,"SUPERVISING PATHOLOGIST",NA,NA,"2011-01-09T14:16:00",30
"PDS2014","MA","PDS2014-0003",130,NA,NA,NA,"GROSPATH","Gross Pathological Examination",NA,"NORMAL","NORMAL",NA,NA,NA,"BONE MARROW, FEMUR",NA,NA,NA,NA,NA,NA,"SUPERVISING PATHOLOGIST",NA,NA,"2011-01-09T14:16:00",30
"PDS2014","MA","PDS2014-0004",131,NA,NA,NA,"GROSPATH","Gross Pathological Examination",NA,"frozen sample (co2-ice)","frozen sample (co2-ice)",NA,NA,NA,"LIVER",NA,NA,NA,NA,NA,NA,"SUPERVISING PATHOLOGIST",NA,NA,"2011-01-09T11:11:00",30
"PDS2014","MA","PDS2014-0004",132,NA,NA,NA,"GROSPATH","Gross Pathological Examination",NA,"NORMAL","NORMAL",NA,NA,NA,"NERVE, SCIATIC",NA,NA,NA,NA,NA,NA,"SUPERVISING PATHOLOGIST",NA,NA,"2011-01-09T11:11:00",30
"PDS2014","MA","PDS2014-0004",133,NA,NA,NA,"GROSPATH","Gross Pathological Examination",NA,"NORMAL","NORMAL",NA,NA,NA,"MUSCLE, QUADRICEPS FEMORIS",NA,NA,NA,NA,NA,NA,"SUPERVISING PATHOLOGIST",NA,NA,"2011-01-09T11:11:00",30
"PDS2014","MA","PDS2014-0004",134,NA,NA,NA,"GROSPATH","Gross Pathological Examination",NA,"NORMAL","NORMAL",NA,NA,NA,"GLAND, SALIVARY, PAROTID",NA,NA,NA,NA,NA,NA,"SUPERVISING PATHOLOGIST",NA,NA,"2011-01-09T11:11:00",30
"PDS2014","MA","PDS2014-0004",135,NA,NA,NA,"GROSPATH","Gross Pathological Examination",NA,"NORMAL","NORMAL",NA,NA,NA,"GLAND, THYROID",NA,NA,NA,NA,NA,NA,"SUPERVISING PATHOLOGIST",NA,NA,"2011-01-09T11:11:00",30
"PDS2014","MA","PDS2014-0004",136,NA,NA,NA,"GROSPATH","Gross Pathological Examination",NA,"NORMAL","NORMAL",NA,NA,NA,"GLAND, PARATHYROID",NA,NA,NA,NA,NA,NA,"SUPERVISING PATHOLOGIST",NA,NA,"2011-01-09T11:11:00",30
"PDS2014","MA","PDS2014-0004",137,NA,NA,NA,"GROSPATH","Gross Pathological Examination",NA,"NORMAL","NORMAL",NA,NA,NA,"LARYNX",NA,NA,NA,NA,NA,NA,"SUPERVISING PATHOLOGIST",NA,NA,"2011-01-09T11:11:00",30
"PDS2014","MA","PDS2014-0004",138,NA,NA,NA,"GROSPATH","Gross Pathological Examination",NA,"NORMAL","NORMAL",NA,NA,NA,"BRAIN",NA,NA,NA,NA,NA,NA,"SUPERVISING PATHOLOGIST",NA,NA,"2011-01-09T11:11:00",30
"PDS2014","MA","PDS2014-0004",139,NA,NA,NA,"GROSPATH","Gross Pathological Examination",NA,"NORMAL","NORMAL",NA,NA,NA,"GLAND, PITUITARY",NA,NA,NA,NA,NA,NA,"SUPERVISING PATHOLOGIST",NA,NA,"2011-01-09T11:11:00",30
"PDS2014","MA","PDS2014-0004",140,NA,NA,NA,"GROSPATH","Gross Pathological Examination",NA,"NORMAL","NORMAL",NA,NA,NA,"EYE",NA,NA,NA,NA,NA,NA,"SUPERVISING PATHOLOGIST",NA,NA,"2011-01-09T11:11:00",30
"PDS2014","MA","PDS2014-0004",141,NA,NA,NA,"GROSPATH","Gross Pathological Examination",NA,"NORMAL","NORMAL",NA,NA,NA,"GLAND, HARDERIAN",NA,NA,NA,NA,NA,NA,"SUPERVISING PATHOLOGIST",NA,NA,"2011-01-09T11:11:00",30
"PDS2014","MA","PDS2014-0004",142,NA,NA,NA,"GROSPATH","Gross Pathological Examination",NA,"NORMAL","NORMAL",NA,NA,NA,"NOSE",NA,NA,NA,NA,NA,NA,"SUPERVISING PATHOLOGIST",NA,NA,"2011-01-09T11:11:00",30
"PDS2014","MA","PDS2014-0004",143,NA,NA,NA,"GROSPATH","Gross Pathological Examination",NA,"NORMAL","NORMAL",NA,NA,NA,"TONGUE",NA,NA,NA,NA,NA,NA,"SUPERVISING PATHOLOGIST",NA,NA,"2011-01-09T11:11:00",30
"PDS2014","MA","PDS2014-0004",144,NA,NA,NA,"GROSPATH","Gross Pathological Examination",NA,"NORMAL","NORMAL",NA,NA,NA,"SKIN",NA,NA,NA,NA,NA,NA,"SUPERVISING PATHOLOGIST",NA,NA,"2011-01-09T11:11:00",30
"PDS2014","MA","PDS2014-0004",145,NA,NA,NA,"GROSPATH","Gross Pathological Examination",NA,"NORMAL","NORMAL",NA,NA,NA,"GLAND, PREPUTIAL",NA,NA,NA,NA,NA,NA,"SUPERVISING PATHOLOGIST",NA,NA,"2011-01-09T11:11:00",30
"PDS2014","MA","PDS2014-0004",146,NA,NA,NA,"GROSPATH","Gross Pathological Examination",NA,"NORMAL","NORMAL",NA,NA,NA,"GLAND, MAMMARY",NA,NA,NA,NA,NA,NA,"SUPERVISING PATHOLOGIST",NA,NA,"2011-01-09T11:11:00",30
"PDS2014","MA","PDS2014-0004",147,NA,NA,NA,"GROSPATH","Gross Pathological Examination",NA,"NORMAL","NORMAL",NA,NA,NA,"BONE MARROW, STERNUM",NA,NA,NA,NA,NA,NA,"SUPERVISING PATHOLOGIST",NA,NA,"2011-01-09T11:11:00",30
"PDS2014","MA","PDS2014-0004",148,NA,NA,NA,"GROSPATH","Gross Pathological Examination",NA,"NORMAL","NORMAL",NA,NA,NA,"THYMUS",NA,NA,NA,NA,NA,NA,"SUPERVISING PATHOLOGIST",NA,NA,"2011-01-09T11:11:00",30
"PDS2014","MA","PDS2014-0004",149,NA,NA,NA,"GROSPATH","Gross Pathological Examination",NA,"NORMAL","NORMAL",NA,NA,NA,"HEART",NA,NA,NA,NA,NA,NA,"SUPERVISING PATHOLOGIST",NA,NA,"2011-01-09T11:11:00",30
"PDS2014","MA","PDS2014-0004",150,NA,NA,NA,"GROSPATH","Gross Pathological Examination",NA,"NORMAL","NORMAL",NA,NA,NA,"TRACHEA",NA,NA,NA,NA,NA,NA,"SUPERVISING PATHOLOGIST",NA,NA,"2011-01-09T11:11:00",30
"PDS2014","MA","PDS2014-0004",151,NA,NA,NA,"GROSPATH","Gross Pathological Examination",NA,"NORMAL","NORMAL",NA,NA,NA,"LUNG",NA,NA,NA,NA,NA,NA,"SUPERVISING PATHOLOGIST",NA,NA,"2011-01-09T11:11:00",30
"PDS2014","MA","PDS2014-0004",152,NA,NA,NA,"GROSPATH","Gross Pathological Examination",NA,"NORMAL","NORMAL",NA,NA,NA,"ESOPHAGUS",NA,NA,NA,NA,NA,NA,"SUPERVISING PATHOLOGIST",NA,NA,"2011-01-09T11:11:00",30
"PDS2014","MA","PDS2014-0004",153,NA,NA,NA,"GROSPATH","Gross Pathological Examination",NA,"NORMAL","NORMAL",NA,NA,NA,"ARTERY, AORTA",NA,NA,NA,NA,NA,NA,"SUPERVISING PATHOLOGIST",NA,NA,"2011-01-09T11:11:00",30
"PDS2014","MA","PDS2014-0004",154,NA,NA,NA,"GROSPATH","Gross Pathological Examination",NA,"NORMAL","NORMAL",NA,NA,NA,"SPLEEN",NA,NA,NA,NA,NA,NA,"SUPERVISING PATHOLOGIST",NA,NA,"2011-01-09T11:11:00",30
"PDS2014","MA","PDS2014-0004",155,NA,NA,NA,"GROSPATH","Gross Pathological Examination",NA,"NORMAL","NORMAL",NA,NA,NA,"PANCREAS",NA,NA,NA,NA,NA,NA,"SUPERVISING PATHOLOGIST",NA,NA,"2011-01-09T11:11:00",30
"PDS2014","MA","PDS2014-0004",156,NA,NA,NA,"GROSPATH","Gross Pathological Examination",NA,"NORMAL","NORMAL",NA,NA,NA,"STOMACH",NA,NA,NA,NA,NA,NA,"SUPERVISING PATHOLOGIST",NA,NA,"2011-01-09T11:11:00",30
"PDS2014","MA","PDS2014-0004",157,NA,NA,NA,"GROSPATH","Gross Pathological Examination",NA,"NORMAL","NORMAL",NA,NA,NA,"SMALL INTESTINE, DUODENUM",NA,NA,NA,NA,NA,NA,"SUPERVISING PATHOLOGIST",NA,NA,"2011-01-09T11:11:00",30
"PDS2014","MA","PDS2014-0004",158,NA,NA,NA,"GROSPATH","Gross Pathological Examination",NA,"NORMAL","NORMAL",NA,NA,NA,"SMALL INTESTINE, JEJUNUM",NA,NA,NA,NA,NA,NA,"SUPERVISING PATHOLOGIST",NA,NA,"2011-01-09T11:11:00",30
"PDS2014","MA","PDS2014-0004",159,NA,NA,NA,"GROSPATH","Gross Pathological Examination",NA,"NORMAL","NORMAL",NA,NA,NA,"LYMPH NODE, MESENTERIC",NA,NA,NA,NA,NA,NA,"SUPERVISING PATHOLOGIST",NA,NA,"2011-01-09T11:11:00",30
"PDS2014","MA","PDS2014-0004",160,NA,NA,NA,"GROSPATH","Gross Pathological Examination",NA,"NORMAL","NORMAL",NA,NA,NA,"LARGE INTESTINE, CECUM",NA,NA,NA,NA,NA,NA,"SUPERVISING PATHOLOGIST",NA,NA,"2011-01-09T11:11:00",30
"PDS2014","MA","PDS2014-0004",161,NA,NA,NA,"GROSPATH","Gross Pathological Examination",NA,"NORMAL","NORMAL",NA,NA,NA,"LARGE INTESTINE, COLON",NA,NA,NA,NA,NA,NA,"SUPERVISING PATHOLOGIST",NA,NA,"2011-01-09T11:11:00",30
"PDS2014","MA","PDS2014-0004",162,NA,NA,NA,"GROSPATH","Gross Pathological Examination",NA,"NORMAL","NORMAL",NA,NA,NA,"SMALL INTESTINE, ILEUM",NA,NA,NA,NA,NA,NA,"SUPERVISING PATHOLOGIST",NA,NA,"2011-01-09T11:11:00",30
"PDS2014","MA","PDS2014-0004",163,NA,NA,NA,"GROSPATH","Gross Pathological Examination",NA,"NORMAL","NORMAL",NA,NA,NA,"GLAND, ADRENAL",NA,NA,NA,NA,NA,NA,"SUPERVISING PATHOLOGIST",NA,NA,"2011-01-09T11:11:00",30
"PDS2014","MA","PDS2014-0004",164,NA,NA,NA,"GROSPATH","Gross Pathological Examination",NA,"NORMAL","NORMAL",NA,NA,NA,"URETER",NA,NA,NA,NA,NA,NA,"SUPERVISING PATHOLOGIST",NA,NA,"2011-01-09T11:11:00",30
"PDS2014","MA","PDS2014-0004",165,NA,NA,NA,"GROSPATH","Gross Pathological Examination",NA,"NORMAL","NORMAL",NA,NA,NA,"KIDNEY",NA,NA,NA,NA,NA,NA,"SUPERVISING PATHOLOGIST",NA,NA,"2011-01-09T11:11:00",30
"PDS2014","MA","PDS2014-0004",166,NA,NA,NA,"GROSPATH","Gross Pathological Examination",NA,"NORMAL","NORMAL",NA,NA,NA,"URINARY BLADDER",NA,NA,NA,NA,NA,NA,"SUPERVISING PATHOLOGIST",NA,NA,"2011-01-09T11:11:00",30
"PDS2014","MA","PDS2014-0004",167,NA,NA,NA,"GROSPATH","Gross Pathological Examination",NA,"NORMAL","NORMAL",NA,NA,NA,"TESTIS",NA,NA,NA,NA,NA,NA,"SUPERVISING PATHOLOGIST",NA,NA,"2011-01-09T11:11:00",30
"PDS2014","MA","PDS2014-0004",168,NA,NA,NA,"GROSPATH","Gross Pathological Examination",NA,"NORMAL","NORMAL",NA,NA,NA,"EPIDIDYMIS",NA,NA,NA,NA,NA,NA,"SUPERVISING PATHOLOGIST",NA,NA,"2011-01-09T11:11:00",30
"PDS2014","MA","PDS2014-0004",169,NA,NA,NA,"GROSPATH","Gross Pathological Examination",NA,"NORMAL","NORMAL",NA,NA,NA,"GLAND, PROSTATE",NA,NA,NA,NA,NA,NA,"SUPERVISING PATHOLOGIST",NA,NA,"2011-01-09T11:11:00",30
"PDS2014","MA","PDS2014-0004",170,NA,NA,NA,"GROSPATH","Gross Pathological Examination",NA,"NORMAL","NORMAL",NA,NA,NA,"GLAND, SEMINAL VESICLE",NA,NA,NA,NA,NA,NA,"SUPERVISING PATHOLOGIST",NA,NA,"2011-01-09T11:11:00",30
"PDS2014","MA","PDS2014-0004",171,NA,NA,NA,"GROSPATH","Gross Pathological Examination",NA,"NORMAL","NORMAL",NA,NA,NA,"SITE, MICROCHIP",NA,NA,NA,NA,NA,NA,"SUPERVISING PATHOLOGIST",NA,NA,"2011-01-09T11:11:00",30
"PDS2014","MA","PDS2014-0004",172,NA,NA,NA,"GROSPATH","Gross Pathological Examination",NA,"NORMAL","NORMAL",NA,NA,NA,"LARGE INTESTINE, RECTUM",NA,NA,NA,NA,NA,NA,"SUPERVISING PATHOLOGIST",NA,NA,"2011-01-09T11:11:00",30
"PDS2014","MA","PDS2014-0004",173,NA,NA,NA,"GROSPATH","Gross Pathological Examination",NA,"NORMAL","NORMAL",NA,NA,NA,"BONE MARROW, FEMUR",NA,NA,NA,NA,NA,NA,"SUPERVISING PATHOLOGIST",NA,NA,"2011-01-09T11:11:00",30
"PDS2014","MA","PDS2014-0005",174,NA,NA,NA,"GROSPATH","Gross Pathological Examination",NA,"frozen sample (co2-ice)","frozen sample (co2-ice)",NA,NA,NA,"LIVER",NA,NA,NA,NA,NA,NA,"SUPERVISING PATHOLOGIST",NA,NA,"2011-01-09T14:23:00",30
"PDS2014","MA","PDS2014-0005",175,NA,NA,NA,"GROSPATH","Gross Pathological Examination",NA,"NORMAL","NORMAL",NA,NA,NA,"NERVE, SCIATIC",NA,NA,NA,NA,NA,NA,"SUPERVISING PATHOLOGIST",NA,NA,"2011-01-09T14:23:00",30
"PDS2014","MA","PDS2014-0005",176,NA,NA,NA,"GROSPATH","Gross Pathological Examination",NA,"NORMAL","NORMAL",NA,NA,NA,"MUSCLE, QUADRICEPS FEMORIS",NA,NA,NA,NA,NA,NA,"SUPERVISING PATHOLOGIST",NA,NA,"2011-01-09T14:23:00",30
"PDS2014","MA","PDS2014-0005",177,NA,NA,NA,"GROSPATH","Gross Pathological Examination",NA,"NORMAL","NORMAL",NA,NA,NA,"GLAND, SALIVARY, PAROTID",NA,NA,NA,NA,NA,NA,"SUPERVISING PATHOLOGIST",NA,NA,"2011-01-09T14:23:00",30
"PDS2014","MA","PDS2014-0005",178,NA,NA,NA,"GROSPATH","Gross Pathological Examination",NA,"NORMAL","NORMAL",NA,NA,NA,"GLAND, THYROID",NA,NA,NA,NA,NA,NA,"SUPERVISING PATHOLOGIST",NA,NA,"2011-01-09T14:23:00",30
"PDS2014","MA","PDS2014-0005",179,NA,NA,NA,"GROSPATH","Gross Pathological Examination",NA,"NORMAL","NORMAL",NA,NA,NA,"GLAND, PARATHYROID",NA,NA,NA,NA,NA,NA,"SUPERVISING PATHOLOGIST",NA,NA,"2011-01-09T14:23:00",30
"PDS2014","MA","PDS2014-0005",180,NA,NA,NA,"GROSPATH","Gross Pathological Examination",NA,"NORMAL","NORMAL",NA,NA,NA,"LARYNX",NA,NA,NA,NA,NA,NA,"SUPERVISING PATHOLOGIST",NA,NA,"2011-01-09T14:23:00",30
"PDS2014","MA","PDS2014-0005",181,NA,NA,NA,"GROSPATH","Gross Pathological Examination",NA,"NORMAL","NORMAL",NA,NA,NA,"BRAIN",NA,NA,NA,NA,NA,NA,"SUPERVISING PATHOLOGIST",NA,NA,"2011-01-09T14:23:00",30
"PDS2014","MA","PDS2014-0005",182,NA,NA,NA,"GROSPATH","Gross Pathological Examination",NA,"NORMAL","NORMAL",NA,NA,NA,"GLAND, PITUITARY",NA,NA,NA,NA,NA,NA,"SUPERVISING PATHOLOGIST",NA,NA,"2011-01-09T14:23:00",30
"PDS2014","MA","PDS2014-0005",183,NA,NA,NA,"GROSPATH","Gross Pathological Examination",NA,"NORMAL","NORMAL",NA,NA,NA,"EYE",NA,NA,NA,NA,NA,NA,"SUPERVISING PATHOLOGIST",NA,NA,"2011-01-09T14:23:00",30
"PDS2014","MA","PDS2014-0005",184,NA,NA,NA,"GROSPATH","Gross Pathological Examination",NA,"NORMAL","NORMAL",NA,NA,NA,"GLAND, HARDERIAN",NA,NA,NA,NA,NA,NA,"SUPERVISING PATHOLOGIST",NA,NA,"2011-01-09T14:23:00",30
"PDS2014","MA","PDS2014-0005",185,NA,NA,NA,"GROSPATH","Gross Pathological Examination",NA,"NORMAL","NORMAL",NA,NA,NA,"NOSE",NA,NA,NA,NA,NA,NA,"SUPERVISING PATHOLOGIST",NA,NA,"2011-01-09T14:23:00",30
"PDS2014","MA","PDS2014-0005",186,NA,NA,NA,"GROSPATH","Gross Pathological Examination",NA,"NORMAL","NORMAL",NA,NA,NA,"TONGUE",NA,NA,NA,NA,NA,NA,"SUPERVISING PATHOLOGIST",NA,NA,"2011-01-09T14:23:00",30
"PDS2014","MA","PDS2014-0005",187,NA,NA,NA,"GROSPATH","Gross Pathological Examination",NA,"NORMAL","NORMAL",NA,NA,NA,"SKIN",NA,NA,NA,NA,NA,NA,"SUPERVISING PATHOLOGIST",NA,NA,"2011-01-09T14:23:00",30
"PDS2014","MA","PDS2014-0005",188,NA,NA,NA,"GROSPATH","Gross Pathological Examination",NA,"NORMAL","NORMAL",NA,NA,NA,"GLAND, PREPUTIAL",NA,NA,NA,NA,NA,NA,"SUPERVISING PATHOLOGIST",NA,NA,"2011-01-09T14:23:00",30
"PDS2014","MA","PDS2014-0005",189,NA,NA,NA,"GROSPATH","Gross Pathological Examination",NA,"NORMAL","NORMAL",NA,NA,NA,"GLAND, MAMMARY",NA,NA,NA,NA,NA,NA,"SUPERVISING PATHOLOGIST",NA,NA,"2011-01-09T14:23:00",30
"PDS2014","MA","PDS2014-0005",190,NA,NA,NA,"GROSPATH","Gross Pathological Examination",NA,"NORMAL","NORMAL",NA,NA,NA,"BONE MARROW, STERNUM",NA,NA,NA,NA,NA,NA,"SUPERVISING PATHOLOGIST",NA,NA,"2011-01-09T14:23:00",30
"PDS2014","MA","PDS2014-0005",191,NA,NA,NA,"GROSPATH","Gross Pathological Examination",NA,"NORMAL","NORMAL",NA,NA,NA,"THYMUS",NA,NA,NA,NA,NA,NA,"SUPERVISING PATHOLOGIST",NA,NA,"2011-01-09T14:23:00",30
"PDS2014","MA","PDS2014-0005",192,NA,NA,NA,"GROSPATH","Gross Pathological Examination",NA,"NORMAL","NORMAL",NA,NA,NA,"HEART",NA,NA,NA,NA,NA,NA,"SUPERVISING PATHOLOGIST",NA,NA,"2011-01-09T14:23:00",30
"PDS2014","MA","PDS2014-0005",193,NA,NA,NA,"GROSPATH","Gross Pathological Examination",NA,"NORMAL","NORMAL",NA,NA,NA,"TRACHEA",NA,NA,NA,NA,NA,NA,"SUPERVISING PATHOLOGIST",NA,NA,"2011-01-09T14:23:00",30
"PDS2014","MA","PDS2014-0005",194,NA,NA,NA,"GROSPATH","Gross Pathological Examination",NA,"NORMAL","NORMAL",NA,NA,NA,"LUNG",NA,NA,NA,NA,NA,NA,"SUPERVISING PATHOLOGIST",NA,NA,"2011-01-09T14:23:00",30
"PDS2014","MA","PDS2014-0005",195,NA,NA,NA,"GROSPATH","Gross Pathological Examination",NA,"NORMAL","NORMAL",NA,NA,NA,"ESOPHAGUS",NA,NA,NA,NA,NA,NA,"SUPERVISING PATHOLOGIST",NA,NA,"2011-01-09T14:23:00",30
"PDS2014","MA","PDS2014-0005",196,NA,NA,NA,"GROSPATH","Gross Pathological Examination",NA,"NORMAL","NORMAL",NA,NA,NA,"ARTERY, AORTA",NA,NA,NA,NA,NA,NA,"SUPERVISING PATHOLOGIST",NA,NA,"2011-01-09T14:23:00",30
"PDS2014","MA","PDS2014-0005",197,NA,NA,NA,"GROSPATH","Gross Pathological Examination",NA,"NORMAL","NORMAL",NA,NA,NA,"SPLEEN",NA,NA,NA,NA,NA,NA,"SUPERVISING PATHOLOGIST",NA,NA,"2011-01-09T14:23:00",30
"PDS2014","MA","PDS2014-0005",198,NA,NA,NA,"GROSPATH","Gross Pathological Examination",NA,"NORMAL","NORMAL",NA,NA,NA,"PANCREAS",NA,NA,NA,NA,NA,NA,"SUPERVISING PATHOLOGIST",NA,NA,"2011-01-09T14:23:00",30
"PDS2014","MA","PDS2014-0005",199,NA,NA,NA,"GROSPATH","Gross Pathological Examination",NA,"NORMAL","NORMAL",NA,NA,NA,"STOMACH",NA,NA,NA,NA,NA,NA,"SUPERVISING PATHOLOGIST",NA,NA,"2011-01-09T14:23:00",30
"PDS2014","MA","PDS2014-0005",200,NA,NA,NA,"GROSPATH","Gross Pathological Examination",NA,"NORMAL","NORMAL",NA,NA,NA,"SMALL INTESTINE, DUODENUM",NA,NA,NA,NA,NA,NA,"SUPERVISING PATHOLOGIST",NA,NA,"2011-01-09T14:23:00",30
"PDS2014","MA","PDS2014-0005",201,NA,NA,NA,"GROSPATH","Gross Pathological Examination",NA,"NORMAL","NORMAL",NA,NA,NA,"SMALL INTESTINE, JEJUNUM",NA,NA,NA,NA,NA,NA,"SUPERVISING PATHOLOGIST",NA,NA,"2011-01-09T14:23:00",30
"PDS2014","MA","PDS2014-0005",202,NA,NA,NA,"GROSPATH","Gross Pathological Examination",NA,"NORMAL","NORMAL",NA,NA,NA,"LYMPH NODE, MESENTERIC",NA,NA,NA,NA,NA,NA,"SUPERVISING PATHOLOGIST",NA,NA,"2011-01-09T14:23:00",30
"PDS2014","MA","PDS2014-0005",203,NA,NA,NA,"GROSPATH","Gross Pathological Examination",NA,"NORMAL","NORMAL",NA,NA,NA,"LARGE INTESTINE, CECUM",NA,NA,NA,NA,NA,NA,"SUPERVISING PATHOLOGIST",NA,NA,"2011-01-09T14:23:00",30
"PDS2014","MA","PDS2014-0005",204,NA,NA,NA,"GROSPATH","Gross Pathological Examination",NA,"NORMAL","NORMAL",NA,NA,NA,"LARGE INTESTINE, COLON",NA,NA,NA,NA,NA,NA,"SUPERVISING PATHOLOGIST",NA,NA,"2011-01-09T14:23:00",30
"PDS2014","MA","PDS2014-0005",205,NA,NA,NA,"GROSPATH","Gross Pathological Examination",NA,"NORMAL","NORMAL",NA,NA,NA,"SMALL INTESTINE, ILEUM",NA,NA,NA,NA,NA,NA,"SUPERVISING PATHOLOGIST",NA,NA,"2011-01-09T14:23:00",30
"PDS2014","MA","PDS2014-0005",206,NA,NA,NA,"GROSPATH","Gross Pathological Examination",NA,"NORMAL","NORMAL",NA,NA,NA,"GLAND, ADRENAL",NA,NA,NA,NA,NA,NA,"SUPERVISING PATHOLOGIST",NA,NA,"2011-01-09T14:23:00",30
"PDS2014","MA","PDS2014-0005",207,NA,NA,NA,"GROSPATH","Gross Pathological Examination",NA,"NORMAL","NORMAL",NA,NA,NA,"URETER",NA,NA,NA,NA,NA,NA,"SUPERVISING PATHOLOGIST",NA,NA,"2011-01-09T14:23:00",30
"PDS2014","MA","PDS2014-0005",208,NA,NA,NA,"GROSPATH","Gross Pathological Examination",NA,"NORMAL","NORMAL",NA,NA,NA,"KIDNEY",NA,NA,NA,NA,NA,NA,"SUPERVISING PATHOLOGIST",NA,NA,"2011-01-09T14:23:00",30
"PDS2014","MA","PDS2014-0005",209,NA,NA,NA,"GROSPATH","Gross Pathological Examination",NA,"NORMAL","NORMAL",NA,NA,NA,"URINARY BLADDER",NA,NA,NA,NA,NA,NA,"SUPERVISING PATHOLOGIST",NA,NA,"2011-01-09T14:23:00",30
"PDS2014","MA","PDS2014-0005",210,NA,NA,NA,"GROSPATH","Gross Pathological Examination",NA,"NORMAL","NORMAL",NA,NA,NA,"TESTIS",NA,NA,NA,NA,NA,NA,"SUPERVISING PATHOLOGIST",NA,NA,"2011-01-09T14:23:00",30
"PDS2014","MA","PDS2014-0005",211,NA,NA,NA,"GROSPATH","Gross Pathological Examination",NA,"NORMAL","NORMAL",NA,NA,NA,"EPIDIDYMIS",NA,NA,NA,NA,NA,NA,"SUPERVISING PATHOLOGIST",NA,NA,"2011-01-09T14:23:00",30
"PDS2014","MA","PDS2014-0005",212,NA,NA,NA,"GROSPATH","Gross Pathological Examination",NA,"NORMAL","NORMAL",NA,NA,NA,"GLAND, PROSTATE",NA,NA,NA,NA,NA,NA,"SUPERVISING PATHOLOGIST",NA,NA,"2011-01-09T14:23:00",30
"PDS2014","MA","PDS2014-0005",213,NA,NA,NA,"GROSPATH","Gross Pathological Examination",NA,"NORMAL","NORMAL",NA,NA,NA,"GLAND, SEMINAL VESICLE",NA,NA,NA,NA,NA,NA,"SUPERVISING PATHOLOGIST",NA,NA,"2011-01-09T14:23:00",30
"PDS2014","MA","PDS2014-0005",214,NA,NA,NA,"GROSPATH","Gross Pathological Examination",NA,"NORMAL","NORMAL",NA,NA,NA,"SITE, MICROCHIP",NA,NA,NA,NA,NA,NA,"SUPERVISING PATHOLOGIST",NA,NA,"2011-01-09T14:23:00",30
"PDS2014","MA","PDS2014-0005",215,NA,NA,NA,"GROSPATH","Gross Pathological Examination",NA,"NORMAL","NORMAL",NA,NA,NA,"LARGE INTESTINE, RECTUM",NA,NA,NA,NA,NA,NA,"SUPERVISING PATHOLOGIST",NA,NA,"2011-01-09T14:23:00",30
"PDS2014","MA","PDS2014-0005",216,NA,NA,NA,"GROSPATH","Gross Pathological Examination",NA,"NORMAL","NORMAL",NA,NA,NA,"BONE MARROW, FEMUR",NA,NA,NA,NA,NA,NA,"SUPERVISING PATHOLOGIST",NA,NA,"2011-01-09T14:23:00",30
"PDS2014","MA","PDS2014-0006",217,NA,NA,NA,"GROSPATH","Gross Pathological Examination",NA,"focus/area discolored, one, between 3 and 6 mm, red, fixed in a separate cassette","focus/area discolored",NA,NA,NA,"SUBCUTIS","lumbar",NA,NA,NA,NA,NA,"SUPERVISING PATHOLOGIST",NA,NA,"2011-01-10T10:30:00",31
"PDS2014","MA","PDS2014-0006",218,NA,NA,NA,"GROSPATH","Gross Pathological Examination",NA,"NORMAL","NORMAL",NA,NA,NA,"NERVE, SCIATIC",NA,NA,NA,NA,NA,NA,"SUPERVISING PATHOLOGIST",NA,NA,"2011-01-10T10:30:00",31
"PDS2014","MA","PDS2014-0006",219,NA,NA,NA,"GROSPATH","Gross Pathological Examination",NA,"NORMAL","NORMAL",NA,NA,NA,"MUSCLE, QUADRICEPS FEMORIS",NA,NA,NA,NA,NA,NA,"SUPERVISING PATHOLOGIST",NA,NA,"2011-01-10T10:30:00",31
"PDS2014","MA","PDS2014-0006",220,NA,NA,NA,"GROSPATH","Gross Pathological Examination",NA,"NORMAL","NORMAL",NA,NA,NA,"GLAND, SALIVARY, PAROTID",NA,NA,NA,NA,NA,NA,"SUPERVISING PATHOLOGIST",NA,NA,"2011-01-10T10:30:00",31
"PDS2014","MA","PDS2014-0006",221,NA,NA,NA,"GROSPATH","Gross Pathological Examination",NA,"NORMAL","NORMAL",NA,NA,NA,"GLAND, THYROID",NA,NA,NA,NA,NA,NA,"SUPERVISING PATHOLOGIST",NA,NA,"2011-01-10T10:30:00",31
"PDS2014","MA","PDS2014-0006",222,NA,NA,NA,"GROSPATH","Gross Pathological Examination",NA,"NORMAL","NORMAL",NA,NA,NA,"GLAND, PARATHYROID",NA,NA,NA,NA,NA,NA,"SUPERVISING PATHOLOGIST",NA,NA,"2011-01-10T10:30:00",31
"PDS2014","MA","PDS2014-0006",223,NA,NA,NA,"GROSPATH","Gross Pathological Examination",NA,"NORMAL","NORMAL",NA,NA,NA,"LARYNX",NA,NA,NA,NA,NA,NA,"SUPERVISING PATHOLOGIST",NA,NA,"2011-01-10T10:30:00",31
"PDS2014","MA","PDS2014-0006",224,NA,NA,NA,"GROSPATH","Gross Pathological Examination",NA,"NORMAL","NORMAL",NA,NA,NA,"BRAIN",NA,NA,NA,NA,NA,NA,"SUPERVISING PATHOLOGIST",NA,NA,"2011-01-10T10:30:00",31
"PDS2014","MA","PDS2014-0006",225,NA,NA,NA,"GROSPATH","Gross Pathological Examination",NA,"NORMAL","NORMAL",NA,NA,NA,"GLAND, PITUITARY",NA,NA,NA,NA,NA,NA,"SUPERVISING PATHOLOGIST",NA,NA,"2011-01-10T10:30:00",31
"PDS2014","MA","PDS2014-0006",226,NA,NA,NA,"GROSPATH","Gross Pathological Examination",NA,"NORMAL","NORMAL",NA,NA,NA,"EYE",NA,NA,NA,NA,NA,NA,"SUPERVISING PATHOLOGIST",NA,NA,"2011-01-10T10:30:00",31
"PDS2014","MA","PDS2014-0006",227,NA,NA,NA,"GROSPATH","Gross Pathological Examination",NA,"NORMAL","NORMAL",NA,NA,NA,"GLAND, HARDERIAN",NA,NA,NA,NA,NA,NA,"SUPERVISING PATHOLOGIST",NA,NA,"2011-01-10T10:30:00",31
"PDS2014","MA","PDS2014-0006",228,NA,NA,NA,"GROSPATH","Gross Pathological Examination",NA,"NORMAL","NORMAL",NA,NA,NA,"NOSE",NA,NA,NA,NA,NA,NA,"SUPERVISING PATHOLOGIST",NA,NA,"2011-01-10T10:30:00",31
"PDS2014","MA","PDS2014-0006",229,NA,NA,NA,"GROSPATH","Gross Pathological Examination",NA,"NORMAL","NORMAL",NA,NA,NA,"TONGUE",NA,NA,NA,NA,NA,NA,"SUPERVISING PATHOLOGIST",NA,NA,"2011-01-10T10:30:00",31
"PDS2014","MA","PDS2014-0006",230,NA,NA,NA,"GROSPATH","Gross Pathological Examination",NA,"NORMAL","NORMAL",NA,NA,NA,"SKIN",NA,NA,NA,NA,NA,NA,"SUPERVISING PATHOLOGIST",NA,NA,"2011-01-10T10:30:00",31
"PDS2014","MA","PDS2014-0006",231,NA,NA,NA,"GROSPATH","Gross Pathological Examination",NA,"NORMAL","NORMAL",NA,NA,NA,"GLAND, PREPUTIAL",NA,NA,NA,NA,NA,NA,"SUPERVISING PATHOLOGIST",NA,NA,"2011-01-10T10:30:00",31
"PDS2014","MA","PDS2014-0006",232,NA,NA,NA,"GROSPATH","Gross Pathological Examination",NA,"NORMAL","NORMAL",NA,NA,NA,"GLAND, MAMMARY",NA,NA,NA,NA,NA,NA,"SUPERVISING PATHOLOGIST",NA,NA,"2011-01-10T10:30:00",31
"PDS2014","MA","PDS2014-0006",233,NA,NA,NA,"GROSPATH","Gross Pathological Examination",NA,"NORMAL","NORMAL",NA,NA,NA,"BONE MARROW, STERNUM",NA,NA,NA,NA,NA,NA,"SUPERVISING PATHOLOGIST",NA,NA,"2011-01-10T10:30:00",31
"PDS2014","MA","PDS2014-0006",234,NA,NA,NA,"GROSPATH","Gross Pathological Examination",NA,"NORMAL","NORMAL",NA,NA,NA,"THYMUS",NA,NA,NA,NA,NA,NA,"SUPERVISING PATHOLOGIST",NA,NA,"2011-01-10T10:30:00",31
"PDS2014","MA","PDS2014-0006",235,NA,NA,NA,"GROSPATH","Gross Pathological Examination",NA,"NORMAL","NORMAL",NA,NA,NA,"HEART",NA,NA,NA,NA,NA,NA,"SUPERVISING PATHOLOGIST",NA,NA,"2011-01-10T10:30:00",31
"PDS2014","MA","PDS2014-0006",236,NA,NA,NA,"GROSPATH","Gross Pathological Examination",NA,"NORMAL","NORMAL",NA,NA,NA,"TRACHEA",NA,NA,NA,NA,NA,NA,"SUPERVISING PATHOLOGIST",NA,NA,"2011-01-10T10:30:00",31
"PDS2014","MA","PDS2014-0006",237,NA,NA,NA,"GROSPATH","Gross Pathological Examination",NA,"NORMAL","NORMAL",NA,NA,NA,"LUNG",NA,NA,NA,NA,NA,NA,"SUPERVISING PATHOLOGIST",NA,NA,"2011-01-10T10:30:00",31
"PDS2014","MA","PDS2014-0006",238,NA,NA,NA,"GROSPATH","Gross Pathological Examination",NA,"NORMAL","NORMAL",NA,NA,NA,"ESOPHAGUS",NA,NA,NA,NA,NA,NA,"SUPERVISING PATHOLOGIST",NA,NA,"2011-01-10T10:30:00",31
"PDS2014","MA","PDS2014-0006",239,NA,NA,NA,"GROSPATH","Gross Pathological Examination",NA,"NORMAL","NORMAL",NA,NA,NA,"ARTERY, AORTA",NA,NA,NA,NA,NA,NA,"SUPERVISING PATHOLOGIST",NA,NA,"2011-01-10T10:30:00",31
"PDS2014","MA","PDS2014-0006",240,NA,NA,NA,"GROSPATH","Gross Pathological Examination",NA,"NORMAL","NORMAL",NA,NA,NA,"SPLEEN",NA,NA,NA,NA,NA,NA,"SUPERVISING PATHOLOGIST",NA,NA,"2011-01-10T10:30:00",31
"PDS2014","MA","PDS2014-0006",241,NA,NA,NA,"GROSPATH","Gross Pathological Examination",NA,"NORMAL","NORMAL",NA,NA,NA,"PANCREAS",NA,NA,NA,NA,NA,NA,"SUPERVISING PATHOLOGIST",NA,NA,"2011-01-10T10:30:00",31
"PDS2014","MA","PDS2014-0006",242,NA,NA,NA,"GROSPATH","Gross Pathological Examination",NA,"NORMAL","NORMAL",NA,NA,NA,"STOMACH",NA,NA,NA,NA,NA,NA,"SUPERVISING PATHOLOGIST",NA,NA,"2011-01-10T10:30:00",31
"PDS2014","MA","PDS2014-0006",243,NA,NA,NA,"GROSPATH","Gross Pathological Examination",NA,"NORMAL","NORMAL",NA,NA,NA,"SMALL INTESTINE, DUODENUM",NA,NA,NA,NA,NA,NA,"SUPERVISING PATHOLOGIST",NA,NA,"2011-01-10T10:30:00",31
"PDS2014","MA","PDS2014-0006",244,NA,NA,NA,"GROSPATH","Gross Pathological Examination",NA,"NORMAL","NORMAL",NA,NA,NA,"SMALL INTESTINE, JEJUNUM",NA,NA,NA,NA,NA,NA,"SUPERVISING PATHOLOGIST",NA,NA,"2011-01-10T10:30:00",31
"PDS2014","MA","PDS2014-0006",245,NA,NA,NA,"GROSPATH","Gross Pathological Examination",NA,"NORMAL","NORMAL",NA,NA,NA,"LYMPH NODE, MESENTERIC",NA,NA,NA,NA,NA,NA,"SUPERVISING PATHOLOGIST",NA,NA,"2011-01-10T10:30:00",31
"PDS2014","MA","PDS2014-0006",246,NA,NA,NA,"GROSPATH","Gross Pathological Examination",NA,"NORMAL","NORMAL",NA,NA,NA,"LARGE INTESTINE, CECUM",NA,NA,NA,NA,NA,NA,"SUPERVISING PATHOLOGIST",NA,NA,"2011-01-10T10:30:00",31
"PDS2014","MA","PDS2014-0006",247,NA,NA,NA,"GROSPATH","Gross Pathological Examination",NA,"NORMAL","NORMAL",NA,NA,NA,"LARGE INTESTINE, COLON",NA,NA,NA,NA,NA,NA,"SUPERVISING PATHOLOGIST",NA,NA,"2011-01-10T10:30:00",31
"PDS2014","MA","PDS2014-0006",248,NA,NA,NA,"GROSPATH","Gross Pathological Examination",NA,"NORMAL","NORMAL",NA,NA,NA,"SMALL INTESTINE, ILEUM",NA,NA,NA,NA,NA,NA,"SUPERVISING PATHOLOGIST",NA,NA,"2011-01-10T10:30:00",31
"PDS2014","MA","PDS2014-0006",249,NA,NA,NA,"GROSPATH","Gross Pathological Examination",NA,"NORMAL","NORMAL",NA,NA,NA,"LIVER",NA,NA,NA,NA,NA,NA,"SUPERVISING PATHOLOGIST",NA,NA,"2011-01-10T10:30:00",31
"PDS2014","MA","PDS2014-0006",250,NA,NA,NA,"GROSPATH","Gross Pathological Examination",NA,"NORMAL","NORMAL",NA,NA,NA,"GLAND, ADRENAL",NA,NA,NA,NA,NA,NA,"SUPERVISING PATHOLOGIST",NA,NA,"2011-01-10T10:30:00",31
"PDS2014","MA","PDS2014-0006",251,NA,NA,NA,"GROSPATH","Gross Pathological Examination",NA,"NORMAL","NORMAL",NA,NA,NA,"URETER",NA,NA,NA,NA,NA,NA,"SUPERVISING PATHOLOGIST",NA,NA,"2011-01-10T10:30:00",31
"PDS2014","MA","PDS2014-0006",252,NA,NA,NA,"GROSPATH","Gross Pathological Examination",NA,"NORMAL","NORMAL",NA,NA,NA,"KIDNEY",NA,NA,NA,NA,NA,NA,"SUPERVISING PATHOLOGIST",NA,NA,"2011-01-10T10:30:00",31
"PDS2014","MA","PDS2014-0006",253,NA,NA,NA,"GROSPATH","Gross Pathological Examination",NA,"NORMAL","NORMAL",NA,NA,NA,"URINARY BLADDER",NA,NA,NA,NA,NA,NA,"SUPERVISING PATHOLOGIST",NA,NA,"2011-01-10T10:30:00",31
"PDS2014","MA","PDS2014-0006",254,NA,NA,NA,"GROSPATH","Gross Pathological Examination",NA,"NORMAL","NORMAL",NA,NA,NA,"TESTIS",NA,NA,NA,NA,NA,NA,"SUPERVISING PATHOLOGIST",NA,NA,"2011-01-10T10:30:00",31
"PDS2014","MA","PDS2014-0006",255,NA,NA,NA,"GROSPATH","Gross Pathological Examination",NA,"NORMAL","NORMAL",NA,NA,NA,"EPIDIDYMIS",NA,NA,NA,NA,NA,NA,"SUPERVISING PATHOLOGIST",NA,NA,"2011-01-10T10:30:00",31
"PDS2014","MA","PDS2014-0006",256,NA,NA,NA,"GROSPATH","Gross Pathological Examination",NA,"NORMAL","NORMAL",NA,NA,NA,"GLAND, PROSTATE",NA,NA,NA,NA,NA,NA,"SUPERVISING PATHOLOGIST",NA,NA,"2011-01-10T10:30:00",31
"PDS2014","MA","PDS2014-0006",257,NA,NA,NA,"GROSPATH","Gross Pathological Examination",NA,"NORMAL","NORMAL",NA,NA,NA,"GLAND, SEMINAL VESICLE",NA,NA,NA,NA,NA,NA,"SUPERVISING PATHOLOGIST",NA,NA,"2011-01-10T10:30:00",31
"PDS2014","MA","PDS2014-0006",258,NA,NA,NA,"GROSPATH","Gross Pathological Examination",NA,"NORMAL","NORMAL",NA,NA,NA,"SITE, MICROCHIP",NA,NA,NA,NA,NA,NA,"SUPERVISING PATHOLOGIST",NA,NA,"2011-01-10T10:30:00",31
"PDS2014","MA","PDS2014-0006",259,NA,NA,NA,"GROSPATH","Gross Pathological Examination",NA,"NORMAL","NORMAL",NA,NA,NA,"LARGE INTESTINE, RECTUM",NA,NA,NA,NA,NA,NA,"SUPERVISING PATHOLOGIST",NA,NA,"2011-01-10T10:30:00",31
"PDS2014","MA","PDS2014-0006",260,NA,NA,NA,"GROSPATH","Gross Pathological Examination",NA,"NORMAL","NORMAL",NA,NA,NA,"BONE MARROW, FEMUR",NA,NA,NA,NA,NA,NA,"SUPERVISING PATHOLOGIST",NA,NA,"2011-01-10T10:30:00",31
"PDS2014","MA","PDS2014-0007",261,NA,NA,NA,"GROSPATH","Gross Pathological Examination",NA,"tissue damaged after necropsy","tissue damaged after necropsy",NA,NA,NA,"GLAND, PITUITARY",NA,NA,NA,NA,NA,NA,"SUPERVISING PATHOLOGIST",NA,NA,"2011-01-10T13:46:00",31
"PDS2014","MA","PDS2014-0007",262,NA,NA,NA,"GROSPATH","Gross Pathological Examination",NA,"NORMAL","NORMAL",NA,NA,NA,"NERVE, SCIATIC",NA,NA,NA,NA,NA,NA,"SUPERVISING PATHOLOGIST",NA,NA,"2011-01-10T13:46:00",31
"PDS2014","MA","PDS2014-0007",263,NA,NA,NA,"GROSPATH","Gross Pathological Examination",NA,"NORMAL","NORMAL",NA,NA,NA,"MUSCLE, QUADRICEPS FEMORIS",NA,NA,NA,NA,NA,NA,"SUPERVISING PATHOLOGIST",NA,NA,"2011-01-10T13:46:00",31
"PDS2014","MA","PDS2014-0007",264,NA,NA,NA,"GROSPATH","Gross Pathological Examination",NA,"NORMAL","NORMAL",NA,NA,NA,"GLAND, SALIVARY, PAROTID",NA,NA,NA,NA,NA,NA,"SUPERVISING PATHOLOGIST",NA,NA,"2011-01-10T13:46:00",31
"PDS2014","MA","PDS2014-0007",265,NA,NA,NA,"GROSPATH","Gross Pathological Examination",NA,"NORMAL","NORMAL",NA,NA,NA,"GLAND, THYROID",NA,NA,NA,NA,NA,NA,"SUPERVISING PATHOLOGIST",NA,NA,"2011-01-10T13:46:00",31
"PDS2014","MA","PDS2014-0007",266,NA,NA,NA,"GROSPATH","Gross Pathological Examination",NA,"NORMAL","NORMAL",NA,NA,NA,"GLAND, PARATHYROID",NA,NA,NA,NA,NA,NA,"SUPERVISING PATHOLOGIST",NA,NA,"2011-01-10T13:46:00",31
"PDS2014","MA","PDS2014-0007",267,NA,NA,NA,"GROSPATH","Gross Pathological Examination",NA,"NORMAL","NORMAL",NA,NA,NA,"LARYNX",NA,NA,NA,NA,NA,NA,"SUPERVISING PATHOLOGIST",NA,NA,"2011-01-10T13:46:00",31
"PDS2014","MA","PDS2014-0007",268,NA,NA,NA,"GROSPATH","Gross Pathological Examination",NA,"NORMAL","NORMAL",NA,NA,NA,"BRAIN",NA,NA,NA,NA,NA,NA,"SUPERVISING PATHOLOGIST",NA,NA,"2011-01-10T13:46:00",31
"PDS2014","MA","PDS2014-0007",269,NA,NA,NA,"GROSPATH","Gross Pathological Examination",NA,"NORMAL","NORMAL",NA,NA,NA,"EYE",NA,NA,NA,NA,NA,NA,"SUPERVISING PATHOLOGIST",NA,NA,"2011-01-10T13:46:00",31
"PDS2014","MA","PDS2014-0007",270,NA,NA,NA,"GROSPATH","Gross Pathological Examination",NA,"NORMAL","NORMAL",NA,NA,NA,"GLAND, HARDERIAN",NA,NA,NA,NA,NA,NA,"SUPERVISING PATHOLOGIST",NA,NA,"2011-01-10T13:46:00",31
"PDS2014","MA","PDS2014-0007",271,NA,NA,NA,"GROSPATH","Gross Pathological Examination",NA,"NORMAL","NORMAL",NA,NA,NA,"NOSE",NA,NA,NA,NA,NA,NA,"SUPERVISING PATHOLOGIST",NA,NA,"2011-01-10T13:46:00",31
"PDS2014","MA","PDS2014-0007",272,NA,NA,NA,"GROSPATH","Gross Pathological Examination",NA,"NORMAL","NORMAL",NA,NA,NA,"TONGUE",NA,NA,NA,NA,NA,NA,"SUPERVISING PATHOLOGIST",NA,NA,"2011-01-10T13:46:00",31
"PDS2014","MA","PDS2014-0007",273,NA,NA,NA,"GROSPATH","Gross Pathological Examination",NA,"NORMAL","NORMAL",NA,NA,NA,"SKIN",NA,NA,NA,NA,NA,NA,"SUPERVISING PATHOLOGIST",NA,NA,"2011-01-10T13:46:00",31
"PDS2014","MA","PDS2014-0007",274,NA,NA,NA,"GROSPATH","Gross Pathological Examination",NA,"NORMAL","NORMAL",NA,NA,NA,"GLAND, PREPUTIAL",NA,NA,NA,NA,NA,NA,"SUPERVISING PATHOLOGIST",NA,NA,"2011-01-10T13:46:00",31
"PDS2014","MA","PDS2014-0007",275,NA,NA,NA,"GROSPATH","Gross Pathological Examination",NA,"NORMAL","NORMAL",NA,NA,NA,"GLAND, MAMMARY",NA,NA,NA,NA,NA,NA,"SUPERVISING PATHOLOGIST",NA,NA,"2011-01-10T13:46:00",31
"PDS2014","MA","PDS2014-0007",276,NA,NA,NA,"GROSPATH","Gross Pathological Examination",NA,"NORMAL","NORMAL",NA,NA,NA,"BONE MARROW, STERNUM",NA,NA,NA,NA,NA,NA,"SUPERVISING PATHOLOGIST",NA,NA,"2011-01-10T13:46:00",31
"PDS2014","MA","PDS2014-0007",277,NA,NA,NA,"GROSPATH","Gross Pathological Examination",NA,"NORMAL","NORMAL",NA,NA,NA,"THYMUS",NA,NA,NA,NA,NA,NA,"SUPERVISING PATHOLOGIST",NA,NA,"2011-01-10T13:46:00",31
"PDS2014","MA","PDS2014-0007",278,NA,NA,NA,"GROSPATH","Gross Pathological Examination",NA,"NORMAL","NORMAL",NA,NA,NA,"HEART",NA,NA,NA,NA,NA,NA,"SUPERVISING PATHOLOGIST",NA,NA,"2011-01-10T13:46:00",31
"PDS2014","MA","PDS2014-0007",279,NA,NA,NA,"GROSPATH","Gross Pathological Examination",NA,"NORMAL","NORMAL",NA,NA,NA,"TRACHEA",NA,NA,NA,NA,NA,NA,"SUPERVISING PATHOLOGIST",NA,NA,"2011-01-10T13:46:00",31
"PDS2014","MA","PDS2014-0007",280,NA,NA,NA,"GROSPATH","Gross Pathological Examination",NA,"NORMAL","NORMAL",NA,NA,NA,"LUNG",NA,NA,NA,NA,NA,NA,"SUPERVISING PATHOLOGIST",NA,NA,"2011-01-10T13:46:00",31
"PDS2014","MA","PDS2014-0007",281,NA,NA,NA,"GROSPATH","Gross Pathological Examination",NA,"NORMAL","NORMAL",NA,NA,NA,"ESOPHAGUS",NA,NA,NA,NA,NA,NA,"SUPERVISING PATHOLOGIST",NA,NA,"2011-01-10T13:46:00",31
"PDS2014","MA","PDS2014-0007",282,NA,NA,NA,"GROSPATH","Gross Pathological Examination",NA,"NORMAL","NORMAL",NA,NA,NA,"ARTERY, AORTA",NA,NA,NA,NA,NA,NA,"SUPERVISING PATHOLOGIST",NA,NA,"2011-01-10T13:46:00",31
"PDS2014","MA","PDS2014-0007",283,NA,NA,NA,"GROSPATH","Gross Pathological Examination",NA,"NORMAL","NORMAL",NA,NA,NA,"SPLEEN",NA,NA,NA,NA,NA,NA,"SUPERVISING PATHOLOGIST",NA,NA,"2011-01-10T13:46:00",31
"PDS2014","MA","PDS2014-0007",284,NA,NA,NA,"GROSPATH","Gross Pathological Examination",NA,"NORMAL","NORMAL",NA,NA,NA,"PANCREAS",NA,NA,NA,NA,NA,NA,"SUPERVISING PATHOLOGIST",NA,NA,"2011-01-10T13:46:00",31
"PDS2014","MA","PDS2014-0007",285,NA,NA,NA,"GROSPATH","Gross Pathological Examination",NA,"NORMAL","NORMAL",NA,NA,NA,"STOMACH",NA,NA,NA,NA,NA,NA,"SUPERVISING PATHOLOGIST",NA,NA,"2011-01-10T13:46:00",31
"PDS2014","MA","PDS2014-0007",286,NA,NA,NA,"GROSPATH","Gross Pathological Examination",NA,"NORMAL","NORMAL",NA,NA,NA,"SMALL INTESTINE, DUODENUM",NA,NA,NA,NA,NA,NA,"SUPERVISING PATHOLOGIST",NA,NA,"2011-01-10T13:46:00",31
"PDS2014","MA","PDS2014-0007",287,NA,NA,NA,"GROSPATH","Gross Pathological Examination",NA,"NORMAL","NORMAL",NA,NA,NA,"SMALL INTESTINE, JEJUNUM",NA,NA,NA,NA,NA,NA,"SUPERVISING PATHOLOGIST",NA,NA,"2011-01-10T13:46:00",31
"PDS2014","MA","PDS2014-0007",288,NA,NA,NA,"GROSPATH","Gross Pathological Examination",NA,"NORMAL","NORMAL",NA,NA,NA,"LYMPH NODE, MESENTERIC",NA,NA,NA,NA,NA,NA,"SUPERVISING PATHOLOGIST",NA,NA,"2011-01-10T13:46:00",31
"PDS2014","MA","PDS2014-0007",289,NA,NA,NA,"GROSPATH","Gross Pathological Examination",NA,"NORMAL","NORMAL",NA,NA,NA,"LARGE INTESTINE, CECUM",NA,NA,NA,NA,NA,NA,"SUPERVISING PATHOLOGIST",NA,NA,"2011-01-10T13:46:00",31
"PDS2014","MA","PDS2014-0007",290,NA,NA,NA,"GROSPATH","Gross Pathological Examination",NA,"NORMAL","NORMAL",NA,NA,NA,"LARGE INTESTINE, COLON",NA,NA,NA,NA,NA,NA,"SUPERVISING PATHOLOGIST",NA,NA,"2011-01-10T13:46:00",31
"PDS2014","MA","PDS2014-0007",291,NA,NA,NA,"GROSPATH","Gross Pathological Examination",NA,"NORMAL","NORMAL",NA,NA,NA,"SMALL INTESTINE, ILEUM",NA,NA,NA,NA,NA,NA,"SUPERVISING PATHOLOGIST",NA,NA,"2011-01-10T13:46:00",31
"PDS2014","MA","PDS2014-0007",292,NA,NA,NA,"GROSPATH","Gross Pathological Examination",NA,"NORMAL","NORMAL",NA,NA,NA,"LIVER",NA,NA,NA,NA,NA,NA,"SUPERVISING PATHOLOGIST",NA,NA,"2011-01-10T13:46:00",31
"PDS2014","MA","PDS2014-0007",293,NA,NA,NA,"GROSPATH","Gross Pathological Examination",NA,"NORMAL","NORMAL",NA,NA,NA,"GLAND, ADRENAL",NA,NA,NA,NA,NA,NA,"SUPERVISING PATHOLOGIST",NA,NA,"2011-01-10T13:46:00",31
"PDS2014","MA","PDS2014-0007",294,NA,NA,NA,"GROSPATH","Gross Pathological Examination",NA,"NORMAL","NORMAL",NA,NA,NA,"URETER",NA,NA,NA,NA,NA,NA,"SUPERVISING PATHOLOGIST",NA,NA,"2011-01-10T13:46:00",31
"PDS2014","MA","PDS2014-0007",295,NA,NA,NA,"GROSPATH","Gross Pathological Examination",NA,"NORMAL","NORMAL",NA,NA,NA,"KIDNEY",NA,NA,NA,NA,NA,NA,"SUPERVISING PATHOLOGIST",NA,NA,"2011-01-10T13:46:00",31
"PDS2014","MA","PDS2014-0007",296,NA,NA,NA,"GROSPATH","Gross Pathological Examination",NA,"NORMAL","NORMAL",NA,NA,NA,"URINARY BLADDER",NA,NA,NA,NA,NA,NA,"SUPERVISING PATHOLOGIST",NA,NA,"2011-01-10T13:46:00",31
"PDS2014","MA","PDS2014-0007",297,NA,NA,NA,"GROSPATH","Gross Pathological Examination",NA,"NORMAL","NORMAL",NA,NA,NA,"TESTIS",NA,NA,NA,NA,NA,NA,"SUPERVISING PATHOLOGIST",NA,NA,"2011-01-10T13:46:00",31
"PDS2014","MA","PDS2014-0007",298,NA,NA,NA,"GROSPATH","Gross Pathological Examination",NA,"NORMAL","NORMAL",NA,NA,NA,"EPIDIDYMIS",NA,NA,NA,NA,NA,NA,"SUPERVISING PATHOLOGIST",NA,NA,"2011-01-10T13:46:00",31
"PDS2014","MA","PDS2014-0007",299,NA,NA,NA,"GROSPATH","Gross Pathological Examination",NA,"NORMAL","NORMAL",NA,NA,NA,"GLAND, PROSTATE",NA,NA,NA,NA,NA,NA,"SUPERVISING PATHOLOGIST",NA,NA,"2011-01-10T13:46:00",31
"PDS2014","MA","PDS2014-0007",300,NA,NA,NA,"GROSPATH","Gross Pathological Examination",NA,"NORMAL","NORMAL",NA,NA,NA,"GLAND, SEMINAL VESICLE",NA,NA,NA,NA,NA,NA,"SUPERVISING PATHOLOGIST",NA,NA,"2011-01-10T13:46:00",31
"PDS2014","MA","PDS2014-0007",301,NA,NA,NA,"GROSPATH","Gross Pathological Examination",NA,"NORMAL","NORMAL",NA,NA,NA,"SITE, MICROCHIP",NA,NA,NA,NA,NA,NA,"SUPERVISING PATHOLOGIST",NA,NA,"2011-01-10T13:46:00",31
"PDS2014","MA","PDS2014-0007",302,NA,NA,NA,"GROSPATH","Gross Pathological Examination",NA,"NORMAL","NORMAL",NA,NA,NA,"LARGE INTESTINE, RECTUM",NA,NA,NA,NA,NA,NA,"SUPERVISING PATHOLOGIST",NA,NA,"2011-01-10T13:46:00",31
"PDS2014","MA","PDS2014-0007",303,NA,NA,NA,"GROSPATH","Gross Pathological Examination",NA,"NORMAL","NORMAL",NA,NA,NA,"BONE MARROW, FEMUR",NA,NA,NA,NA,NA,NA,"SUPERVISING PATHOLOGIST",NA,NA,"2011-01-10T13:46:00",31
"PDS2014","MA","PDS2014-0008",304,NA,NA,NA,"GROSPATH","Gross Pathological Examination",NA,"swollen, moderate degree","swollen",NA,NA,NA,"LYMPH NODE, POPLITEAL","bilateral",NA,NA,NA,NA,NA,"SUPERVISING PATHOLOGIST",NA,NA,"2011-01-10T10:28:00",31
"PDS2014","MA","PDS2014-0008",305,NA,NA,NA,"GROSPATH","Gross Pathological Examination",NA,"focus/area discolored, one, between 3 and 6 cm, red","focus/area discolored",NA,NA,NA,"SUBCUTIS","lumbar",NA,NA,NA,NA,NA,"SUPERVISING PATHOLOGIST",NA,NA,"2011-01-10T10:28:00",31
"PDS2014","MA","PDS2014-0008",306,NA,NA,NA,"GROSPATH","Gross Pathological Examination",NA,"NORMAL","NORMAL",NA,NA,NA,"NERVE, SCIATIC",NA,NA,NA,NA,NA,NA,"SUPERVISING PATHOLOGIST",NA,NA,"2011-01-10T10:28:00",31
"PDS2014","MA","PDS2014-0008",307,NA,NA,NA,"GROSPATH","Gross Pathological Examination",NA,"NORMAL","NORMAL",NA,NA,NA,"MUSCLE, QUADRICEPS FEMORIS",NA,NA,NA,NA,NA,NA,"SUPERVISING PATHOLOGIST",NA,NA,"2011-01-10T10:28:00",31
"PDS2014","MA","PDS2014-0008",308,NA,NA,NA,"GROSPATH","Gross Pathological Examination",NA,"NORMAL","NORMAL",NA,NA,NA,"GLAND, SALIVARY, PAROTID",NA,NA,NA,NA,NA,NA,"SUPERVISING PATHOLOGIST",NA,NA,"2011-01-10T10:28:00",31
"PDS2014","MA","PDS2014-0008",309,NA,NA,NA,"GROSPATH","Gross Pathological Examination",NA,"NORMAL","NORMAL",NA,NA,NA,"GLAND, THYROID",NA,NA,NA,NA,NA,NA,"SUPERVISING PATHOLOGIST",NA,NA,"2011-01-10T10:28:00",31
"PDS2014","MA","PDS2014-0008",310,NA,NA,NA,"GROSPATH","Gross Pathological Examination",NA,"NORMAL","NORMAL",NA,NA,NA,"GLAND, PARATHYROID",NA,NA,NA,NA,NA,NA,"SUPERVISING PATHOLOGIST",NA,NA,"2011-01-10T10:28:00",31
"PDS2014","MA","PDS2014-0008",311,NA,NA,NA,"GROSPATH","Gross Pathological Examination",NA,"NORMAL","NORMAL",NA,NA,NA,"LARYNX",NA,NA,NA,NA,NA,NA,"SUPERVISING PATHOLOGIST",NA,NA,"2011-01-10T10:28:00",31
"PDS2014","MA","PDS2014-0008",312,NA,NA,NA,"GROSPATH","Gross Pathological Examination",NA,"NORMAL","NORMAL",NA,NA,NA,"BRAIN",NA,NA,NA,NA,NA,NA,"SUPERVISING PATHOLOGIST",NA,NA,"2011-01-10T10:28:00",31
"PDS2014","MA","PDS2014-0008",313,NA,NA,NA,"GROSPATH","Gross Pathological Examination",NA,"NORMAL","NORMAL",NA,NA,NA,"GLAND, PITUITARY",NA,NA,NA,NA,NA,NA,"SUPERVISING PATHOLOGIST",NA,NA,"2011-01-10T10:28:00",31
"PDS2014","MA","PDS2014-0008",314,NA,NA,NA,"GROSPATH","Gross Pathological Examination",NA,"NORMAL","NORMAL",NA,NA,NA,"EYE",NA,NA,NA,NA,NA,NA,"SUPERVISING PATHOLOGIST",NA,NA,"2011-01-10T10:28:00",31
"PDS2014","MA","PDS2014-0008",315,NA,NA,NA,"GROSPATH","Gross Pathological Examination",NA,"NORMAL","NORMAL",NA,NA,NA,"GLAND, HARDERIAN",NA,NA,NA,NA,NA,NA,"SUPERVISING PATHOLOGIST",NA,NA,"2011-01-10T10:28:00",31
"PDS2014","MA","PDS2014-0008",316,NA,NA,NA,"GROSPATH","Gross Pathological Examination",NA,"NORMAL","NORMAL",NA,NA,NA,"NOSE",NA,NA,NA,NA,NA,NA,"SUPERVISING PATHOLOGIST",NA,NA,"2011-01-10T10:28:00",31
"PDS2014","MA","PDS2014-0008",317,NA,NA,NA,"GROSPATH","Gross Pathological Examination",NA,"NORMAL","NORMAL",NA,NA,NA,"TONGUE",NA,NA,NA,NA,NA,NA,"SUPERVISING PATHOLOGIST",NA,NA,"2011-01-10T10:28:00",31
"PDS2014","MA","PDS2014-0008",318,NA,NA,NA,"GROSPATH","Gross Pathological Examination",NA,"NORMAL","NORMAL",NA,NA,NA,"SKIN",NA,NA,NA,NA,NA,NA,"SUPERVISING PATHOLOGIST",NA,NA,"2011-01-10T10:28:00",31
"PDS2014","MA","PDS2014-0008",319,NA,NA,NA,"GROSPATH","Gross Pathological Examination",NA,"NORMAL","NORMAL",NA,NA,NA,"GLAND, PREPUTIAL",NA,NA,NA,NA,NA,NA,"SUPERVISING PATHOLOGIST",NA,NA,"2011-01-10T10:28:00",31
"PDS2014","MA","PDS2014-0008",320,NA,NA,NA,"GROSPATH","Gross Pathological Examination",NA,"NORMAL","NORMAL",NA,NA,NA,"GLAND, MAMMARY",NA,NA,NA,NA,NA,NA,"SUPERVISING PATHOLOGIST",NA,NA,"2011-01-10T10:28:00",31
"PDS2014","MA","PDS2014-0008",321,NA,NA,NA,"GROSPATH","Gross Pathological Examination",NA,"NORMAL","NORMAL",NA,NA,NA,"BONE MARROW, STERNUM",NA,NA,NA,NA,NA,NA,"SUPERVISING PATHOLOGIST",NA,NA,"2011-01-10T10:28:00",31
"PDS2014","MA","PDS2014-0008",322,NA,NA,NA,"GROSPATH","Gross Pathological Examination",NA,"NORMAL","NORMAL",NA,NA,NA,"THYMUS",NA,NA,NA,NA,NA,NA,"SUPERVISING PATHOLOGIST",NA,NA,"2011-01-10T10:28:00",31
"PDS2014","MA","PDS2014-0008",323,NA,NA,NA,"GROSPATH","Gross Pathological Examination",NA,"NORMAL","NORMAL",NA,NA,NA,"HEART",NA,NA,NA,NA,NA,NA,"SUPERVISING PATHOLOGIST",NA,NA,"2011-01-10T10:28:00",31
"PDS2014","MA","PDS2014-0008",324,NA,NA,NA,"GROSPATH","Gross Pathological Examination",NA,"NORMAL","NORMAL",NA,NA,NA,"TRACHEA",NA,NA,NA,NA,NA,NA,"SUPERVISING PATHOLOGIST",NA,NA,"2011-01-10T10:28:00",31
"PDS2014","MA","PDS2014-0008",325,NA,NA,NA,"GROSPATH","Gross Pathological Examination",NA,"NORMAL","NORMAL",NA,NA,NA,"LUNG",NA,NA,NA,NA,NA,NA,"SUPERVISING PATHOLOGIST",NA,NA,"2011-01-10T10:28:00",31
"PDS2014","MA","PDS2014-0008",326,NA,NA,NA,"GROSPATH","Gross Pathological Examination",NA,"NORMAL","NORMAL",NA,NA,NA,"ESOPHAGUS",NA,NA,NA,NA,NA,NA,"SUPERVISING PATHOLOGIST",NA,NA,"2011-01-10T10:28:00",31
"PDS2014","MA","PDS2014-0008",327,NA,NA,NA,"GROSPATH","Gross Pathological Examination",NA,"NORMAL","NORMAL",NA,NA,NA,"ARTERY, AORTA",NA,NA,NA,NA,NA,NA,"SUPERVISING PATHOLOGIST",NA,NA,"2011-01-10T10:28:00",31
"PDS2014","MA","PDS2014-0008",328,NA,NA,NA,"GROSPATH","Gross Pathological Examination",NA,"NORMAL","NORMAL",NA,NA,NA,"SPLEEN",NA,NA,NA,NA,NA,NA,"SUPERVISING PATHOLOGIST",NA,NA,"2011-01-10T10:28:00",31
"PDS2014","MA","PDS2014-0008",329,NA,NA,NA,"GROSPATH","Gross Pathological Examination",NA,"NORMAL","NORMAL",NA,NA,NA,"PANCREAS",NA,NA,NA,NA,NA,NA,"SUPERVISING PATHOLOGIST",NA,NA,"2011-01-10T10:28:00",31
"PDS2014","MA","PDS2014-0008",330,NA,NA,NA,"GROSPATH","Gross Pathological Examination",NA,"NORMAL","NORMAL",NA,NA,NA,"STOMACH",NA,NA,NA,NA,NA,NA,"SUPERVISING PATHOLOGIST",NA,NA,"2011-01-10T10:28:00",31
"PDS2014","MA","PDS2014-0008",331,NA,NA,NA,"GROSPATH","Gross Pathological Examination",NA,"NORMAL","NORMAL",NA,NA,NA,"SMALL INTESTINE, DUODENUM",NA,NA,NA,NA,NA,NA,"SUPERVISING PATHOLOGIST",NA,NA,"2011-01-10T10:28:00",31
"PDS2014","MA","PDS2014-0008",332,NA,NA,NA,"GROSPATH","Gross Pathological Examination",NA,"NORMAL","NORMAL",NA,NA,NA,"SMALL INTESTINE, JEJUNUM",NA,NA,NA,NA,NA,NA,"SUPERVISING PATHOLOGIST",NA,NA,"2011-01-10T10:28:00",31
"PDS2014","MA","PDS2014-0008",333,NA,NA,NA,"GROSPATH","Gross Pathological Examination",NA,"NORMAL","NORMAL",NA,NA,NA,"LYMPH NODE, MESENTERIC",NA,NA,NA,NA,NA,NA,"SUPERVISING PATHOLOGIST",NA,NA,"2011-01-10T10:28:00",31
"PDS2014","MA","PDS2014-0008",334,NA,NA,NA,"GROSPATH","Gross Pathological Examination",NA,"NORMAL","NORMAL",NA,NA,NA,"LARGE INTESTINE, CECUM",NA,NA,NA,NA,NA,NA,"SUPERVISING PATHOLOGIST",NA,NA,"2011-01-10T10:28:00",31
"PDS2014","MA","PDS2014-0008",335,NA,NA,NA,"GROSPATH","Gross Pathological Examination",NA,"NORMAL","NORMAL",NA,NA,NA,"LARGE INTESTINE, COLON",NA,NA,NA,NA,NA,NA,"SUPERVISING PATHOLOGIST",NA,NA,"2011-01-10T10:28:00",31
"PDS2014","MA","PDS2014-0008",336,NA,NA,NA,"GROSPATH","Gross Pathological Examination",NA,"NORMAL","NORMAL",NA,NA,NA,"SMALL INTESTINE, ILEUM",NA,NA,NA,NA,NA,NA,"SUPERVISING PATHOLOGIST",NA,NA,"2011-01-10T10:28:00",31
"PDS2014","MA","PDS2014-0008",337,NA,NA,NA,"GROSPATH","Gross Pathological Examination",NA,"NORMAL","NORMAL",NA,NA,NA,"LIVER",NA,NA,NA,NA,NA,NA,"SUPERVISING PATHOLOGIST",NA,NA,"2011-01-10T10:28:00",31
"PDS2014","MA","PDS2014-0008",338,NA,NA,NA,"GROSPATH","Gross Pathological Examination",NA,"NORMAL","NORMAL",NA,NA,NA,"GLAND, ADRENAL",NA,NA,NA,NA,NA,NA,"SUPERVISING PATHOLOGIST",NA,NA,"2011-01-10T10:28:00",31
"PDS2014","MA","PDS2014-0008",339,NA,NA,NA,"GROSPATH","Gross Pathological Examination",NA,"NORMAL","NORMAL",NA,NA,NA,"URETER",NA,NA,NA,NA,NA,NA,"SUPERVISING PATHOLOGIST",NA,NA,"2011-01-10T10:28:00",31
"PDS2014","MA","PDS2014-0008",340,NA,NA,NA,"GROSPATH","Gross Pathological Examination",NA,"NORMAL","NORMAL",NA,NA,NA,"KIDNEY",NA,NA,NA,NA,NA,NA,"SUPERVISING PATHOLOGIST",NA,NA,"2011-01-10T10:28:00",31
"PDS2014","MA","PDS2014-0008",341,NA,NA,NA,"GROSPATH","Gross Pathological Examination",NA,"NORMAL","NORMAL",NA,NA,NA,"URINARY BLADDER",NA,NA,NA,NA,NA,NA,"SUPERVISING PATHOLOGIST",NA,NA,"2011-01-10T10:28:00",31
"PDS2014","MA","PDS2014-0008",342,NA,NA,NA,"GROSPATH","Gross Pathological Examination",NA,"NORMAL","NORMAL",NA,NA,NA,"TESTIS",NA,NA,NA,NA,NA,NA,"SUPERVISING PATHOLOGIST",NA,NA,"2011-01-10T10:28:00",31
"PDS2014","MA","PDS2014-0008",343,NA,NA,NA,"GROSPATH","Gross Pathological Examination",NA,"NORMAL","NORMAL",NA,NA,NA,"EPIDIDYMIS",NA,NA,NA,NA,NA,NA,"SUPERVISING PATHOLOGIST",NA,NA,"2011-01-10T10:28:00",31
"PDS2014","MA","PDS2014-0008",344,NA,NA,NA,"GROSPATH","Gross Pathological Examination",NA,"NORMAL","NORMAL",NA,NA,NA,"GLAND, PROSTATE",NA,NA,NA,NA,NA,NA,"SUPERVISING PATHOLOGIST",NA,NA,"2011-01-10T10:28:00",31
"PDS2014","MA","PDS2014-0008",345,NA,NA,NA,"GROSPATH","Gross Pathological Examination",NA,"NORMAL","NORMAL",NA,NA,NA,"GLAND, SEMINAL VESICLE",NA,NA,NA,NA,NA,NA,"SUPERVISING PATHOLOGIST",NA,NA,"2011-01-10T10:28:00",31
"PDS2014","MA","PDS2014-0008",346,NA,NA,NA,"GROSPATH","Gross Pathological Examination",NA,"NORMAL","NORMAL",NA,NA,NA,"SITE, MICROCHIP",NA,NA,NA,NA,NA,NA,"SUPERVISING PATHOLOGIST",NA,NA,"2011-01-10T10:28:00",31
"PDS2014","MA","PDS2014-0008",347,NA,NA,NA,"GROSPATH","Gross Pathological Examination",NA,"NORMAL","NORMAL",NA,NA,NA,"LARGE INTESTINE, RECTUM",NA,NA,NA,NA,NA,NA,"SUPERVISING PATHOLOGIST",NA,NA,"2011-01-10T10:28:00",31
"PDS2014","MA","PDS2014-0008",348,NA,NA,NA,"GROSPATH","Gross Pathological Examination",NA,"NORMAL","NORMAL",NA,NA,NA,"BONE MARROW, FEMUR",NA,NA,NA,NA,NA,NA,"SUPERVISING PATHOLOGIST",NA,NA,"2011-01-10T10:28:00",31
"PDS2014","MA","PDS2014-0009",349,NA,NA,NA,"GROSPATH","Gross Pathological Examination",NA,"NORMAL","NORMAL",NA,NA,NA,"ALL TISSUES",NA,NA,NA,NA,NA,NA,"SUPERVISING PATHOLOGIST",NA,NA,"2011-01-10T13:47:00",31
"PDS2014","MA","PDS2014-0010",350,NA,NA,NA,"GROSPATH","Gross Pathological Examination",NA,"perfusion","perfusion",NA,NA,NA,"ALL TISSUES",NA,NA,NA,NA,NA,NA,"SUPERVISING PATHOLOGIST",NA,NA,"2011-01-10T12:14:00",31
"PDS2014","MA","PDS2014-0010",351,NA,NA,NA,"GROSPATH","Gross Pathological Examination",NA,"sore, one, between 6 and 10 mm, red, correlates to clinical observation","sore",NA,NA,NA,"SKIN","external ear, left",NA,NA,NA,NA,NA,"SUPERVISING PATHOLOGIST",NA,NA,"2011-01-10T12:14:00",31
"PDS2014","MA","PDS2014-0010",352,NA,NA,NA,"GROSPATH","Gross Pathological Examination",NA,"NORMAL","NORMAL",NA,NA,NA,"NERVE, SCIATIC",NA,NA,NA,NA,NA,NA,"SUPERVISING PATHOLOGIST",NA,NA,"2011-01-10T12:14:00",31
"PDS2014","MA","PDS2014-0010",353,NA,NA,NA,"GROSPATH","Gross Pathological Examination",NA,"NORMAL","NORMAL",NA,NA,NA,"MUSCLE, QUADRICEPS FEMORIS",NA,NA,NA,NA,NA,NA,"SUPERVISING PATHOLOGIST",NA,NA,"2011-01-10T12:14:00",31
"PDS2014","MA","PDS2014-0010",354,NA,NA,NA,"GROSPATH","Gross Pathological Examination",NA,"NORMAL","NORMAL",NA,NA,NA,"GLAND, SALIVARY, PAROTID",NA,NA,NA,NA,NA,NA,"SUPERVISING PATHOLOGIST",NA,NA,"2011-01-10T12:14:00",31
"PDS2014","MA","PDS2014-0010",355,NA,NA,NA,"GROSPATH","Gross Pathological Examination",NA,"NORMAL","NORMAL",NA,NA,NA,"GLAND, THYROID",NA,NA,NA,NA,NA,NA,"SUPERVISING PATHOLOGIST",NA,NA,"2011-01-10T12:14:00",31
"PDS2014","MA","PDS2014-0010",356,NA,NA,NA,"GROSPATH","Gross Pathological Examination",NA,"NORMAL","NORMAL",NA,NA,NA,"GLAND, PARATHYROID",NA,NA,NA,NA,NA,NA,"SUPERVISING PATHOLOGIST",NA,NA,"2011-01-10T12:14:00",31
"PDS2014","MA","PDS2014-0010",357,NA,NA,NA,"GROSPATH","Gross Pathological Examination",NA,"NORMAL","NORMAL",NA,NA,NA,"LARYNX",NA,NA,NA,NA,NA,NA,"SUPERVISING PATHOLOGIST",NA,NA,"2011-01-10T12:14:00",31
"PDS2014","MA","PDS2014-0010",358,NA,NA,NA,"GROSPATH","Gross Pathological Examination",NA,"NORMAL","NORMAL",NA,NA,NA,"BRAIN",NA,NA,NA,NA,NA,NA,"SUPERVISING PATHOLOGIST",NA,NA,"2011-01-10T12:14:00",31
"PDS2014","MA","PDS2014-0010",359,NA,NA,NA,"GROSPATH","Gross Pathological Examination",NA,"NORMAL","NORMAL",NA,NA,NA,"GLAND, PITUITARY",NA,NA,NA,NA,NA,NA,"SUPERVISING PATHOLOGIST",NA,NA,"2011-01-10T12:14:00",31
"PDS2014","MA","PDS2014-0010",360,NA,NA,NA,"GROSPATH","Gross Pathological Examination",NA,"NORMAL","NORMAL",NA,NA,NA,"EYE",NA,NA,NA,NA,NA,NA,"SUPERVISING PATHOLOGIST",NA,NA,"2011-01-10T12:14:00",31
"PDS2014","MA","PDS2014-0010",361,NA,NA,NA,"GROSPATH","Gross Pathological Examination",NA,"NORMAL","NORMAL",NA,NA,NA,"GLAND, HARDERIAN",NA,NA,NA,NA,NA,NA,"SUPERVISING PATHOLOGIST",NA,NA,"2011-01-10T12:14:00",31
"PDS2014","MA","PDS2014-0010",362,NA,NA,NA,"GROSPATH","Gross Pathological Examination",NA,"NORMAL","NORMAL",NA,NA,NA,"NOSE",NA,NA,NA,NA,NA,NA,"SUPERVISING PATHOLOGIST",NA,NA,"2011-01-10T12:14:00",31
"PDS2014","MA","PDS2014-0010",363,NA,NA,NA,"GROSPATH","Gross Pathological Examination",NA,"NORMAL","NORMAL",NA,NA,NA,"TONGUE",NA,NA,NA,NA,NA,NA,"SUPERVISING PATHOLOGIST",NA,NA,"2011-01-10T12:14:00",31
"PDS2014","MA","PDS2014-0010",364,NA,NA,NA,"GROSPATH","Gross Pathological Examination",NA,"NORMAL","NORMAL",NA,NA,NA,"GLAND, PREPUTIAL",NA,NA,NA,NA,NA,NA,"SUPERVISING PATHOLOGIST",NA,NA,"2011-01-10T12:14:00",31
"PDS2014","MA","PDS2014-0010",365,NA,NA,NA,"GROSPATH","Gross Pathological Examination",NA,"NORMAL","NORMAL",NA,NA,NA,"GLAND, MAMMARY",NA,NA,NA,NA,NA,NA,"SUPERVISING PATHOLOGIST",NA,NA,"2011-01-10T12:14:00",31
"PDS2014","MA","PDS2014-0010",366,NA,NA,NA,"GROSPATH","Gross Pathological Examination",NA,"NORMAL","NORMAL",NA,NA,NA,"BONE MARROW, STERNUM",NA,NA,NA,NA,NA,NA,"SUPERVISING PATHOLOGIST",NA,NA,"2011-01-10T12:14:00",31
"PDS2014","MA","PDS2014-0010",367,NA,NA,NA,"GROSPATH","Gross Pathological Examination",NA,"NORMAL","NORMAL",NA,NA,NA,"THYMUS",NA,NA,NA,NA,NA,NA,"SUPERVISING PATHOLOGIST",NA,NA,"2011-01-10T12:14:00",31
"PDS2014","MA","PDS2014-0010",368,NA,NA,NA,"GROSPATH","Gross Pathological Examination",NA,"NORMAL","NORMAL",NA,NA,NA,"HEART",NA,NA,NA,NA,NA,NA,"SUPERVISING PATHOLOGIST",NA,NA,"2011-01-10T12:14:00",31
"PDS2014","MA","PDS2014-0010",369,NA,NA,NA,"GROSPATH","Gross Pathological Examination",NA,"NORMAL","NORMAL",NA,NA,NA,"TRACHEA",NA,NA,NA,NA,NA,NA,"SUPERVISING PATHOLOGIST",NA,NA,"2011-01-10T12:14:00",31
"PDS2014","MA","PDS2014-0010",370,NA,NA,NA,"GROSPATH","Gross Pathological Examination",NA,"NORMAL","NORMAL",NA,NA,NA,"LUNG",NA,NA,NA,NA,NA,NA,"SUPERVISING PATHOLOGIST",NA,NA,"2011-01-10T12:14:00",31
"PDS2014","MA","PDS2014-0010",371,NA,NA,NA,"GROSPATH","Gross Pathological Examination",NA,"NORMAL","NORMAL",NA,NA,NA,"ESOPHAGUS",NA,NA,NA,NA,NA,NA,"SUPERVISING PATHOLOGIST",NA,NA,"2011-01-10T12:14:00",31
"PDS2014","MA","PDS2014-0010",372,NA,NA,NA,"GROSPATH","Gross Pathological Examination",NA,"NORMAL","NORMAL",NA,NA,NA,"ARTERY, AORTA",NA,NA,NA,NA,NA,NA,"SUPERVISING PATHOLOGIST",NA,NA,"2011-01-10T12:14:00",31
"PDS2014","MA","PDS2014-0010",373,NA,NA,NA,"GROSPATH","Gross Pathological Examination",NA,"NORMAL","NORMAL",NA,NA,NA,"SPLEEN",NA,NA,NA,NA,NA,NA,"SUPERVISING PATHOLOGIST",NA,NA,"2011-01-10T12:14:00",31
"PDS2014","MA","PDS2014-0010",374,NA,NA,NA,"GROSPATH","Gross Pathological Examination",NA,"NORMAL","NORMAL",NA,NA,NA,"PANCREAS",NA,NA,NA,NA,NA,NA,"SUPERVISING PATHOLOGIST",NA,NA,"2011-01-10T12:14:00",31
"PDS2014","MA","PDS2014-0010",375,NA,NA,NA,"GROSPATH","Gross Pathological Examination",NA,"NORMAL","NORMAL",NA,NA,NA,"STOMACH",NA,NA,NA,NA,NA,NA,"SUPERVISING PATHOLOGIST",NA,NA,"2011-01-10T12:14:00",31
"PDS2014","MA","PDS2014-0010",376,NA,NA,NA,"GROSPATH","Gross Pathological Examination",NA,"NORMAL","NORMAL",NA,NA,NA,"SMALL INTESTINE, DUODENUM",NA,NA,NA,NA,NA,NA,"SUPERVISING PATHOLOGIST",NA,NA,"2011-01-10T12:14:00",31
"PDS2014","MA","PDS2014-0010",377,NA,NA,NA,"GROSPATH","Gross Pathological Examination",NA,"NORMAL","NORMAL",NA,NA,NA,"SMALL INTESTINE, JEJUNUM",NA,NA,NA,NA,NA,NA,"SUPERVISING PATHOLOGIST",NA,NA,"2011-01-10T12:14:00",31
"PDS2014","MA","PDS2014-0010",378,NA,NA,NA,"GROSPATH","Gross Pathological Examination",NA,"NORMAL","NORMAL",NA,NA,NA,"LYMPH NODE, MESENTERIC",NA,NA,NA,NA,NA,NA,"SUPERVISING PATHOLOGIST",NA,NA,"2011-01-10T12:14:00",31
"PDS2014","MA","PDS2014-0010",379,NA,NA,NA,"GROSPATH","Gross Pathological Examination",NA,"NORMAL","NORMAL",NA,NA,NA,"LARGE INTESTINE, CECUM",NA,NA,NA,NA,NA,NA,"SUPERVISING PATHOLOGIST",NA,NA,"2011-01-10T12:14:00",31
"PDS2014","MA","PDS2014-0010",380,NA,NA,NA,"GROSPATH","Gross Pathological Examination",NA,"NORMAL","NORMAL",NA,NA,NA,"LARGE INTESTINE, COLON",NA,NA,NA,NA,NA,NA,"SUPERVISING PATHOLOGIST",NA,NA,"2011-01-10T12:14:00",31
"PDS2014","MA","PDS2014-0010",381,NA,NA,NA,"GROSPATH","Gross Pathological Examination",NA,"NORMAL","NORMAL",NA,NA,NA,"SMALL INTESTINE, ILEUM",NA,NA,NA,NA,NA,NA,"SUPERVISING PATHOLOGIST",NA,NA,"2011-01-10T12:14:00",31
"PDS2014","MA","PDS2014-0010",382,NA,NA,NA,"GROSPATH","Gross Pathological Examination",NA,"NORMAL","NORMAL",NA,NA,NA,"LIVER",NA,NA,NA,NA,NA,NA,"SUPERVISING PATHOLOGIST",NA,NA,"2011-01-10T12:14:00",31
"PDS2014","MA","PDS2014-0010",383,NA,NA,NA,"GROSPATH","Gross Pathological Examination",NA,"NORMAL","NORMAL",NA,NA,NA,"GLAND, ADRENAL",NA,NA,NA,NA,NA,NA,"SUPERVISING PATHOLOGIST",NA,NA,"2011-01-10T12:14:00",31
"PDS2014","MA","PDS2014-0010",384,NA,NA,NA,"GROSPATH","Gross Pathological Examination",NA,"NORMAL","NORMAL",NA,NA,NA,"URETER",NA,NA,NA,NA,NA,NA,"SUPERVISING PATHOLOGIST",NA,NA,"2011-01-10T12:14:00",31
"PDS2014","MA","PDS2014-0010",385,NA,NA,NA,"GROSPATH","Gross Pathological Examination",NA,"NORMAL","NORMAL",NA,NA,NA,"KIDNEY",NA,NA,NA,NA,NA,NA,"SUPERVISING PATHOLOGIST",NA,NA,"2011-01-10T12:14:00",31
"PDS2014","MA","PDS2014-0010",386,NA,NA,NA,"GROSPATH","Gross Pathological Examination",NA,"NORMAL","NORMAL",NA,NA,NA,"URINARY BLADDER",NA,NA,NA,NA,NA,NA,"SUPERVISING PATHOLOGIST",NA,NA,"2011-01-10T12:14:00",31
"PDS2014","MA","PDS2014-0010",387,NA,NA,NA,"GROSPATH","Gross Pathological Examination",NA,"NORMAL","NORMAL",NA,NA,NA,"TESTIS",NA,NA,NA,NA,NA,NA,"SUPERVISING PATHOLOGIST",NA,NA,"2011-01-10T12:14:00",31
"PDS2014","MA","PDS2014-0010",388,NA,NA,NA,"GROSPATH","Gross Pathological Examination",NA,"NORMAL","NORMAL",NA,NA,NA,"EPIDIDYMIS",NA,NA,NA,NA,NA,NA,"SUPERVISING PATHOLOGIST",NA,NA,"2011-01-10T12:14:00",31
"PDS2014","MA","PDS2014-0010",389,NA,NA,NA,"GROSPATH","Gross Pathological Examination",NA,"NORMAL","NORMAL",NA,NA,NA,"GLAND, PROSTATE",NA,NA,NA,NA,NA,NA,"SUPERVISING PATHOLOGIST",NA,NA,"2011-01-10T12:14:00",31
"PDS2014","MA","PDS2014-0010",390,NA,NA,NA,"GROSPATH","Gross Pathological Examination",NA,"NORMAL","NORMAL",NA,NA,NA,"GLAND, SEMINAL VESICLE",NA,NA,NA,NA,NA,NA,"SUPERVISING PATHOLOGIST",NA,NA,"2011-01-10T12:14:00",31
"PDS2014","MA","PDS2014-0010",391,NA,NA,NA,"GROSPATH","Gross Pathological Examination",NA,"NORMAL","NORMAL",NA,NA,NA,"SITE, MICROCHIP",NA,NA,NA,NA,NA,NA,"SUPERVISING PATHOLOGIST",NA,NA,"2011-01-10T12:14:00",31
"PDS2014","MA","PDS2014-0010",392,NA,NA,NA,"GROSPATH","Gross Pathological Examination",NA,"NORMAL","NORMAL",NA,NA,NA,"LARGE INTESTINE, RECTUM",NA,NA,NA,NA,NA,NA,"SUPERVISING PATHOLOGIST",NA,NA,"2011-01-10T12:14:00",31
"PDS2014","MA","PDS2014-0010",393,NA,NA,NA,"GROSPATH","Gross Pathological Examination",NA,"NORMAL","NORMAL",NA,NA,NA,"BONE MARROW, FEMUR",NA,NA,NA,NA,NA,NA,"SUPERVISING PATHOLOGIST",NA,NA,"2011-01-10T12:14:00",31
"PDS2014","MA","PDS2014-0011",394,NA,NA,NA,"GROSPATH","Gross Pathological Examination",NA,"frozen sample (co2-ice)","frozen sample (co2-ice)",NA,NA,NA,"LIVER",NA,NA,NA,NA,NA,NA,"SUPERVISING PATHOLOGIST",NA,NA,"2013-02-06T08:59:00",789
"PDS2014","MA","PDS2014-0011",395,NA,NA,NA,"GROSPATH","Gross Pathological Examination",NA,"NORMAL","NORMAL",NA,NA,NA,"NERVE, SCIATIC",NA,NA,NA,NA,NA,NA,"SUPERVISING PATHOLOGIST",NA,NA,"2013-02-06T08:59:00",789
"PDS2014","MA","PDS2014-0011",396,NA,NA,NA,"GROSPATH","Gross Pathological Examination",NA,"NORMAL","NORMAL",NA,NA,NA,"MUSCLE, QUADRICEPS FEMORIS",NA,NA,NA,NA,NA,NA,"SUPERVISING PATHOLOGIST",NA,NA,"2013-02-06T08:59:00",789
"PDS2014","MA","PDS2014-0011",397,NA,NA,NA,"GROSPATH","Gross Pathological Examination",NA,"NORMAL","NORMAL",NA,NA,NA,"GLAND, SALIVARY, PAROTID",NA,NA,NA,NA,NA,NA,"SUPERVISING PATHOLOGIST",NA,NA,"2013-02-06T08:59:00",789
"PDS2014","MA","PDS2014-0011",398,NA,NA,NA,"GROSPATH","Gross Pathological Examination",NA,"NORMAL","NORMAL",NA,NA,NA,"GLAND, THYROID",NA,NA,NA,NA,NA,NA,"SUPERVISING PATHOLOGIST",NA,NA,"2013-02-06T08:59:00",789
"PDS2014","MA","PDS2014-0011",399,NA,NA,NA,"GROSPATH","Gross Pathological Examination",NA,"NORMAL","NORMAL",NA,NA,NA,"GLAND, PARATHYROID",NA,NA,NA,NA,NA,NA,"SUPERVISING PATHOLOGIST",NA,NA,"2013-02-06T08:59:00",789
"PDS2014","MA","PDS2014-0011",400,NA,NA,NA,"GROSPATH","Gross Pathological Examination",NA,"NORMAL","NORMAL",NA,NA,NA,"LARYNX",NA,NA,NA,NA,NA,NA,"SUPERVISING PATHOLOGIST",NA,NA,"2013-02-06T08:59:00",789
"PDS2014","MA","PDS2014-0011",401,NA,NA,NA,"GROSPATH","Gross Pathological Examination",NA,"NORMAL","NORMAL",NA,NA,NA,"BRAIN",NA,NA,NA,NA,NA,NA,"SUPERVISING PATHOLOGIST",NA,NA,"2013-02-06T08:59:00",789
"PDS2014","MA","PDS2014-0011",402,NA,NA,NA,"GROSPATH","Gross Pathological Examination",NA,"NORMAL","NORMAL",NA,NA,NA,"GLAND, PITUITARY",NA,NA,NA,NA,NA,NA,"SUPERVISING PATHOLOGIST",NA,NA,"2013-02-06T08:59:00",789
"PDS2014","MA","PDS2014-0011",403,NA,NA,NA,"GROSPATH","Gross Pathological Examination",NA,"NORMAL","NORMAL",NA,NA,NA,"EYE",NA,NA,NA,NA,NA,NA,"SUPERVISING PATHOLOGIST",NA,NA,"2013-02-06T08:59:00",789
"PDS2014","MA","PDS2014-0011",404,NA,NA,NA,"GROSPATH","Gross Pathological Examination",NA,"NORMAL","NORMAL",NA,NA,NA,"GLAND, HARDERIAN",NA,NA,NA,NA,NA,NA,"SUPERVISING PATHOLOGIST",NA,NA,"2013-02-06T08:59:00",789
"PDS2014","MA","PDS2014-0011",405,NA,NA,NA,"GROSPATH","Gross Pathological Examination",NA,"NORMAL","NORMAL",NA,NA,NA,"NOSE",NA,NA,NA,NA,NA,NA,"SUPERVISING PATHOLOGIST",NA,NA,"2013-02-06T08:59:00",789
"PDS2014","MA","PDS2014-0011",406,NA,NA,NA,"GROSPATH","Gross Pathological Examination",NA,"NORMAL","NORMAL",NA,NA,NA,"TONGUE",NA,NA,NA,NA,NA,NA,"SUPERVISING PATHOLOGIST",NA,NA,"2013-02-06T08:59:00",789
"PDS2014","MA","PDS2014-0011",407,NA,NA,NA,"GROSPATH","Gross Pathological Examination",NA,"NORMAL","NORMAL",NA,NA,NA,"SKIN",NA,NA,NA,NA,NA,NA,"SUPERVISING PATHOLOGIST",NA,NA,"2013-02-06T08:59:00",789
"PDS2014","MA","PDS2014-0011",408,NA,NA,NA,"GROSPATH","Gross Pathological Examination",NA,"NORMAL","NORMAL",NA,NA,NA,"GLAND, PREPUTIAL",NA,NA,NA,NA,NA,NA,"SUPERVISING PATHOLOGIST",NA,NA,"2013-02-06T08:59:00",789
"PDS2014","MA","PDS2014-0011",409,NA,NA,NA,"GROSPATH","Gross Pathological Examination",NA,"NORMAL","NORMAL",NA,NA,NA,"GLAND, MAMMARY",NA,NA,NA,NA,NA,NA,"SUPERVISING PATHOLOGIST",NA,NA,"2013-02-06T08:59:00",789
"PDS2014","MA","PDS2014-0011",410,NA,NA,NA,"GROSPATH","Gross Pathological Examination",NA,"NORMAL","NORMAL",NA,NA,NA,"BONE MARROW, STERNUM",NA,NA,NA,NA,NA,NA,"SUPERVISING PATHOLOGIST",NA,NA,"2013-02-06T08:59:00",789
"PDS2014","MA","PDS2014-0011",411,NA,NA,NA,"GROSPATH","Gross Pathological Examination",NA,"NORMAL","NORMAL",NA,NA,NA,"THYMUS",NA,NA,NA,NA,NA,NA,"SUPERVISING PATHOLOGIST",NA,NA,"2013-02-06T08:59:00",789
"PDS2014","MA","PDS2014-0011",412,NA,NA,NA,"GROSPATH","Gross Pathological Examination",NA,"NORMAL","NORMAL",NA,NA,NA,"HEART",NA,NA,NA,NA,NA,NA,"SUPERVISING PATHOLOGIST",NA,NA,"2013-02-06T08:59:00",789
"PDS2014","MA","PDS2014-0011",413,NA,NA,NA,"GROSPATH","Gross Pathological Examination",NA,"NORMAL","NORMAL",NA,NA,NA,"TRACHEA",NA,NA,NA,NA,NA,NA,"SUPERVISING PATHOLOGIST",NA,NA,"2013-02-06T08:59:00",789
"PDS2014","MA","PDS2014-0011",414,NA,NA,NA,"GROSPATH","Gross Pathological Examination",NA,"NORMAL","NORMAL",NA,NA,NA,"LUNG",NA,NA,NA,NA,NA,NA,"SUPERVISING PATHOLOGIST",NA,NA,"2013-02-06T08:59:00",789
"PDS2014","MA","PDS2014-0011",415,NA,NA,NA,"GROSPATH","Gross Pathological Examination",NA,"NORMAL","NORMAL",NA,NA,NA,"ESOPHAGUS",NA,NA,NA,NA,NA,NA,"SUPERVISING PATHOLOGIST",NA,NA,"2013-02-06T08:59:00",789
"PDS2014","MA","PDS2014-0011",416,NA,NA,NA,"GROSPATH","Gross Pathological Examination",NA,"NORMAL","NORMAL",NA,NA,NA,"ARTERY, AORTA",NA,NA,NA,NA,NA,NA,"SUPERVISING PATHOLOGIST",NA,NA,"2013-02-06T08:59:00",789
"PDS2014","MA","PDS2014-0011",417,NA,NA,NA,"GROSPATH","Gross Pathological Examination",NA,"NORMAL","NORMAL",NA,NA,NA,"SPLEEN",NA,NA,NA,NA,NA,NA,"SUPERVISING PATHOLOGIST",NA,NA,"2013-02-06T08:59:00",789
"PDS2014","MA","PDS2014-0011",418,NA,NA,NA,"GROSPATH","Gross Pathological Examination",NA,"NORMAL","NORMAL",NA,NA,NA,"PANCREAS",NA,NA,NA,NA,NA,NA,"SUPERVISING PATHOLOGIST",NA,NA,"2013-02-06T08:59:00",789
"PDS2014","MA","PDS2014-0011",419,NA,NA,NA,"GROSPATH","Gross Pathological Examination",NA,"NORMAL","NORMAL",NA,NA,NA,"STOMACH",NA,NA,NA,NA,NA,NA,"SUPERVISING PATHOLOGIST",NA,NA,"2013-02-06T08:59:00",789
"PDS2014","MA","PDS2014-0011",420,NA,NA,NA,"GROSPATH","Gross Pathological Examination",NA,"NORMAL","NORMAL",NA,NA,NA,"SMALL INTESTINE, DUODENUM",NA,NA,NA,NA,NA,NA,"SUPERVISING PATHOLOGIST",NA,NA,"2013-02-06T08:59:00",789
"PDS2014","MA","PDS2014-0011",421,NA,NA,NA,"GROSPATH","Gross Pathological Examination",NA,"NORMAL","NORMAL",NA,NA,NA,"SMALL INTESTINE, JEJUNUM",NA,NA,NA,NA,NA,NA,"SUPERVISING PATHOLOGIST",NA,NA,"2013-02-06T08:59:00",789
"PDS2014","MA","PDS2014-0011",422,NA,NA,NA,"GROSPATH","Gross Pathological Examination",NA,"NORMAL","NORMAL",NA,NA,NA,"LYMPH NODE, MESENTERIC",NA,NA,NA,NA,NA,NA,"SUPERVISING PATHOLOGIST",NA,NA,"2013-02-06T08:59:00",789
"PDS2014","MA","PDS2014-0011",423,NA,NA,NA,"GROSPATH","Gross Pathological Examination",NA,"NORMAL","NORMAL",NA,NA,NA,"LARGE INTESTINE, CECUM",NA,NA,NA,NA,NA,NA,"SUPERVISING PATHOLOGIST",NA,NA,"2013-02-06T08:59:00",789
"PDS2014","MA","PDS2014-0011",424,NA,NA,NA,"GROSPATH","Gross Pathological Examination",NA,"NORMAL","NORMAL",NA,NA,NA,"LARGE INTESTINE, COLON",NA,NA,NA,NA,NA,NA,"SUPERVISING PATHOLOGIST",NA,NA,"2013-02-06T08:59:00",789
"PDS2014","MA","PDS2014-0011",425,NA,NA,NA,"GROSPATH","Gross Pathological Examination",NA,"NORMAL","NORMAL",NA,NA,NA,"SMALL INTESTINE, ILEUM",NA,NA,NA,NA,NA,NA,"SUPERVISING PATHOLOGIST",NA,NA,"2013-02-06T08:59:00",789
"PDS2014","MA","PDS2014-0011",426,NA,NA,NA,"GROSPATH","Gross Pathological Examination",NA,"NORMAL","NORMAL",NA,NA,NA,"GLAND, ADRENAL",NA,NA,NA,NA,NA,NA,"SUPERVISING PATHOLOGIST",NA,NA,"2013-02-06T08:59:00",789
"PDS2014","MA","PDS2014-0011",427,NA,NA,NA,"GROSPATH","Gross Pathological Examination",NA,"NORMAL","NORMAL",NA,NA,NA,"URETER",NA,NA,NA,NA,NA,NA,"SUPERVISING PATHOLOGIST",NA,NA,"2013-02-06T08:59:00",789
"PDS2014","MA","PDS2014-0011",428,NA,NA,NA,"GROSPATH","Gross Pathological Examination",NA,"NORMAL","NORMAL",NA,NA,NA,"KIDNEY",NA,NA,NA,NA,NA,NA,"SUPERVISING PATHOLOGIST",NA,NA,"2013-02-06T08:59:00",789
"PDS2014","MA","PDS2014-0011",429,NA,NA,NA,"GROSPATH","Gross Pathological Examination",NA,"NORMAL","NORMAL",NA,NA,NA,"URINARY BLADDER",NA,NA,NA,NA,NA,NA,"SUPERVISING PATHOLOGIST",NA,NA,"2013-02-06T08:59:00",789
"PDS2014","MA","PDS2014-0011",430,NA,NA,NA,"GROSPATH","Gross Pathological Examination",NA,"NORMAL","NORMAL",NA,NA,NA,"TESTIS",NA,NA,NA,NA,NA,NA,"SUPERVISING PATHOLOGIST",NA,NA,"2013-02-06T08:59:00",789
"PDS2014","MA","PDS2014-0011",431,NA,NA,NA,"GROSPATH","Gross Pathological Examination",NA,"NORMAL","NORMAL",NA,NA,NA,"EPIDIDYMIS",NA,NA,NA,NA,NA,NA,"SUPERVISING PATHOLOGIST",NA,NA,"2013-02-06T08:59:00",789
"PDS2014","MA","PDS2014-0011",432,NA,NA,NA,"GROSPATH","Gross Pathological Examination",NA,"NORMAL","NORMAL",NA,NA,NA,"GLAND, PROSTATE",NA,NA,NA,NA,NA,NA,"SUPERVISING PATHOLOGIST",NA,NA,"2013-02-06T08:59:00",789
"PDS2014","MA","PDS2014-0011",433,NA,NA,NA,"GROSPATH","Gross Pathological Examination",NA,"NORMAL","NORMAL",NA,NA,NA,"GLAND, SEMINAL VESICLE",NA,NA,NA,NA,NA,NA,"SUPERVISING PATHOLOGIST",NA,NA,"2013-02-06T08:59:00",789
"PDS2014","MA","PDS2014-0011",434,NA,NA,NA,"GROSPATH","Gross Pathological Examination",NA,"NORMAL","NORMAL",NA,NA,NA,"SITE, MICROCHIP",NA,NA,NA,NA,NA,NA,"SUPERVISING PATHOLOGIST",NA,NA,"2013-02-06T08:59:00",789
"PDS2014","MA","PDS2014-0011",435,NA,NA,NA,"GROSPATH","Gross Pathological Examination",NA,"NORMAL","NORMAL",NA,NA,NA,"LARGE INTESTINE, RECTUM",NA,NA,NA,NA,NA,NA,"SUPERVISING PATHOLOGIST",NA,NA,"2013-02-06T08:59:00",789
"PDS2014","MA","PDS2014-0011",436,NA,NA,NA,"GROSPATH","Gross Pathological Examination",NA,"NORMAL","NORMAL",NA,NA,NA,"BONE MARROW, FEMUR",NA,NA,NA,NA,NA,NA,"SUPERVISING PATHOLOGIST",NA,NA,"2013-02-06T08:59:00",789
"PDS2014","MA","PDS2014-0012",437,NA,NA,NA,"GROSPATH","Gross Pathological Examination",NA,"frozen sample (co2-ice)","frozen sample (co2-ice)",NA,NA,NA,"LIVER",NA,NA,NA,NA,NA,NA,"SUPERVISING PATHOLOGIST",NA,NA,"2013-02-06T09:45:00",789
"PDS2014","MA","PDS2014-0012",438,NA,NA,NA,"GROSPATH","Gross Pathological Examination",NA,"NORMAL","NORMAL",NA,NA,NA,"NERVE, SCIATIC",NA,NA,NA,NA,NA,NA,"SUPERVISING PATHOLOGIST",NA,NA,"2013-02-06T09:45:00",789
"PDS2014","MA","PDS2014-0012",439,NA,NA,NA,"GROSPATH","Gross Pathological Examination",NA,"NORMAL","NORMAL",NA,NA,NA,"MUSCLE, QUADRICEPS FEMORIS",NA,NA,NA,NA,NA,NA,"SUPERVISING PATHOLOGIST",NA,NA,"2013-02-06T09:45:00",789
"PDS2014","MA","PDS2014-0012",440,NA,NA,NA,"GROSPATH","Gross Pathological Examination",NA,"NORMAL","NORMAL",NA,NA,NA,"GLAND, SALIVARY, PAROTID",NA,NA,NA,NA,NA,NA,"SUPERVISING PATHOLOGIST",NA,NA,"2013-02-06T09:45:00",789
"PDS2014","MA","PDS2014-0012",441,NA,NA,NA,"GROSPATH","Gross Pathological Examination",NA,"NORMAL","NORMAL",NA,NA,NA,"GLAND, THYROID",NA,NA,NA,NA,NA,NA,"SUPERVISING PATHOLOGIST",NA,NA,"2013-02-06T09:45:00",789
"PDS2014","MA","PDS2014-0012",442,NA,NA,NA,"GROSPATH","Gross Pathological Examination",NA,"NORMAL","NORMAL",NA,NA,NA,"GLAND, PARATHYROID",NA,NA,NA,NA,NA,NA,"SUPERVISING PATHOLOGIST",NA,NA,"2013-02-06T09:45:00",789
"PDS2014","MA","PDS2014-0012",443,NA,NA,NA,"GROSPATH","Gross Pathological Examination",NA,"NORMAL","NORMAL",NA,NA,NA,"LARYNX",NA,NA,NA,NA,NA,NA,"SUPERVISING PATHOLOGIST",NA,NA,"2013-02-06T09:45:00",789
"PDS2014","MA","PDS2014-0012",444,NA,NA,NA,"GROSPATH","Gross Pathological Examination",NA,"NORMAL","NORMAL",NA,NA,NA,"BRAIN",NA,NA,NA,NA,NA,NA,"SUPERVISING PATHOLOGIST",NA,NA,"2013-02-06T09:45:00",789
"PDS2014","MA","PDS2014-0012",445,NA,NA,NA,"GROSPATH","Gross Pathological Examination",NA,"NORMAL","NORMAL",NA,NA,NA,"GLAND, PITUITARY",NA,NA,NA,NA,NA,NA,"SUPERVISING PATHOLOGIST",NA,NA,"2013-02-06T09:45:00",789
"PDS2014","MA","PDS2014-0012",446,NA,NA,NA,"GROSPATH","Gross Pathological Examination",NA,"NORMAL","NORMAL",NA,NA,NA,"EYE",NA,NA,NA,NA,NA,NA,"SUPERVISING PATHOLOGIST",NA,NA,"2013-02-06T09:45:00",789
"PDS2014","MA","PDS2014-0012",447,NA,NA,NA,"GROSPATH","Gross Pathological Examination",NA,"NORMAL","NORMAL",NA,NA,NA,"GLAND, HARDERIAN",NA,NA,NA,NA,NA,NA,"SUPERVISING PATHOLOGIST",NA,NA,"2013-02-06T09:45:00",789
"PDS2014","MA","PDS2014-0012",448,NA,NA,NA,"GROSPATH","Gross Pathological Examination",NA,"NORMAL","NORMAL",NA,NA,NA,"NOSE",NA,NA,NA,NA,NA,NA,"SUPERVISING PATHOLOGIST",NA,NA,"2013-02-06T09:45:00",789
"PDS2014","MA","PDS2014-0012",449,NA,NA,NA,"GROSPATH","Gross Pathological Examination",NA,"NORMAL","NORMAL",NA,NA,NA,"TONGUE",NA,NA,NA,NA,NA,NA,"SUPERVISING PATHOLOGIST",NA,NA,"2013-02-06T09:45:00",789
"PDS2014","MA","PDS2014-0012",450,NA,NA,NA,"GROSPATH","Gross Pathological Examination",NA,"NORMAL","NORMAL",NA,NA,NA,"SKIN",NA,NA,NA,NA,NA,NA,"SUPERVISING PATHOLOGIST",NA,NA,"2013-02-06T09:45:00",789
"PDS2014","MA","PDS2014-0012",451,NA,NA,NA,"GROSPATH","Gross Pathological Examination",NA,"NORMAL","NORMAL",NA,NA,NA,"GLAND, PREPUTIAL",NA,NA,NA,NA,NA,NA,"SUPERVISING PATHOLOGIST",NA,NA,"2013-02-06T09:45:00",789
"PDS2014","MA","PDS2014-0012",452,NA,NA,NA,"GROSPATH","Gross Pathological Examination",NA,"NORMAL","NORMAL",NA,NA,NA,"GLAND, MAMMARY",NA,NA,NA,NA,NA,NA,"SUPERVISING PATHOLOGIST",NA,NA,"2013-02-06T09:45:00",789
"PDS2014","MA","PDS2014-0012",453,NA,NA,NA,"GROSPATH","Gross Pathological Examination",NA,"NORMAL","NORMAL",NA,NA,NA,"BONE MARROW, STERNUM",NA,NA,NA,NA,NA,NA,"SUPERVISING PATHOLOGIST",NA,NA,"2013-02-06T09:45:00",789
"PDS2014","MA","PDS2014-0012",454,NA,NA,NA,"GROSPATH","Gross Pathological Examination",NA,"NORMAL","NORMAL",NA,NA,NA,"THYMUS",NA,NA,NA,NA,NA,NA,"SUPERVISING PATHOLOGIST",NA,NA,"2013-02-06T09:45:00",789
"PDS2014","MA","PDS2014-0012",455,NA,NA,NA,"GROSPATH","Gross Pathological Examination",NA,"NORMAL","NORMAL",NA,NA,NA,"HEART",NA,NA,NA,NA,NA,NA,"SUPERVISING PATHOLOGIST",NA,NA,"2013-02-06T09:45:00",789
"PDS2014","MA","PDS2014-0012",456,NA,NA,NA,"GROSPATH","Gross Pathological Examination",NA,"NORMAL","NORMAL",NA,NA,NA,"TRACHEA",NA,NA,NA,NA,NA,NA,"SUPERVISING PATHOLOGIST",NA,NA,"2013-02-06T09:45:00",789
"PDS2014","MA","PDS2014-0012",457,NA,NA,NA,"GROSPATH","Gross Pathological Examination",NA,"NORMAL","NORMAL",NA,NA,NA,"LUNG",NA,NA,NA,NA,NA,NA,"SUPERVISING PATHOLOGIST",NA,NA,"2013-02-06T09:45:00",789
"PDS2014","MA","PDS2014-0012",458,NA,NA,NA,"GROSPATH","Gross Pathological Examination",NA,"NORMAL","NORMAL",NA,NA,NA,"ESOPHAGUS",NA,NA,NA,NA,NA,NA,"SUPERVISING PATHOLOGIST",NA,NA,"2013-02-06T09:45:00",789
"PDS2014","MA","PDS2014-0012",459,NA,NA,NA,"GROSPATH","Gross Pathological Examination",NA,"NORMAL","NORMAL",NA,NA,NA,"ARTERY, AORTA",NA,NA,NA,NA,NA,NA,"SUPERVISING PATHOLOGIST",NA,NA,"2013-02-06T09:45:00",789
"PDS2014","MA","PDS2014-0012",460,NA,NA,NA,"GROSPATH","Gross Pathological Examination",NA,"NORMAL","NORMAL",NA,NA,NA,"SPLEEN",NA,NA,NA,NA,NA,NA,"SUPERVISING PATHOLOGIST",NA,NA,"2013-02-06T09:45:00",789
"PDS2014","MA","PDS2014-0012",461,NA,NA,NA,"GROSPATH","Gross Pathological Examination",NA,"NORMAL","NORMAL",NA,NA,NA,"PANCREAS",NA,NA,NA,NA,NA,NA,"SUPERVISING PATHOLOGIST",NA,NA,"2013-02-06T09:45:00",789
"PDS2014","MA","PDS2014-0012",462,NA,NA,NA,"GROSPATH","Gross Pathological Examination",NA,"NORMAL","NORMAL",NA,NA,NA,"STOMACH",NA,NA,NA,NA,NA,NA,"SUPERVISING PATHOLOGIST",NA,NA,"2013-02-06T09:45:00",789
"PDS2014","MA","PDS2014-0012",463,NA,NA,NA,"GROSPATH","Gross Pathological Examination",NA,"NORMAL","NORMAL",NA,NA,NA,"SMALL INTESTINE, DUODENUM",NA,NA,NA,NA,NA,NA,"SUPERVISING PATHOLOGIST",NA,NA,"2013-02-06T09:45:00",789
"PDS2014","MA","PDS2014-0012",464,NA,NA,NA,"GROSPATH","Gross Pathological Examination",NA,"NORMAL","NORMAL",NA,NA,NA,"SMALL INTESTINE, JEJUNUM",NA,NA,NA,NA,NA,NA,"SUPERVISING PATHOLOGIST",NA,NA,"2013-02-06T09:45:00",789
"PDS2014","MA","PDS2014-0012",465,NA,NA,NA,"GROSPATH","Gross Pathological Examination",NA,"NORMAL","NORMAL",NA,NA,NA,"LYMPH NODE, MESENTERIC",NA,NA,NA,NA,NA,NA,"SUPERVISING PATHOLOGIST",NA,NA,"2013-02-06T09:45:00",789
"PDS2014","MA","PDS2014-0012",466,NA,NA,NA,"GROSPATH","Gross Pathological Examination",NA,"NORMAL","NORMAL",NA,NA,NA,"LARGE INTESTINE, CECUM",NA,NA,NA,NA,NA,NA,"SUPERVISING PATHOLOGIST",NA,NA,"2013-02-06T09:45:00",789
"PDS2014","MA","PDS2014-0012",467,NA,NA,NA,"GROSPATH","Gross Pathological Examination",NA,"NORMAL","NORMAL",NA,NA,NA,"LARGE INTESTINE, COLON",NA,NA,NA,NA,NA,NA,"SUPERVISING PATHOLOGIST",NA,NA,"2013-02-06T09:45:00",789
"PDS2014","MA","PDS2014-0012",468,NA,NA,NA,"GROSPATH","Gross Pathological Examination",NA,"NORMAL","NORMAL",NA,NA,NA,"SMALL INTESTINE, ILEUM",NA,NA,NA,NA,NA,NA,"SUPERVISING PATHOLOGIST",NA,NA,"2013-02-06T09:45:00",789
"PDS2014","MA","PDS2014-0012",469,NA,NA,NA,"GROSPATH","Gross Pathological Examination",NA,"NORMAL","NORMAL",NA,NA,NA,"GLAND, ADRENAL",NA,NA,NA,NA,NA,NA,"SUPERVISING PATHOLOGIST",NA,NA,"2013-02-06T09:45:00",789
"PDS2014","MA","PDS2014-0012",470,NA,NA,NA,"GROSPATH","Gross Pathological Examination",NA,"NORMAL","NORMAL",NA,NA,NA,"URETER",NA,NA,NA,NA,NA,NA,"SUPERVISING PATHOLOGIST",NA,NA,"2013-02-06T09:45:00",789
"PDS2014","MA","PDS2014-0012",471,NA,NA,NA,"GROSPATH","Gross Pathological Examination",NA,"NORMAL","NORMAL",NA,NA,NA,"KIDNEY",NA,NA,NA,NA,NA,NA,"SUPERVISING PATHOLOGIST",NA,NA,"2013-02-06T09:45:00",789
"PDS2014","MA","PDS2014-0012",472,NA,NA,NA,"GROSPATH","Gross Pathological Examination",NA,"NORMAL","NORMAL",NA,NA,NA,"URINARY BLADDER",NA,NA,NA,NA,NA,NA,"SUPERVISING PATHOLOGIST",NA,NA,"2013-02-06T09:45:00",789
"PDS2014","MA","PDS2014-0012",473,NA,NA,NA,"GROSPATH","Gross Pathological Examination",NA,"NORMAL","NORMAL",NA,NA,NA,"TESTIS",NA,NA,NA,NA,NA,NA,"SUPERVISING PATHOLOGIST",NA,NA,"2013-02-06T09:45:00",789
"PDS2014","MA","PDS2014-0012",474,NA,NA,NA,"GROSPATH","Gross Pathological Examination",NA,"NORMAL","NORMAL",NA,NA,NA,"EPIDIDYMIS",NA,NA,NA,NA,NA,NA,"SUPERVISING PATHOLOGIST",NA,NA,"2013-02-06T09:45:00",789
"PDS2014","MA","PDS2014-0012",475,NA,NA,NA,"GROSPATH","Gross Pathological Examination",NA,"NORMAL","NORMAL",NA,NA,NA,"GLAND, PROSTATE",NA,NA,NA,NA,NA,NA,"SUPERVISING PATHOLOGIST",NA,NA,"2013-02-06T09:45:00",789
"PDS2014","MA","PDS2014-0012",476,NA,NA,NA,"GROSPATH","Gross Pathological Examination",NA,"NORMAL","NORMAL",NA,NA,NA,"GLAND, SEMINAL VESICLE",NA,NA,NA,NA,NA,NA,"SUPERVISING PATHOLOGIST",NA,NA,"2013-02-06T09:45:00",789
"PDS2014","MA","PDS2014-0012",477,NA,NA,NA,"GROSPATH","Gross Pathological Examination",NA,"NORMAL","NORMAL",NA,NA,NA,"SITE, MICROCHIP",NA,NA,NA,NA,NA,NA,"SUPERVISING PATHOLOGIST",NA,NA,"2013-02-06T09:45:00",789
"PDS2014","MA","PDS2014-0012",478,NA,NA,NA,"GROSPATH","Gross Pathological Examination",NA,"NORMAL","NORMAL",NA,NA,NA,"LARGE INTESTINE, RECTUM",NA,NA,NA,NA,NA,NA,"SUPERVISING PATHOLOGIST",NA,NA,"2013-02-06T09:45:00",789
"PDS2014","MA","PDS2014-0012",479,NA,NA,NA,"GROSPATH","Gross Pathological Examination",NA,"NORMAL","NORMAL",NA,NA,NA,"BONE MARROW, FEMUR",NA,NA,NA,NA,NA,NA,"SUPERVISING PATHOLOGIST",NA,NA,"2013-02-06T09:45:00",789
"PDS2014","MA","PDS2014-0013",480,NA,NA,NA,"GROSPATH","Gross Pathological Examination",NA,"frozen sample (co2-ice)","frozen sample (co2-ice)",NA,NA,NA,"LIVER",NA,NA,NA,NA,NA,NA,"SUPERVISING PATHOLOGIST",NA,NA,"2013-02-06T11:06:00",789
"PDS2014","MA","PDS2014-0013",481,NA,NA,NA,"GROSPATH","Gross Pathological Examination",NA,"NORMAL","NORMAL",NA,NA,NA,"NERVE, SCIATIC",NA,NA,NA,NA,NA,NA,"SUPERVISING PATHOLOGIST",NA,NA,"2013-02-06T11:06:00",789
"PDS2014","MA","PDS2014-0013",482,NA,NA,NA,"GROSPATH","Gross Pathological Examination",NA,"NORMAL","NORMAL",NA,NA,NA,"MUSCLE, QUADRICEPS FEMORIS",NA,NA,NA,NA,NA,NA,"SUPERVISING PATHOLOGIST",NA,NA,"2013-02-06T11:06:00",789
"PDS2014","MA","PDS2014-0013",483,NA,NA,NA,"GROSPATH","Gross Pathological Examination",NA,"NORMAL","NORMAL",NA,NA,NA,"GLAND, SALIVARY, PAROTID",NA,NA,NA,NA,NA,NA,"SUPERVISING PATHOLOGIST",NA,NA,"2013-02-06T11:06:00",789
"PDS2014","MA","PDS2014-0013",484,NA,NA,NA,"GROSPATH","Gross Pathological Examination",NA,"NORMAL","NORMAL",NA,NA,NA,"GLAND, THYROID",NA,NA,NA,NA,NA,NA,"SUPERVISING PATHOLOGIST",NA,NA,"2013-02-06T11:06:00",789
"PDS2014","MA","PDS2014-0013",485,NA,NA,NA,"GROSPATH","Gross Pathological Examination",NA,"NORMAL","NORMAL",NA,NA,NA,"GLAND, PARATHYROID",NA,NA,NA,NA,NA,NA,"SUPERVISING PATHOLOGIST",NA,NA,"2013-02-06T11:06:00",789
"PDS2014","MA","PDS2014-0013",486,NA,NA,NA,"GROSPATH","Gross Pathological Examination",NA,"NORMAL","NORMAL",NA,NA,NA,"LARYNX",NA,NA,NA,NA,NA,NA,"SUPERVISING PATHOLOGIST",NA,NA,"2013-02-06T11:06:00",789
"PDS2014","MA","PDS2014-0013",487,NA,NA,NA,"GROSPATH","Gross Pathological Examination",NA,"NORMAL","NORMAL",NA,NA,NA,"BRAIN",NA,NA,NA,NA,NA,NA,"SUPERVISING PATHOLOGIST",NA,NA,"2013-02-06T11:06:00",789
"PDS2014","MA","PDS2014-0013",488,NA,NA,NA,"GROSPATH","Gross Pathological Examination",NA,"NORMAL","NORMAL",NA,NA,NA,"GLAND, PITUITARY",NA,NA,NA,NA,NA,NA,"SUPERVISING PATHOLOGIST",NA,NA,"2013-02-06T11:06:00",789
"PDS2014","MA","PDS2014-0013",489,NA,NA,NA,"GROSPATH","Gross Pathological Examination",NA,"NORMAL","NORMAL",NA,NA,NA,"EYE",NA,NA,NA,NA,NA,NA,"SUPERVISING PATHOLOGIST",NA,NA,"2013-02-06T11:06:00",789
"PDS2014","MA","PDS2014-0013",490,NA,NA,NA,"GROSPATH","Gross Pathological Examination",NA,"NORMAL","NORMAL",NA,NA,NA,"GLAND, HARDERIAN",NA,NA,NA,NA,NA,NA,"SUPERVISING PATHOLOGIST",NA,NA,"2013-02-06T11:06:00",789
"PDS2014","MA","PDS2014-0013",491,NA,NA,NA,"GROSPATH","Gross Pathological Examination",NA,"NORMAL","NORMAL",NA,NA,NA,"NOSE",NA,NA,NA,NA,NA,NA,"SUPERVISING PATHOLOGIST",NA,NA,"2013-02-06T11:06:00",789
"PDS2014","MA","PDS2014-0013",492,NA,NA,NA,"GROSPATH","Gross Pathological Examination",NA,"NORMAL","NORMAL",NA,NA,NA,"TONGUE",NA,NA,NA,NA,NA,NA,"SUPERVISING PATHOLOGIST",NA,NA,"2013-02-06T11:06:00",789
"PDS2014","MA","PDS2014-0013",493,NA,NA,NA,"GROSPATH","Gross Pathological Examination",NA,"NORMAL","NORMAL",NA,NA,NA,"SKIN",NA,NA,NA,NA,NA,NA,"SUPERVISING PATHOLOGIST",NA,NA,"2013-02-06T11:06:00",789
"PDS2014","MA","PDS2014-0013",494,NA,NA,NA,"GROSPATH","Gross Pathological Examination",NA,"NORMAL","NORMAL",NA,NA,NA,"GLAND, PREPUTIAL",NA,NA,NA,NA,NA,NA,"SUPERVISING PATHOLOGIST",NA,NA,"2013-02-06T11:06:00",789
"PDS2014","MA","PDS2014-0013",495,NA,NA,NA,"GROSPATH","Gross Pathological Examination",NA,"NORMAL","NORMAL",NA,NA,NA,"GLAND, MAMMARY",NA,NA,NA,NA,NA,NA,"SUPERVISING PATHOLOGIST",NA,NA,"2013-02-06T11:06:00",789
"PDS2014","MA","PDS2014-0013",496,NA,NA,NA,"GROSPATH","Gross Pathological Examination",NA,"NORMAL","NORMAL",NA,NA,NA,"BONE MARROW, STERNUM",NA,NA,NA,NA,NA,NA,"SUPERVISING PATHOLOGIST",NA,NA,"2013-02-06T11:06:00",789
"PDS2014","MA","PDS2014-0013",497,NA,NA,NA,"GROSPATH","Gross Pathological Examination",NA,"NORMAL","NORMAL",NA,NA,NA,"THYMUS",NA,NA,NA,NA,NA,NA,"SUPERVISING PATHOLOGIST",NA,NA,"2013-02-06T11:06:00",789
"PDS2014","MA","PDS2014-0013",498,NA,NA,NA,"GROSPATH","Gross Pathological Examination",NA,"NORMAL","NORMAL",NA,NA,NA,"HEART",NA,NA,NA,NA,NA,NA,"SUPERVISING PATHOLOGIST",NA,NA,"2013-02-06T11:06:00",789
"PDS2014","MA","PDS2014-0013",499,NA,NA,NA,"GROSPATH","Gross Pathological Examination",NA,"NORMAL","NORMAL",NA,NA,NA,"TRACHEA",NA,NA,NA,NA,NA,NA,"SUPERVISING PATHOLOGIST",NA,NA,"2013-02-06T11:06:00",789
"PDS2014","MA","PDS2014-0013",500,NA,NA,NA,"GROSPATH","Gross Pathological Examination",NA,"NORMAL","NORMAL",NA,NA,NA,"LUNG",NA,NA,NA,NA,NA,NA,"SUPERVISING PATHOLOGIST",NA,NA,"2013-02-06T11:06:00",789
"PDS2014","MA","PDS2014-0013",501,NA,NA,NA,"GROSPATH","Gross Pathological Examination",NA,"NORMAL","NORMAL",NA,NA,NA,"ESOPHAGUS",NA,NA,NA,NA,NA,NA,"SUPERVISING PATHOLOGIST",NA,NA,"2013-02-06T11:06:00",789
"PDS2014","MA","PDS2014-0013",502,NA,NA,NA,"GROSPATH","Gross Pathological Examination",NA,"NORMAL","NORMAL",NA,NA,NA,"ARTERY, AORTA",NA,NA,NA,NA,NA,NA,"SUPERVISING PATHOLOGIST",NA,NA,"2013-02-06T11:06:00",789
"PDS2014","MA","PDS2014-0013",503,NA,NA,NA,"GROSPATH","Gross Pathological Examination",NA,"NORMAL","NORMAL",NA,NA,NA,"SPLEEN",NA,NA,NA,NA,NA,NA,"SUPERVISING PATHOLOGIST",NA,NA,"2013-02-06T11:06:00",789
"PDS2014","MA","PDS2014-0013",504,NA,NA,NA,"GROSPATH","Gross Pathological Examination",NA,"NORMAL","NORMAL",NA,NA,NA,"PANCREAS",NA,NA,NA,NA,NA,NA,"SUPERVISING PATHOLOGIST",NA,NA,"2013-02-06T11:06:00",789
"PDS2014","MA","PDS2014-0013",505,NA,NA,NA,"GROSPATH","Gross Pathological Examination",NA,"NORMAL","NORMAL",NA,NA,NA,"STOMACH",NA,NA,NA,NA,NA,NA,"SUPERVISING PATHOLOGIST",NA,NA,"2013-02-06T11:06:00",789
"PDS2014","MA","PDS2014-0013",506,NA,NA,NA,"GROSPATH","Gross Pathological Examination",NA,"NORMAL","NORMAL",NA,NA,NA,"SMALL INTESTINE, DUODENUM",NA,NA,NA,NA,NA,NA,"SUPERVISING PATHOLOGIST",NA,NA,"2013-02-06T11:06:00",789
"PDS2014","MA","PDS2014-0013",507,NA,NA,NA,"GROSPATH","Gross Pathological Examination",NA,"NORMAL","NORMAL",NA,NA,NA,"SMALL INTESTINE, JEJUNUM",NA,NA,NA,NA,NA,NA,"SUPERVISING PATHOLOGIST",NA,NA,"2013-02-06T11:06:00",789
"PDS2014","MA","PDS2014-0013",508,NA,NA,NA,"GROSPATH","Gross Pathological Examination",NA,"NORMAL","NORMAL",NA,NA,NA,"LYMPH NODE, MESENTERIC",NA,NA,NA,NA,NA,NA,"SUPERVISING PATHOLOGIST",NA,NA,"2013-02-06T11:06:00",789
"PDS2014","MA","PDS2014-0013",509,NA,NA,NA,"GROSPATH","Gross Pathological Examination",NA,"NORMAL","NORMAL",NA,NA,NA,"LARGE INTESTINE, CECUM",NA,NA,NA,NA,NA,NA,"SUPERVISING PATHOLOGIST",NA,NA,"2013-02-06T11:06:00",789
"PDS2014","MA","PDS2014-0013",510,NA,NA,NA,"GROSPATH","Gross Pathological Examination",NA,"NORMAL","NORMAL",NA,NA,NA,"LARGE INTESTINE, COLON",NA,NA,NA,NA,NA,NA,"SUPERVISING PATHOLOGIST",NA,NA,"2013-02-06T11:06:00",789
"PDS2014","MA","PDS2014-0013",511,NA,NA,NA,"GROSPATH","Gross Pathological Examination",NA,"NORMAL","NORMAL",NA,NA,NA,"SMALL INTESTINE, ILEUM",NA,NA,NA,NA,NA,NA,"SUPERVISING PATHOLOGIST",NA,NA,"2013-02-06T11:06:00",789
"PDS2014","MA","PDS2014-0013",512,NA,NA,NA,"GROSPATH","Gross Pathological Examination",NA,"NORMAL","NORMAL",NA,NA,NA,"GLAND, ADRENAL",NA,NA,NA,NA,NA,NA,"SUPERVISING PATHOLOGIST",NA,NA,"2013-02-06T11:06:00",789
"PDS2014","MA","PDS2014-0013",513,NA,NA,NA,"GROSPATH","Gross Pathological Examination",NA,"NORMAL","NORMAL",NA,NA,NA,"URETER",NA,NA,NA,NA,NA,NA,"SUPERVISING PATHOLOGIST",NA,NA,"2013-02-06T11:06:00",789
"PDS2014","MA","PDS2014-0013",514,NA,NA,NA,"GROSPATH","Gross Pathological Examination",NA,"NORMAL","NORMAL",NA,NA,NA,"KIDNEY",NA,NA,NA,NA,NA,NA,"SUPERVISING PATHOLOGIST",NA,NA,"2013-02-06T11:06:00",789
"PDS2014","MA","PDS2014-0013",515,NA,NA,NA,"GROSPATH","Gross Pathological Examination",NA,"NORMAL","NORMAL",NA,NA,NA,"URINARY BLADDER",NA,NA,NA,NA,NA,NA,"SUPERVISING PATHOLOGIST",NA,NA,"2013-02-06T11:06:00",789
"PDS2014","MA","PDS2014-0013",516,NA,NA,NA,"GROSPATH","Gross Pathological Examination",NA,"NORMAL","NORMAL",NA,NA,NA,"TESTIS",NA,NA,NA,NA,NA,NA,"SUPERVISING PATHOLOGIST",NA,NA,"2013-02-06T11:06:00",789
"PDS2014","MA","PDS2014-0013",517,NA,NA,NA,"GROSPATH","Gross Pathological Examination",NA,"NORMAL","NORMAL",NA,NA,NA,"EPIDIDYMIS",NA,NA,NA,NA,NA,NA,"SUPERVISING PATHOLOGIST",NA,NA,"2013-02-06T11:06:00",789
"PDS2014","MA","PDS2014-0013",518,NA,NA,NA,"GROSPATH","Gross Pathological Examination",NA,"NORMAL","NORMAL",NA,NA,NA,"GLAND, PROSTATE",NA,NA,NA,NA,NA,NA,"SUPERVISING PATHOLOGIST",NA,NA,"2013-02-06T11:06:00",789
"PDS2014","MA","PDS2014-0013",519,NA,NA,NA,"GROSPATH","Gross Pathological Examination",NA,"NORMAL","NORMAL",NA,NA,NA,"GLAND, SEMINAL VESICLE",NA,NA,NA,NA,NA,NA,"SUPERVISING PATHOLOGIST",NA,NA,"2013-02-06T11:06:00",789
"PDS2014","MA","PDS2014-0013",520,NA,NA,NA,"GROSPATH","Gross Pathological Examination",NA,"NORMAL","NORMAL",NA,NA,NA,"SITE, MICROCHIP",NA,NA,NA,NA,NA,NA,"SUPERVISING PATHOLOGIST",NA,NA,"2013-02-06T11:06:00",789
"PDS2014","MA","PDS2014-0013",521,NA,NA,NA,"GROSPATH","Gross Pathological Examination",NA,"NORMAL","NORMAL",NA,NA,NA,"LARGE INTESTINE, RECTUM",NA,NA,NA,NA,NA,NA,"SUPERVISING PATHOLOGIST",NA,NA,"2013-02-06T11:06:00",789
"PDS2014","MA","PDS2014-0013",522,NA,NA,NA,"GROSPATH","Gross Pathological Examination",NA,"NORMAL","NORMAL",NA,NA,NA,"BONE MARROW, FEMUR",NA,NA,NA,NA,NA,NA,"SUPERVISING PATHOLOGIST",NA,NA,"2013-02-06T11:06:00",789
"PDS2014","MA","PDS2014-0014",523,NA,NA,NA,"GROSPATH","Gross Pathological Examination",NA,"frozen sample (co2-ice)","frozen sample (co2-ice)",NA,NA,NA,"LIVER",NA,NA,NA,NA,NA,NA,"SUPERVISING PATHOLOGIST",NA,NA,"2013-02-06T09:27:00",789
"PDS2014","MA","PDS2014-0014",524,NA,NA,NA,"GROSPATH","Gross Pathological Examination",NA,"NORMAL","NORMAL",NA,NA,NA,"NERVE, SCIATIC",NA,NA,NA,NA,NA,NA,"SUPERVISING PATHOLOGIST",NA,NA,"2013-02-06T09:27:00",789
"PDS2014","MA","PDS2014-0014",525,NA,NA,NA,"GROSPATH","Gross Pathological Examination",NA,"NORMAL","NORMAL",NA,NA,NA,"MUSCLE, QUADRICEPS FEMORIS",NA,NA,NA,NA,NA,NA,"SUPERVISING PATHOLOGIST",NA,NA,"2013-02-06T09:27:00",789
"PDS2014","MA","PDS2014-0014",526,NA,NA,NA,"GROSPATH","Gross Pathological Examination",NA,"NORMAL","NORMAL",NA,NA,NA,"GLAND, SALIVARY, PAROTID",NA,NA,NA,NA,NA,NA,"SUPERVISING PATHOLOGIST",NA,NA,"2013-02-06T09:27:00",789
"PDS2014","MA","PDS2014-0014",527,NA,NA,NA,"GROSPATH","Gross Pathological Examination",NA,"NORMAL","NORMAL",NA,NA,NA,"GLAND, THYROID",NA,NA,NA,NA,NA,NA,"SUPERVISING PATHOLOGIST",NA,NA,"2013-02-06T09:27:00",789
"PDS2014","MA","PDS2014-0014",528,NA,NA,NA,"GROSPATH","Gross Pathological Examination",NA,"NORMAL","NORMAL",NA,NA,NA,"GLAND, PARATHYROID",NA,NA,NA,NA,NA,NA,"SUPERVISING PATHOLOGIST",NA,NA,"2013-02-06T09:27:00",789
"PDS2014","MA","PDS2014-0014",529,NA,NA,NA,"GROSPATH","Gross Pathological Examination",NA,"NORMAL","NORMAL",NA,NA,NA,"LARYNX",NA,NA,NA,NA,NA,NA,"SUPERVISING PATHOLOGIST",NA,NA,"2013-02-06T09:27:00",789
"PDS2014","MA","PDS2014-0014",530,NA,NA,NA,"GROSPATH","Gross Pathological Examination",NA,"NORMAL","NORMAL",NA,NA,NA,"BRAIN",NA,NA,NA,NA,NA,NA,"SUPERVISING PATHOLOGIST",NA,NA,"2013-02-06T09:27:00",789
"PDS2014","MA","PDS2014-0014",531,NA,NA,NA,"GROSPATH","Gross Pathological Examination",NA,"NORMAL","NORMAL",NA,NA,NA,"GLAND, PITUITARY",NA,NA,NA,NA,NA,NA,"SUPERVISING PATHOLOGIST",NA,NA,"2013-02-06T09:27:00",789
"PDS2014","MA","PDS2014-0014",532,NA,NA,NA,"GROSPATH","Gross Pathological Examination",NA,"NORMAL","NORMAL",NA,NA,NA,"EYE",NA,NA,NA,NA,NA,NA,"SUPERVISING PATHOLOGIST",NA,NA,"2013-02-06T09:27:00",789
"PDS2014","MA","PDS2014-0014",533,NA,NA,NA,"GROSPATH","Gross Pathological Examination",NA,"NORMAL","NORMAL",NA,NA,NA,"GLAND, HARDERIAN",NA,NA,NA,NA,NA,NA,"SUPERVISING PATHOLOGIST",NA,NA,"2013-02-06T09:27:00",789
"PDS2014","MA","PDS2014-0014",534,NA,NA,NA,"GROSPATH","Gross Pathological Examination",NA,"NORMAL","NORMAL",NA,NA,NA,"NOSE",NA,NA,NA,NA,NA,NA,"SUPERVISING PATHOLOGIST",NA,NA,"2013-02-06T09:27:00",789
"PDS2014","MA","PDS2014-0014",535,NA,NA,NA,"GROSPATH","Gross Pathological Examination",NA,"NORMAL","NORMAL",NA,NA,NA,"TONGUE",NA,NA,NA,NA,NA,NA,"SUPERVISING PATHOLOGIST",NA,NA,"2013-02-06T09:27:00",789
"PDS2014","MA","PDS2014-0014",536,NA,NA,NA,"GROSPATH","Gross Pathological Examination",NA,"NORMAL","NORMAL",NA,NA,NA,"SKIN",NA,NA,NA,NA,NA,NA,"SUPERVISING PATHOLOGIST",NA,NA,"2013-02-06T09:27:00",789
"PDS2014","MA","PDS2014-0014",537,NA,NA,NA,"GROSPATH","Gross Pathological Examination",NA,"NORMAL","NORMAL",NA,NA,NA,"GLAND, PREPUTIAL",NA,NA,NA,NA,NA,NA,"SUPERVISING PATHOLOGIST",NA,NA,"2013-02-06T09:27:00",789
"PDS2014","MA","PDS2014-0014",538,NA,NA,NA,"GROSPATH","Gross Pathological Examination",NA,"NORMAL","NORMAL",NA,NA,NA,"GLAND, MAMMARY",NA,NA,NA,NA,NA,NA,"SUPERVISING PATHOLOGIST",NA,NA,"2013-02-06T09:27:00",789
"PDS2014","MA","PDS2014-0014",539,NA,NA,NA,"GROSPATH","Gross Pathological Examination",NA,"NORMAL","NORMAL",NA,NA,NA,"BONE MARROW, STERNUM",NA,NA,NA,NA,NA,NA,"SUPERVISING PATHOLOGIST",NA,NA,"2013-02-06T09:27:00",789
"PDS2014","MA","PDS2014-0014",540,NA,NA,NA,"GROSPATH","Gross Pathological Examination",NA,"NORMAL","NORMAL",NA,NA,NA,"THYMUS",NA,NA,NA,NA,NA,NA,"SUPERVISING PATHOLOGIST",NA,NA,"2013-02-06T09:27:00",789
"PDS2014","MA","PDS2014-0014",541,NA,NA,NA,"GROSPATH","Gross Pathological Examination",NA,"NORMAL","NORMAL",NA,NA,NA,"HEART",NA,NA,NA,NA,NA,NA,"SUPERVISING PATHOLOGIST",NA,NA,"2013-02-06T09:27:00",789
"PDS2014","MA","PDS2014-0014",542,NA,NA,NA,"GROSPATH","Gross Pathological Examination",NA,"NORMAL","NORMAL",NA,NA,NA,"TRACHEA",NA,NA,NA,NA,NA,NA,"SUPERVISING PATHOLOGIST",NA,NA,"2013-02-06T09:27:00",789
"PDS2014","MA","PDS2014-0014",543,NA,NA,NA,"GROSPATH","Gross Pathological Examination",NA,"NORMAL","NORMAL",NA,NA,NA,"LUNG",NA,NA,NA,NA,NA,NA,"SUPERVISING PATHOLOGIST",NA,NA,"2013-02-06T09:27:00",789
"PDS2014","MA","PDS2014-0014",544,NA,NA,NA,"GROSPATH","Gross Pathological Examination",NA,"NORMAL","NORMAL",NA,NA,NA,"ESOPHAGUS",NA,NA,NA,NA,NA,NA,"SUPERVISING PATHOLOGIST",NA,NA,"2013-02-06T09:27:00",789
"PDS2014","MA","PDS2014-0014",545,NA,NA,NA,"GROSPATH","Gross Pathological Examination",NA,"NORMAL","NORMAL",NA,NA,NA,"ARTERY, AORTA",NA,NA,NA,NA,NA,NA,"SUPERVISING PATHOLOGIST",NA,NA,"2013-02-06T09:27:00",789
"PDS2014","MA","PDS2014-0014",546,NA,NA,NA,"GROSPATH","Gross Pathological Examination",NA,"NORMAL","NORMAL",NA,NA,NA,"SPLEEN",NA,NA,NA,NA,NA,NA,"SUPERVISING PATHOLOGIST",NA,NA,"2013-02-06T09:27:00",789
"PDS2014","MA","PDS2014-0014",547,NA,NA,NA,"GROSPATH","Gross Pathological Examination",NA,"NORMAL","NORMAL",NA,NA,NA,"PANCREAS",NA,NA,NA,NA,NA,NA,"SUPERVISING PATHOLOGIST",NA,NA,"2013-02-06T09:27:00",789
"PDS2014","MA","PDS2014-0014",548,NA,NA,NA,"GROSPATH","Gross Pathological Examination",NA,"NORMAL","NORMAL",NA,NA,NA,"STOMACH",NA,NA,NA,NA,NA,NA,"SUPERVISING PATHOLOGIST",NA,NA,"2013-02-06T09:27:00",789
"PDS2014","MA","PDS2014-0014",549,NA,NA,NA,"GROSPATH","Gross Pathological Examination",NA,"NORMAL","NORMAL",NA,NA,NA,"SMALL INTESTINE, DUODENUM",NA,NA,NA,NA,NA,NA,"SUPERVISING PATHOLOGIST",NA,NA,"2013-02-06T09:27:00",789
"PDS2014","MA","PDS2014-0014",550,NA,NA,NA,"GROSPATH","Gross Pathological Examination",NA,"NORMAL","NORMAL",NA,NA,NA,"SMALL INTESTINE, JEJUNUM",NA,NA,NA,NA,NA,NA,"SUPERVISING PATHOLOGIST",NA,NA,"2013-02-06T09:27:00",789
"PDS2014","MA","PDS2014-0014",551,NA,NA,NA,"GROSPATH","Gross Pathological Examination",NA,"NORMAL","NORMAL",NA,NA,NA,"LYMPH NODE, MESENTERIC",NA,NA,NA,NA,NA,NA,"SUPERVISING PATHOLOGIST",NA,NA,"2013-02-06T09:27:00",789
"PDS2014","MA","PDS2014-0014",552,NA,NA,NA,"GROSPATH","Gross Pathological Examination",NA,"NORMAL","NORMAL",NA,NA,NA,"LARGE INTESTINE, CECUM",NA,NA,NA,NA,NA,NA,"SUPERVISING PATHOLOGIST",NA,NA,"2013-02-06T09:27:00",789
"PDS2014","MA","PDS2014-0014",553,NA,NA,NA,"GROSPATH","Gross Pathological Examination",NA,"NORMAL","NORMAL",NA,NA,NA,"LARGE INTESTINE, COLON",NA,NA,NA,NA,NA,NA,"SUPERVISING PATHOLOGIST",NA,NA,"2013-02-06T09:27:00",789
"PDS2014","MA","PDS2014-0014",554,NA,NA,NA,"GROSPATH","Gross Pathological Examination",NA,"NORMAL","NORMAL",NA,NA,NA,"SMALL INTESTINE, ILEUM",NA,NA,NA,NA,NA,NA,"SUPERVISING PATHOLOGIST",NA,NA,"2013-02-06T09:27:00",789
"PDS2014","MA","PDS2014-0014",555,NA,NA,NA,"GROSPATH","Gross Pathological Examination",NA,"NORMAL","NORMAL",NA,NA,NA,"GLAND, ADRENAL",NA,NA,NA,NA,NA,NA,"SUPERVISING PATHOLOGIST",NA,NA,"2013-02-06T09:27:00",789
"PDS2014","MA","PDS2014-0014",556,NA,NA,NA,"GROSPATH","Gross Pathological Examination",NA,"NORMAL","NORMAL",NA,NA,NA,"URETER",NA,NA,NA,NA,NA,NA,"SUPERVISING PATHOLOGIST",NA,NA,"2013-02-06T09:27:00",789
"PDS2014","MA","PDS2014-0014",557,NA,NA,NA,"GROSPATH","Gross Pathological Examination",NA,"NORMAL","NORMAL",NA,NA,NA,"KIDNEY",NA,NA,NA,NA,NA,NA,"SUPERVISING PATHOLOGIST",NA,NA,"2013-02-06T09:27:00",789
"PDS2014","MA","PDS2014-0014",558,NA,NA,NA,"GROSPATH","Gross Pathological Examination",NA,"NORMAL","NORMAL",NA,NA,NA,"URINARY BLADDER",NA,NA,NA,NA,NA,NA,"SUPERVISING PATHOLOGIST",NA,NA,"2013-02-06T09:27:00",789
"PDS2014","MA","PDS2014-0014",559,NA,NA,NA,"GROSPATH","Gross Pathological Examination",NA,"NORMAL","NORMAL",NA,NA,NA,"TESTIS",NA,NA,NA,NA,NA,NA,"SUPERVISING PATHOLOGIST",NA,NA,"2013-02-06T09:27:00",789
"PDS2014","MA","PDS2014-0014",560,NA,NA,NA,"GROSPATH","Gross Pathological Examination",NA,"NORMAL","NORMAL",NA,NA,NA,"EPIDIDYMIS",NA,NA,NA,NA,NA,NA,"SUPERVISING PATHOLOGIST",NA,NA,"2013-02-06T09:27:00",789
"PDS2014","MA","PDS2014-0014",561,NA,NA,NA,"GROSPATH","Gross Pathological Examination",NA,"NORMAL","NORMAL",NA,NA,NA,"GLAND, PROSTATE",NA,NA,NA,NA,NA,NA,"SUPERVISING PATHOLOGIST",NA,NA,"2013-02-06T09:27:00",789
"PDS2014","MA","PDS2014-0014",562,NA,NA,NA,"GROSPATH","Gross Pathological Examination",NA,"NORMAL","NORMAL",NA,NA,NA,"GLAND, SEMINAL VESICLE",NA,NA,NA,NA,NA,NA,"SUPERVISING PATHOLOGIST",NA,NA,"2013-02-06T09:27:00",789
"PDS2014","MA","PDS2014-0014",563,NA,NA,NA,"GROSPATH","Gross Pathological Examination",NA,"NORMAL","NORMAL",NA,NA,NA,"SITE, MICROCHIP",NA,NA,NA,NA,NA,NA,"SUPERVISING PATHOLOGIST",NA,NA,"2013-02-06T09:27:00",789
"PDS2014","MA","PDS2014-0014",564,NA,NA,NA,"GROSPATH","Gross Pathological Examination",NA,"NORMAL","NORMAL",NA,NA,NA,"LARGE INTESTINE, RECTUM",NA,NA,NA,NA,NA,NA,"SUPERVISING PATHOLOGIST",NA,NA,"2013-02-06T09:27:00",789
"PDS2014","MA","PDS2014-0014",565,NA,NA,NA,"GROSPATH","Gross Pathological Examination",NA,"NORMAL","NORMAL",NA,NA,NA,"BONE MARROW, FEMUR",NA,NA,NA,NA,NA,NA,"SUPERVISING PATHOLOGIST",NA,NA,"2013-02-06T09:27:00",789
"PDS2014","MA","PDS2014-0015",566,NA,NA,NA,"GROSPATH","Gross Pathological Examination",NA,"tissue damaged at necropsy","tissue damaged at necropsy",NA,NA,NA,"BRAIN",NA,NA,NA,NA,NA,NA,"SUPERVISING PATHOLOGIST",NA,NA,"2013-02-06T11:35:00",789
"PDS2014","MA","PDS2014-0015",567,NA,NA,NA,"GROSPATH","Gross Pathological Examination",NA,"frozen sample (co2-ice)","frozen sample (co2-ice)",NA,NA,NA,"LIVER",NA,NA,NA,NA,NA,NA,"SUPERVISING PATHOLOGIST",NA,NA,"2013-02-06T11:35:00",789
"PDS2014","MA","PDS2014-0015",568,NA,NA,NA,"GROSPATH","Gross Pathological Examination",NA,"NORMAL","NORMAL",NA,NA,NA,"NERVE, SCIATIC",NA,NA,NA,NA,NA,NA,"SUPERVISING PATHOLOGIST",NA,NA,"2013-02-06T11:35:00",789
"PDS2014","MA","PDS2014-0015",569,NA,NA,NA,"GROSPATH","Gross Pathological Examination",NA,"NORMAL","NORMAL",NA,NA,NA,"MUSCLE, QUADRICEPS FEMORIS",NA,NA,NA,NA,NA,NA,"SUPERVISING PATHOLOGIST",NA,NA,"2013-02-06T11:35:00",789
"PDS2014","MA","PDS2014-0015",570,NA,NA,NA,"GROSPATH","Gross Pathological Examination",NA,"NORMAL","NORMAL",NA,NA,NA,"GLAND, SALIVARY, PAROTID",NA,NA,NA,NA,NA,NA,"SUPERVISING PATHOLOGIST",NA,NA,"2013-02-06T11:35:00",789
"PDS2014","MA","PDS2014-0015",571,NA,NA,NA,"GROSPATH","Gross Pathological Examination",NA,"NORMAL","NORMAL",NA,NA,NA,"GLAND, THYROID",NA,NA,NA,NA,NA,NA,"SUPERVISING PATHOLOGIST",NA,NA,"2013-02-06T11:35:00",789
"PDS2014","MA","PDS2014-0015",572,NA,NA,NA,"GROSPATH","Gross Pathological Examination",NA,"NORMAL","NORMAL",NA,NA,NA,"GLAND, PARATHYROID",NA,NA,NA,NA,NA,NA,"SUPERVISING PATHOLOGIST",NA,NA,"2013-02-06T11:35:00",789
"PDS2014","MA","PDS2014-0015",573,NA,NA,NA,"GROSPATH","Gross Pathological Examination",NA,"NORMAL","NORMAL",NA,NA,NA,"LARYNX",NA,NA,NA,NA,NA,NA,"SUPERVISING PATHOLOGIST",NA,NA,"2013-02-06T11:35:00",789
"PDS2014","MA","PDS2014-0015",574,NA,NA,NA,"GROSPATH","Gross Pathological Examination",NA,"NORMAL","NORMAL",NA,NA,NA,"GLAND, PITUITARY",NA,NA,NA,NA,NA,NA,"SUPERVISING PATHOLOGIST",NA,NA,"2013-02-06T11:35:00",789
"PDS2014","MA","PDS2014-0015",575,NA,NA,NA,"GROSPATH","Gross Pathological Examination",NA,"NORMAL","NORMAL",NA,NA,NA,"EYE",NA,NA,NA,NA,NA,NA,"SUPERVISING PATHOLOGIST",NA,NA,"2013-02-06T11:35:00",789
"PDS2014","MA","PDS2014-0015",576,NA,NA,NA,"GROSPATH","Gross Pathological Examination",NA,"NORMAL","NORMAL",NA,NA,NA,"GLAND, HARDERIAN",NA,NA,NA,NA,NA,NA,"SUPERVISING PATHOLOGIST",NA,NA,"2013-02-06T11:35:00",789
"PDS2014","MA","PDS2014-0015",577,NA,NA,NA,"GROSPATH","Gross Pathological Examination",NA,"NORMAL","NORMAL",NA,NA,NA,"NOSE",NA,NA,NA,NA,NA,NA,"SUPERVISING PATHOLOGIST",NA,NA,"2013-02-06T11:35:00",789
"PDS2014","MA","PDS2014-0015",578,NA,NA,NA,"GROSPATH","Gross Pathological Examination",NA,"NORMAL","NORMAL",NA,NA,NA,"TONGUE",NA,NA,NA,NA,NA,NA,"SUPERVISING PATHOLOGIST",NA,NA,"2013-02-06T11:35:00",789
"PDS2014","MA","PDS2014-0015",579,NA,NA,NA,"GROSPATH","Gross Pathological Examination",NA,"NORMAL","NORMAL",NA,NA,NA,"SKIN",NA,NA,NA,NA,NA,NA,"SUPERVISING PATHOLOGIST",NA,NA,"2013-02-06T11:35:00",789
"PDS2014","MA","PDS2014-0015",580,NA,NA,NA,"GROSPATH","Gross Pathological Examination",NA,"NORMAL","NORMAL",NA,NA,NA,"GLAND, PREPUTIAL",NA,NA,NA,NA,NA,NA,"SUPERVISING PATHOLOGIST",NA,NA,"2013-02-06T11:35:00",789
"PDS2014","MA","PDS2014-0015",581,NA,NA,NA,"GROSPATH","Gross Pathological Examination",NA,"NORMAL","NORMAL",NA,NA,NA,"GLAND, MAMMARY",NA,NA,NA,NA,NA,NA,"SUPERVISING PATHOLOGIST",NA,NA,"2013-02-06T11:35:00",789
"PDS2014","MA","PDS2014-0015",582,NA,NA,NA,"GROSPATH","Gross Pathological Examination",NA,"NORMAL","NORMAL",NA,NA,NA,"BONE MARROW, STERNUM",NA,NA,NA,NA,NA,NA,"SUPERVISING PATHOLOGIST",NA,NA,"2013-02-06T11:35:00",789
"PDS2014","MA","PDS2014-0015",583,NA,NA,NA,"GROSPATH","Gross Pathological Examination",NA,"NORMAL","NORMAL",NA,NA,NA,"THYMUS",NA,NA,NA,NA,NA,NA,"SUPERVISING PATHOLOGIST",NA,NA,"2013-02-06T11:35:00",789
"PDS2014","MA","PDS2014-0015",584,NA,NA,NA,"GROSPATH","Gross Pathological Examination",NA,"NORMAL","NORMAL",NA,NA,NA,"HEART",NA,NA,NA,NA,NA,NA,"SUPERVISING PATHOLOGIST",NA,NA,"2013-02-06T11:35:00",789
"PDS2014","MA","PDS2014-0015",585,NA,NA,NA,"GROSPATH","Gross Pathological Examination",NA,"NORMAL","NORMAL",NA,NA,NA,"TRACHEA",NA,NA,NA,NA,NA,NA,"SUPERVISING PATHOLOGIST",NA,NA,"2013-02-06T11:35:00",789
"PDS2014","MA","PDS2014-0015",586,NA,NA,NA,"GROSPATH","Gross Pathological Examination",NA,"NORMAL","NORMAL",NA,NA,NA,"LUNG",NA,NA,NA,NA,NA,NA,"SUPERVISING PATHOLOGIST",NA,NA,"2013-02-06T11:35:00",789
"PDS2014","MA","PDS2014-0015",587,NA,NA,NA,"GROSPATH","Gross Pathological Examination",NA,"NORMAL","NORMAL",NA,NA,NA,"ESOPHAGUS",NA,NA,NA,NA,NA,NA,"SUPERVISING PATHOLOGIST",NA,NA,"2013-02-06T11:35:00",789
"PDS2014","MA","PDS2014-0015",588,NA,NA,NA,"GROSPATH","Gross Pathological Examination",NA,"NORMAL","NORMAL",NA,NA,NA,"ARTERY, AORTA",NA,NA,NA,NA,NA,NA,"SUPERVISING PATHOLOGIST",NA,NA,"2013-02-06T11:35:00",789
"PDS2014","MA","PDS2014-0015",589,NA,NA,NA,"GROSPATH","Gross Pathological Examination",NA,"NORMAL","NORMAL",NA,NA,NA,"SPLEEN",NA,NA,NA,NA,NA,NA,"SUPERVISING PATHOLOGIST",NA,NA,"2013-02-06T11:35:00",789
"PDS2014","MA","PDS2014-0015",590,NA,NA,NA,"GROSPATH","Gross Pathological Examination",NA,"NORMAL","NORMAL",NA,NA,NA,"PANCREAS",NA,NA,NA,NA,NA,NA,"SUPERVISING PATHOLOGIST",NA,NA,"2013-02-06T11:35:00",789
"PDS2014","MA","PDS2014-0015",591,NA,NA,NA,"GROSPATH","Gross Pathological Examination",NA,"NORMAL","NORMAL",NA,NA,NA,"STOMACH",NA,NA,NA,NA,NA,NA,"SUPERVISING PATHOLOGIST",NA,NA,"2013-02-06T11:35:00",789
"PDS2014","MA","PDS2014-0015",592,NA,NA,NA,"GROSPATH","Gross Pathological Examination",NA,"NORMAL","NORMAL",NA,NA,NA,"SMALL INTESTINE, DUODENUM",NA,NA,NA,NA,NA,NA,"SUPERVISING PATHOLOGIST",NA,NA,"2013-02-06T11:35:00",789
"PDS2014","MA","PDS2014-0015",593,NA,NA,NA,"GROSPATH","Gross Pathological Examination",NA,"NORMAL","NORMAL",NA,NA,NA,"SMALL INTESTINE, JEJUNUM",NA,NA,NA,NA,NA,NA,"SUPERVISING PATHOLOGIST",NA,NA,"2013-02-06T11:35:00",789
"PDS2014","MA","PDS2014-0015",594,NA,NA,NA,"GROSPATH","Gross Pathological Examination",NA,"NORMAL","NORMAL",NA,NA,NA,"LYMPH NODE, MESENTERIC",NA,NA,NA,NA,NA,NA,"SUPERVISING PATHOLOGIST",NA,NA,"2013-02-06T11:35:00",789
"PDS2014","MA","PDS2014-0015",595,NA,NA,NA,"GROSPATH","Gross Pathological Examination",NA,"NORMAL","NORMAL",NA,NA,NA,"LARGE INTESTINE, CECUM",NA,NA,NA,NA,NA,NA,"SUPERVISING PATHOLOGIST",NA,NA,"2013-02-06T11:35:00",789
"PDS2014","MA","PDS2014-0015",596,NA,NA,NA,"GROSPATH","Gross Pathological Examination",NA,"NORMAL","NORMAL",NA,NA,NA,"LARGE INTESTINE, COLON",NA,NA,NA,NA,NA,NA,"SUPERVISING PATHOLOGIST",NA,NA,"2013-02-06T11:35:00",789
"PDS2014","MA","PDS2014-0015",597,NA,NA,NA,"GROSPATH","Gross Pathological Examination",NA,"NORMAL","NORMAL",NA,NA,NA,"SMALL INTESTINE, ILEUM",NA,NA,NA,NA,NA,NA,"SUPERVISING PATHOLOGIST",NA,NA,"2013-02-06T11:35:00",789
"PDS2014","MA","PDS2014-0015",598,NA,NA,NA,"GROSPATH","Gross Pathological Examination",NA,"NORMAL","NORMAL",NA,NA,NA,"GLAND, ADRENAL",NA,NA,NA,NA,NA,NA,"SUPERVISING PATHOLOGIST",NA,NA,"2013-02-06T11:35:00",789
"PDS2014","MA","PDS2014-0015",599,NA,NA,NA,"GROSPATH","Gross Pathological Examination",NA,"NORMAL","NORMAL",NA,NA,NA,"URETER",NA,NA,NA,NA,NA,NA,"SUPERVISING PATHOLOGIST",NA,NA,"2013-02-06T11:35:00",789
"PDS2014","MA","PDS2014-0015",600,NA,NA,NA,"GROSPATH","Gross Pathological Examination",NA,"NORMAL","NORMAL",NA,NA,NA,"KIDNEY",NA,NA,NA,NA,NA,NA,"SUPERVISING PATHOLOGIST",NA,NA,"2013-02-06T11:35:00",789
"PDS2014","MA","PDS2014-0015",601,NA,NA,NA,"GROSPATH","Gross Pathological Examination",NA,"NORMAL","NORMAL",NA,NA,NA,"URINARY BLADDER",NA,NA,NA,NA,NA,NA,"SUPERVISING PATHOLOGIST",NA,NA,"2013-02-06T11:35:00",789
"PDS2014","MA","PDS2014-0015",602,NA,NA,NA,"GROSPATH","Gross Pathological Examination",NA,"NORMAL","NORMAL",NA,NA,NA,"TESTIS",NA,NA,NA,NA,NA,NA,"SUPERVISING PATHOLOGIST",NA,NA,"2013-02-06T11:35:00",789
"PDS2014","MA","PDS2014-0015",603,NA,NA,NA,"GROSPATH","Gross Pathological Examination",NA,"NORMAL","NORMAL",NA,NA,NA,"EPIDIDYMIS",NA,NA,NA,NA,NA,NA,"SUPERVISING PATHOLOGIST",NA,NA,"2013-02-06T11:35:00",789
"PDS2014","MA","PDS2014-0015",604,NA,NA,NA,"GROSPATH","Gross Pathological Examination",NA,"NORMAL","NORMAL",NA,NA,NA,"GLAND, PROSTATE",NA,NA,NA,NA,NA,NA,"SUPERVISING PATHOLOGIST",NA,NA,"2013-02-06T11:35:00",789
"PDS2014","MA","PDS2014-0015",605,NA,NA,NA,"GROSPATH","Gross Pathological Examination",NA,"NORMAL","NORMAL",NA,NA,NA,"GLAND, SEMINAL VESICLE",NA,NA,NA,NA,NA,NA,"SUPERVISING PATHOLOGIST",NA,NA,"2013-02-06T11:35:00",789
"PDS2014","MA","PDS2014-0015",606,NA,NA,NA,"GROSPATH","Gross Pathological Examination",NA,"NORMAL","NORMAL",NA,NA,NA,"SITE, MICROCHIP",NA,NA,NA,NA,NA,NA,"SUPERVISING PATHOLOGIST",NA,NA,"2013-02-06T11:35:00",789
"PDS2014","MA","PDS2014-0015",607,NA,NA,NA,"GROSPATH","Gross Pathological Examination",NA,"NORMAL","NORMAL",NA,NA,NA,"LARGE INTESTINE, RECTUM",NA,NA,NA,NA,NA,NA,"SUPERVISING PATHOLOGIST",NA,NA,"2013-02-06T11:35:00",789
"PDS2014","MA","PDS2014-0015",608,NA,NA,NA,"GROSPATH","Gross Pathological Examination",NA,"NORMAL","NORMAL",NA,NA,NA,"BONE MARROW, FEMUR",NA,NA,NA,NA,NA,NA,"SUPERVISING PATHOLOGIST",NA,NA,"2013-02-06T11:35:00",789
"PDS2014","MA","PDS2014-0016",609,NA,NA,NA,"GROSPATH","Gross Pathological Examination",NA,"No necropsy observations noted","NORMAL",NA,NA,NA,"ALL TISSUES",NA,NA,NA,NA,NA,NA,"SUPERVISING PATHOLOGIST",NA,NA,"2011-01-09T13:47:03",30
"PDS2014","MA","PDS2014-0017",610,NA,NA,NA,"GROSPATH","Gross Pathological Examination",NA,"No necropsy observations noted","NORMAL",NA,NA,NA,"ALL TISSUES",NA,NA,NA,NA,NA,NA,"SUPERVISING PATHOLOGIST",NA,NA,"2011-01-09T13:47:32",30
"PDS2014","MA","PDS2014-0018",611,NA,NA,NA,"GROSPATH","Gross Pathological Examination",NA,"No necropsy observations noted","NORMAL",NA,NA,NA,"ALL TISSUES",NA,NA,NA,NA,NA,NA,"SUPERVISING PATHOLOGIST",NA,NA,"2011-01-09T13:48:14",30
"PDS2014","MA","PDS2014-0021",612,NA,NA,NA,"GROSPATH","Gross Pathological Examination",NA,"frozen sample (co2-ice)","frozen sample (co2-ice)",NA,NA,NA,"LIVER",NA,NA,NA,NA,NA,NA,"SUPERVISING PATHOLOGIST",NA,NA,"2011-01-09T10:08:00",30
"PDS2014","MA","PDS2014-0021",613,NA,NA,NA,"GROSPATH","Gross Pathological Examination",NA,"NORMAL","NORMAL",NA,NA,NA,"NERVE, SCIATIC",NA,NA,NA,NA,NA,NA,"SUPERVISING PATHOLOGIST",NA,NA,"2011-01-09T10:08:00",30
"PDS2014","MA","PDS2014-0021",614,NA,NA,NA,"GROSPATH","Gross Pathological Examination",NA,"NORMAL","NORMAL",NA,NA,NA,"MUSCLE, QUADRICEPS FEMORIS",NA,NA,NA,NA,NA,NA,"SUPERVISING PATHOLOGIST",NA,NA,"2011-01-09T10:08:00",30
"PDS2014","MA","PDS2014-0021",615,NA,NA,NA,"GROSPATH","Gross Pathological Examination",NA,"NORMAL","NORMAL",NA,NA,NA,"GLAND, SALIVARY, PAROTID",NA,NA,NA,NA,NA,NA,"SUPERVISING PATHOLOGIST",NA,NA,"2011-01-09T10:08:00",30
"PDS2014","MA","PDS2014-0021",616,NA,NA,NA,"GROSPATH","Gross Pathological Examination",NA,"NORMAL","NORMAL",NA,NA,NA,"GLAND, THYROID",NA,NA,NA,NA,NA,NA,"SUPERVISING PATHOLOGIST",NA,NA,"2011-01-09T10:08:00",30
"PDS2014","MA","PDS2014-0021",617,NA,NA,NA,"GROSPATH","Gross Pathological Examination",NA,"NORMAL","NORMAL",NA,NA,NA,"GLAND, PARATHYROID",NA,NA,NA,NA,NA,NA,"SUPERVISING PATHOLOGIST",NA,NA,"2011-01-09T10:08:00",30
"PDS2014","MA","PDS2014-0021",618,NA,NA,NA,"GROSPATH","Gross Pathological Examination",NA,"NORMAL","NORMAL",NA,NA,NA,"LARYNX",NA,NA,NA,NA,NA,NA,"SUPERVISING PATHOLOGIST",NA,NA,"2011-01-09T10:08:00",30
"PDS2014","MA","PDS2014-0021",619,NA,NA,NA,"GROSPATH","Gross Pathological Examination",NA,"NORMAL","NORMAL",NA,NA,NA,"BRAIN",NA,NA,NA,NA,NA,NA,"SUPERVISING PATHOLOGIST",NA,NA,"2011-01-09T10:08:00",30
"PDS2014","MA","PDS2014-0021",620,NA,NA,NA,"GROSPATH","Gross Pathological Examination",NA,"NORMAL","NORMAL",NA,NA,NA,"GLAND, PITUITARY",NA,NA,NA,NA,NA,NA,"SUPERVISING PATHOLOGIST",NA,NA,"2011-01-09T10:08:00",30
"PDS2014","MA","PDS2014-0021",621,NA,NA,NA,"GROSPATH","Gross Pathological Examination",NA,"NORMAL","NORMAL",NA,NA,NA,"EYE",NA,NA,NA,NA,NA,NA,"SUPERVISING PATHOLOGIST",NA,NA,"2011-01-09T10:08:00",30
"PDS2014","MA","PDS2014-0021",622,NA,NA,NA,"GROSPATH","Gross Pathological Examination",NA,"NORMAL","NORMAL",NA,NA,NA,"GLAND, HARDERIAN",NA,NA,NA,NA,NA,NA,"SUPERVISING PATHOLOGIST",NA,NA,"2011-01-09T10:08:00",30
"PDS2014","MA","PDS2014-0021",623,NA,NA,NA,"GROSPATH","Gross Pathological Examination",NA,"NORMAL","NORMAL",NA,NA,NA,"NOSE",NA,NA,NA,NA,NA,NA,"SUPERVISING PATHOLOGIST",NA,NA,"2011-01-09T10:08:00",30
"PDS2014","MA","PDS2014-0021",624,NA,NA,NA,"GROSPATH","Gross Pathological Examination",NA,"NORMAL","NORMAL",NA,NA,NA,"TONGUE",NA,NA,NA,NA,NA,NA,"SUPERVISING PATHOLOGIST",NA,NA,"2011-01-09T10:08:00",30
"PDS2014","MA","PDS2014-0021",625,NA,NA,NA,"GROSPATH","Gross Pathological Examination",NA,"NORMAL","NORMAL",NA,NA,NA,"SKIN",NA,NA,NA,NA,NA,NA,"SUPERVISING PATHOLOGIST",NA,NA,"2011-01-09T10:08:00",30
"PDS2014","MA","PDS2014-0021",626,NA,NA,NA,"GROSPATH","Gross Pathological Examination",NA,"NORMAL","NORMAL",NA,NA,NA,"GLAND, PREPUTIAL",NA,NA,NA,NA,NA,NA,"SUPERVISING PATHOLOGIST",NA,NA,"2011-01-09T10:08:00",30
"PDS2014","MA","PDS2014-0021",627,NA,NA,NA,"GROSPATH","Gross Pathological Examination",NA,"NORMAL","NORMAL",NA,NA,NA,"GLAND, MAMMARY",NA,NA,NA,NA,NA,NA,"SUPERVISING PATHOLOGIST",NA,NA,"2011-01-09T10:08:00",30
"PDS2014","MA","PDS2014-0021",628,NA,NA,NA,"GROSPATH","Gross Pathological Examination",NA,"NORMAL","NORMAL",NA,NA,NA,"BONE MARROW, STERNUM",NA,NA,NA,NA,NA,NA,"SUPERVISING PATHOLOGIST",NA,NA,"2011-01-09T10:08:00",30
"PDS2014","MA","PDS2014-0021",629,NA,NA,NA,"GROSPATH","Gross Pathological Examination",NA,"NORMAL","NORMAL",NA,NA,NA,"THYMUS",NA,NA,NA,NA,NA,NA,"SUPERVISING PATHOLOGIST",NA,NA,"2011-01-09T10:08:00",30
"PDS2014","MA","PDS2014-0021",630,NA,NA,NA,"GROSPATH","Gross Pathological Examination",NA,"NORMAL","NORMAL",NA,NA,NA,"HEART",NA,NA,NA,NA,NA,NA,"SUPERVISING PATHOLOGIST",NA,NA,"2011-01-09T10:08:00",30
"PDS2014","MA","PDS2014-0021",631,NA,NA,NA,"GROSPATH","Gross Pathological Examination",NA,"NORMAL","NORMAL",NA,NA,NA,"TRACHEA",NA,NA,NA,NA,NA,NA,"SUPERVISING PATHOLOGIST",NA,NA,"2011-01-09T10:08:00",30
"PDS2014","MA","PDS2014-0021",632,NA,NA,NA,"GROSPATH","Gross Pathological Examination",NA,"NORMAL","NORMAL",NA,NA,NA,"LUNG",NA,NA,NA,NA,NA,NA,"SUPERVISING PATHOLOGIST",NA,NA,"2011-01-09T10:08:00",30
"PDS2014","MA","PDS2014-0021",633,NA,NA,NA,"GROSPATH","Gross Pathological Examination",NA,"NORMAL","NORMAL",NA,NA,NA,"ESOPHAGUS",NA,NA,NA,NA,NA,NA,"SUPERVISING PATHOLOGIST",NA,NA,"2011-01-09T10:08:00",30
"PDS2014","MA","PDS2014-0021",634,NA,NA,NA,"GROSPATH","Gross Pathological Examination",NA,"NORMAL","NORMAL",NA,NA,NA,"ARTERY, AORTA",NA,NA,NA,NA,NA,NA,"SUPERVISING PATHOLOGIST",NA,NA,"2011-01-09T10:08:00",30
"PDS2014","MA","PDS2014-0021",635,NA,NA,NA,"GROSPATH","Gross Pathological Examination",NA,"NORMAL","NORMAL",NA,NA,NA,"SPLEEN",NA,NA,NA,NA,NA,NA,"SUPERVISING PATHOLOGIST",NA,NA,"2011-01-09T10:08:00",30
"PDS2014","MA","PDS2014-0021",636,NA,NA,NA,"GROSPATH","Gross Pathological Examination",NA,"NORMAL","NORMAL",NA,NA,NA,"PANCREAS",NA,NA,NA,NA,NA,NA,"SUPERVISING PATHOLOGIST",NA,NA,"2011-01-09T10:08:00",30
"PDS2014","MA","PDS2014-0021",637,NA,NA,NA,"GROSPATH","Gross Pathological Examination",NA,"NORMAL","NORMAL",NA,NA,NA,"STOMACH",NA,NA,NA,NA,NA,NA,"SUPERVISING PATHOLOGIST",NA,NA,"2011-01-09T10:08:00",30
"PDS2014","MA","PDS2014-0021",638,NA,NA,NA,"GROSPATH","Gross Pathological Examination",NA,"NORMAL","NORMAL",NA,NA,NA,"SMALL INTESTINE, DUODENUM",NA,NA,NA,NA,NA,NA,"SUPERVISING PATHOLOGIST",NA,NA,"2011-01-09T10:08:00",30
"PDS2014","MA","PDS2014-0021",639,NA,NA,NA,"GROSPATH","Gross Pathological Examination",NA,"NORMAL","NORMAL",NA,NA,NA,"SMALL INTESTINE, JEJUNUM",NA,NA,NA,NA,NA,NA,"SUPERVISING PATHOLOGIST",NA,NA,"2011-01-09T10:08:00",30
"PDS2014","MA","PDS2014-0021",640,NA,NA,NA,"GROSPATH","Gross Pathological Examination",NA,"NORMAL","NORMAL",NA,NA,NA,"LYMPH NODE, MESENTERIC",NA,NA,NA,NA,NA,NA,"SUPERVISING PATHOLOGIST",NA,NA,"2011-01-09T10:08:00",30
"PDS2014","MA","PDS2014-0021",641,NA,NA,NA,"GROSPATH","Gross Pathological Examination",NA,"NORMAL","NORMAL",NA,NA,NA,"LARGE INTESTINE, CECUM",NA,NA,NA,NA,NA,NA,"SUPERVISING PATHOLOGIST",NA,NA,"2011-01-09T10:08:00",30
"PDS2014","MA","PDS2014-0021",642,NA,NA,NA,"GROSPATH","Gross Pathological Examination",NA,"NORMAL","NORMAL",NA,NA,NA,"LARGE INTESTINE, COLON",NA,NA,NA,NA,NA,NA,"SUPERVISING PATHOLOGIST",NA,NA,"2011-01-09T10:08:00",30
"PDS2014","MA","PDS2014-0021",643,NA,NA,NA,"GROSPATH","Gross Pathological Examination",NA,"NORMAL","NORMAL",NA,NA,NA,"SMALL INTESTINE, ILEUM",NA,NA,NA,NA,NA,NA,"SUPERVISING PATHOLOGIST",NA,NA,"2011-01-09T10:08:00",30
"PDS2014","MA","PDS2014-0021",644,NA,NA,NA,"GROSPATH","Gross Pathological Examination",NA,"NORMAL","NORMAL",NA,NA,NA,"GLAND, ADRENAL",NA,NA,NA,NA,NA,NA,"SUPERVISING PATHOLOGIST",NA,NA,"2011-01-09T10:08:00",30
"PDS2014","MA","PDS2014-0021",645,NA,NA,NA,"GROSPATH","Gross Pathological Examination",NA,"NORMAL","NORMAL",NA,NA,NA,"URETER",NA,NA,NA,NA,NA,NA,"SUPERVISING PATHOLOGIST",NA,NA,"2011-01-09T10:08:00",30
"PDS2014","MA","PDS2014-0021",646,NA,NA,NA,"GROSPATH","Gross Pathological Examination",NA,"NORMAL","NORMAL",NA,NA,NA,"KIDNEY",NA,NA,NA,NA,NA,NA,"SUPERVISING PATHOLOGIST",NA,NA,"2011-01-09T10:08:00",30
"PDS2014","MA","PDS2014-0021",647,NA,NA,NA,"GROSPATH","Gross Pathological Examination",NA,"NORMAL","NORMAL",NA,NA,NA,"URINARY BLADDER",NA,NA,NA,NA,NA,NA,"SUPERVISING PATHOLOGIST",NA,NA,"2011-01-09T10:08:00",30
"PDS2014","MA","PDS2014-0021",648,NA,NA,NA,"GROSPATH","Gross Pathological Examination",NA,"NORMAL","NORMAL",NA,NA,NA,"TESTIS",NA,NA,NA,NA,NA,NA,"SUPERVISING PATHOLOGIST",NA,NA,"2011-01-09T10:08:00",30
"PDS2014","MA","PDS2014-0021",649,NA,NA,NA,"GROSPATH","Gross Pathological Examination",NA,"NORMAL","NORMAL",NA,NA,NA,"EPIDIDYMIS",NA,NA,NA,NA,NA,NA,"SUPERVISING PATHOLOGIST",NA,NA,"2011-01-09T10:08:00",30
"PDS2014","MA","PDS2014-0021",650,NA,NA,NA,"GROSPATH","Gross Pathological Examination",NA,"NORMAL","NORMAL",NA,NA,NA,"GLAND, PROSTATE",NA,NA,NA,NA,NA,NA,"SUPERVISING PATHOLOGIST",NA,NA,"2011-01-09T10:08:00",30
"PDS2014","MA","PDS2014-0021",651,NA,NA,NA,"GROSPATH","Gross Pathological Examination",NA,"NORMAL","NORMAL",NA,NA,NA,"GLAND, SEMINAL VESICLE",NA,NA,NA,NA,NA,NA,"SUPERVISING PATHOLOGIST",NA,NA,"2011-01-09T10:08:00",30
"PDS2014","MA","PDS2014-0021",652,NA,NA,NA,"GROSPATH","Gross Pathological Examination",NA,"NORMAL","NORMAL",NA,NA,NA,"SITE, MICROCHIP",NA,NA,NA,NA,NA,NA,"SUPERVISING PATHOLOGIST",NA,NA,"2011-01-09T10:08:00",30
"PDS2014","MA","PDS2014-0021",653,NA,NA,NA,"GROSPATH","Gross Pathological Examination",NA,"NORMAL","NORMAL",NA,NA,NA,"LARGE INTESTINE, RECTUM",NA,NA,NA,NA,NA,NA,"SUPERVISING PATHOLOGIST",NA,NA,"2011-01-09T10:08:00",30
"PDS2014","MA","PDS2014-0021",654,NA,NA,NA,"GROSPATH","Gross Pathological Examination",NA,"NORMAL","NORMAL",NA,NA,NA,"BONE MARROW, FEMUR",NA,NA,NA,NA,NA,NA,"SUPERVISING PATHOLOGIST",NA,NA,"2011-01-09T10:08:00",30
"PDS2014","MA","PDS2014-0022",655,NA,NA,NA,"GROSPATH","Gross Pathological Examination",NA,"frozen sample (co2-ice)","frozen sample (co2-ice)",NA,NA,NA,"LIVER",NA,NA,NA,NA,NA,NA,"SUPERVISING PATHOLOGIST",NA,NA,"2011-01-09T11:50:00",30
"PDS2014","MA","PDS2014-0022",656,NA,NA,NA,"GROSPATH","Gross Pathological Examination",NA,"NORMAL","NORMAL",NA,NA,NA,"NERVE, SCIATIC",NA,NA,NA,NA,NA,NA,"SUPERVISING PATHOLOGIST",NA,NA,"2011-01-09T11:50:00",30
"PDS2014","MA","PDS2014-0022",657,NA,NA,NA,"GROSPATH","Gross Pathological Examination",NA,"NORMAL","NORMAL",NA,NA,NA,"MUSCLE, QUADRICEPS FEMORIS",NA,NA,NA,NA,NA,NA,"SUPERVISING PATHOLOGIST",NA,NA,"2011-01-09T11:50:00",30
"PDS2014","MA","PDS2014-0022",658,NA,NA,NA,"GROSPATH","Gross Pathological Examination",NA,"NORMAL","NORMAL",NA,NA,NA,"GLAND, SALIVARY, PAROTID",NA,NA,NA,NA,NA,NA,"SUPERVISING PATHOLOGIST",NA,NA,"2011-01-09T11:50:00",30
"PDS2014","MA","PDS2014-0022",659,NA,NA,NA,"GROSPATH","Gross Pathological Examination",NA,"NORMAL","NORMAL",NA,NA,NA,"GLAND, THYROID",NA,NA,NA,NA,NA,NA,"SUPERVISING PATHOLOGIST",NA,NA,"2011-01-09T11:50:00",30
"PDS2014","MA","PDS2014-0022",660,NA,NA,NA,"GROSPATH","Gross Pathological Examination",NA,"NORMAL","NORMAL",NA,NA,NA,"GLAND, PARATHYROID",NA,NA,NA,NA,NA,NA,"SUPERVISING PATHOLOGIST",NA,NA,"2011-01-09T11:50:00",30
"PDS2014","MA","PDS2014-0022",661,NA,NA,NA,"GROSPATH","Gross Pathological Examination",NA,"NORMAL","NORMAL",NA,NA,NA,"LARYNX",NA,NA,NA,NA,NA,NA,"SUPERVISING PATHOLOGIST",NA,NA,"2011-01-09T11:50:00",30
"PDS2014","MA","PDS2014-0022",662,NA,NA,NA,"GROSPATH","Gross Pathological Examination",NA,"NORMAL","NORMAL",NA,NA,NA,"BRAIN",NA,NA,NA,NA,NA,NA,"SUPERVISING PATHOLOGIST",NA,NA,"2011-01-09T11:50:00",30
"PDS2014","MA","PDS2014-0022",663,NA,NA,NA,"GROSPATH","Gross Pathological Examination",NA,"NORMAL","NORMAL",NA,NA,NA,"GLAND, PITUITARY",NA,NA,NA,NA,NA,NA,"SUPERVISING PATHOLOGIST",NA,NA,"2011-01-09T11:50:00",30
"PDS2014","MA","PDS2014-0022",664,NA,NA,NA,"GROSPATH","Gross Pathological Examination",NA,"NORMAL","NORMAL",NA,NA,NA,"EYE",NA,NA,NA,NA,NA,NA,"SUPERVISING PATHOLOGIST",NA,NA,"2011-01-09T11:50:00",30
"PDS2014","MA","PDS2014-0022",665,NA,NA,NA,"GROSPATH","Gross Pathological Examination",NA,"NORMAL","NORMAL",NA,NA,NA,"GLAND, HARDERIAN",NA,NA,NA,NA,NA,NA,"SUPERVISING PATHOLOGIST",NA,NA,"2011-01-09T11:50:00",30
"PDS2014","MA","PDS2014-0022",666,NA,NA,NA,"GROSPATH","Gross Pathological Examination",NA,"NORMAL","NORMAL",NA,NA,NA,"NOSE",NA,NA,NA,NA,NA,NA,"SUPERVISING PATHOLOGIST",NA,NA,"2011-01-09T11:50:00",30
"PDS2014","MA","PDS2014-0022",667,NA,NA,NA,"GROSPATH","Gross Pathological Examination",NA,"NORMAL","NORMAL",NA,NA,NA,"TONGUE",NA,NA,NA,NA,NA,NA,"SUPERVISING PATHOLOGIST",NA,NA,"2011-01-09T11:50:00",30
"PDS2014","MA","PDS2014-0022",668,NA,NA,NA,"GROSPATH","Gross Pathological Examination",NA,"NORMAL","NORMAL",NA,NA,NA,"SKIN",NA,NA,NA,NA,NA,NA,"SUPERVISING PATHOLOGIST",NA,NA,"2011-01-09T11:50:00",30
"PDS2014","MA","PDS2014-0022",669,NA,NA,NA,"GROSPATH","Gross Pathological Examination",NA,"NORMAL","NORMAL",NA,NA,NA,"GLAND, PREPUTIAL",NA,NA,NA,NA,NA,NA,"SUPERVISING PATHOLOGIST",NA,NA,"2011-01-09T11:50:00",30
"PDS2014","MA","PDS2014-0022",670,NA,NA,NA,"GROSPATH","Gross Pathological Examination",NA,"NORMAL","NORMAL",NA,NA,NA,"GLAND, MAMMARY",NA,NA,NA,NA,NA,NA,"SUPERVISING PATHOLOGIST",NA,NA,"2011-01-09T11:50:00",30
"PDS2014","MA","PDS2014-0022",671,NA,NA,NA,"GROSPATH","Gross Pathological Examination",NA,"NORMAL","NORMAL",NA,NA,NA,"BONE MARROW, STERNUM",NA,NA,NA,NA,NA,NA,"SUPERVISING PATHOLOGIST",NA,NA,"2011-01-09T11:50:00",30
"PDS2014","MA","PDS2014-0022",672,NA,NA,NA,"GROSPATH","Gross Pathological Examination",NA,"NORMAL","NORMAL",NA,NA,NA,"THYMUS",NA,NA,NA,NA,NA,NA,"SUPERVISING PATHOLOGIST",NA,NA,"2011-01-09T11:50:00",30
"PDS2014","MA","PDS2014-0022",673,NA,NA,NA,"GROSPATH","Gross Pathological Examination",NA,"NORMAL","NORMAL",NA,NA,NA,"HEART",NA,NA,NA,NA,NA,NA,"SUPERVISING PATHOLOGIST",NA,NA,"2011-01-09T11:50:00",30
"PDS2014","MA","PDS2014-0022",674,NA,NA,NA,"GROSPATH","Gross Pathological Examination",NA,"NORMAL","NORMAL",NA,NA,NA,"TRACHEA",NA,NA,NA,NA,NA,NA,"SUPERVISING PATHOLOGIST",NA,NA,"2011-01-09T11:50:00",30
"PDS2014","MA","PDS2014-0022",675,NA,NA,NA,"GROSPATH","Gross Pathological Examination",NA,"NORMAL","NORMAL",NA,NA,NA,"LUNG",NA,NA,NA,NA,NA,NA,"SUPERVISING PATHOLOGIST",NA,NA,"2011-01-09T11:50:00",30
"PDS2014","MA","PDS2014-0022",676,NA,NA,NA,"GROSPATH","Gross Pathological Examination",NA,"NORMAL","NORMAL",NA,NA,NA,"ESOPHAGUS",NA,NA,NA,NA,NA,NA,"SUPERVISING PATHOLOGIST",NA,NA,"2011-01-09T11:50:00",30
"PDS2014","MA","PDS2014-0022",677,NA,NA,NA,"GROSPATH","Gross Pathological Examination",NA,"NORMAL","NORMAL",NA,NA,NA,"ARTERY, AORTA",NA,NA,NA,NA,NA,NA,"SUPERVISING PATHOLOGIST",NA,NA,"2011-01-09T11:50:00",30
"PDS2014","MA","PDS2014-0022",678,NA,NA,NA,"GROSPATH","Gross Pathological Examination",NA,"NORMAL","NORMAL",NA,NA,NA,"SPLEEN",NA,NA,NA,NA,NA,NA,"SUPERVISING PATHOLOGIST",NA,NA,"2011-01-09T11:50:00",30
"PDS2014","MA","PDS2014-0022",679,NA,NA,NA,"GROSPATH","Gross Pathological Examination",NA,"NORMAL","NORMAL",NA,NA,NA,"PANCREAS",NA,NA,NA,NA,NA,NA,"SUPERVISING PATHOLOGIST",NA,NA,"2011-01-09T11:50:00",30
"PDS2014","MA","PDS2014-0022",680,NA,NA,NA,"GROSPATH","Gross Pathological Examination",NA,"NORMAL","NORMAL",NA,NA,NA,"STOMACH",NA,NA,NA,NA,NA,NA,"SUPERVISING PATHOLOGIST",NA,NA,"2011-01-09T11:50:00",30
"PDS2014","MA","PDS2014-0022",681,NA,NA,NA,"GROSPATH","Gross Pathological Examination",NA,"NORMAL","NORMAL",NA,NA,NA,"SMALL INTESTINE, DUODENUM",NA,NA,NA,NA,NA,NA,"SUPERVISING PATHOLOGIST",NA,NA,"2011-01-09T11:50:00",30
"PDS2014","MA","PDS2014-0022",682,NA,NA,NA,"GROSPATH","Gross Pathological Examination",NA,"NORMAL","NORMAL",NA,NA,NA,"SMALL INTESTINE, JEJUNUM",NA,NA,NA,NA,NA,NA,"SUPERVISING PATHOLOGIST",NA,NA,"2011-01-09T11:50:00",30
"PDS2014","MA","PDS2014-0022",683,NA,NA,NA,"GROSPATH","Gross Pathological Examination",NA,"NORMAL","NORMAL",NA,NA,NA,"LYMPH NODE, MESENTERIC",NA,NA,NA,NA,NA,NA,"SUPERVISING PATHOLOGIST",NA,NA,"2011-01-09T11:50:00",30
"PDS2014","MA","PDS2014-0022",684,NA,NA,NA,"GROSPATH","Gross Pathological Examination",NA,"NORMAL","NORMAL",NA,NA,NA,"LARGE INTESTINE, CECUM",NA,NA,NA,NA,NA,NA,"SUPERVISING PATHOLOGIST",NA,NA,"2011-01-09T11:50:00",30
"PDS2014","MA","PDS2014-0022",685,NA,NA,NA,"GROSPATH","Gross Pathological Examination",NA,"NORMAL","NORMAL",NA,NA,NA,"LARGE INTESTINE, COLON",NA,NA,NA,NA,NA,NA,"SUPERVISING PATHOLOGIST",NA,NA,"2011-01-09T11:50:00",30
"PDS2014","MA","PDS2014-0022",686,NA,NA,NA,"GROSPATH","Gross Pathological Examination",NA,"NORMAL","NORMAL",NA,NA,NA,"SMALL INTESTINE, ILEUM",NA,NA,NA,NA,NA,NA,"SUPERVISING PATHOLOGIST",NA,NA,"2011-01-09T11:50:00",30
"PDS2014","MA","PDS2014-0022",687,NA,NA,NA,"GROSPATH","Gross Pathological Examination",NA,"NORMAL","NORMAL",NA,NA,NA,"GLAND, ADRENAL",NA,NA,NA,NA,NA,NA,"SUPERVISING PATHOLOGIST",NA,NA,"2011-01-09T11:50:00",30
"PDS2014","MA","PDS2014-0022",688,NA,NA,NA,"GROSPATH","Gross Pathological Examination",NA,"NORMAL","NORMAL",NA,NA,NA,"URETER",NA,NA,NA,NA,NA,NA,"SUPERVISING PATHOLOGIST",NA,NA,"2011-01-09T11:50:00",30
"PDS2014","MA","PDS2014-0022",689,NA,NA,NA,"GROSPATH","Gross Pathological Examination",NA,"NORMAL","NORMAL",NA,NA,NA,"KIDNEY",NA,NA,NA,NA,NA,NA,"SUPERVISING PATHOLOGIST",NA,NA,"2011-01-09T11:50:00",30
"PDS2014","MA","PDS2014-0022",690,NA,NA,NA,"GROSPATH","Gross Pathological Examination",NA,"NORMAL","NORMAL",NA,NA,NA,"URINARY BLADDER",NA,NA,NA,NA,NA,NA,"SUPERVISING PATHOLOGIST",NA,NA,"2011-01-09T11:50:00",30
"PDS2014","MA","PDS2014-0022",691,NA,NA,NA,"GROSPATH","Gross Pathological Examination",NA,"NORMAL","NORMAL",NA,NA,NA,"TESTIS",NA,NA,NA,NA,NA,NA,"SUPERVISING PATHOLOGIST",NA,NA,"2011-01-09T11:50:00",30
"PDS2014","MA","PDS2014-0022",692,NA,NA,NA,"GROSPATH","Gross Pathological Examination",NA,"NORMAL","NORMAL",NA,NA,NA,"EPIDIDYMIS",NA,NA,NA,NA,NA,NA,"SUPERVISING PATHOLOGIST",NA,NA,"2011-01-09T11:50:00",30
"PDS2014","MA","PDS2014-0022",693,NA,NA,NA,"GROSPATH","Gross Pathological Examination",NA,"NORMAL","NORMAL",NA,NA,NA,"GLAND, PROSTATE",NA,NA,NA,NA,NA,NA,"SUPERVISING PATHOLOGIST",NA,NA,"2011-01-09T11:50:00",30
"PDS2014","MA","PDS2014-0022",694,NA,NA,NA,"GROSPATH","Gross Pathological Examination",NA,"NORMAL","NORMAL",NA,NA,NA,"GLAND, SEMINAL VESICLE",NA,NA,NA,NA,NA,NA,"SUPERVISING PATHOLOGIST",NA,NA,"2011-01-09T11:50:00",30
"PDS2014","MA","PDS2014-0022",695,NA,NA,NA,"GROSPATH","Gross Pathological Examination",NA,"NORMAL","NORMAL",NA,NA,NA,"SITE, MICROCHIP",NA,NA,NA,NA,NA,NA,"SUPERVISING PATHOLOGIST",NA,NA,"2011-01-09T11:50:00",30
"PDS2014","MA","PDS2014-0022",696,NA,NA,NA,"GROSPATH","Gross Pathological Examination",NA,"NORMAL","NORMAL",NA,NA,NA,"LARGE INTESTINE, RECTUM",NA,NA,NA,NA,NA,NA,"SUPERVISING PATHOLOGIST",NA,NA,"2011-01-09T11:50:00",30
"PDS2014","MA","PDS2014-0022",697,NA,NA,NA,"GROSPATH","Gross Pathological Examination",NA,"NORMAL","NORMAL",NA,NA,NA,"BONE MARROW, FEMUR",NA,NA,NA,NA,NA,NA,"SUPERVISING PATHOLOGIST",NA,NA,"2011-01-09T11:50:00",30
"PDS2014","MA","PDS2014-0023",698,NA,NA,NA,"GROSPATH","Gross Pathological Examination",NA,"frozen sample (co2-ice)","frozen sample (co2-ice)",NA,NA,NA,"LIVER",NA,NA,NA,NA,NA,NA,"SUPERVISING PATHOLOGIST",NA,NA,"2011-01-09T14:28:00",30
"PDS2014","MA","PDS2014-0023",699,NA,NA,NA,"GROSPATH","Gross Pathological Examination",NA,"NORMAL","NORMAL",NA,NA,NA,"NERVE, SCIATIC",NA,NA,NA,NA,NA,NA,"SUPERVISING PATHOLOGIST",NA,NA,"2011-01-09T14:28:00",30
"PDS2014","MA","PDS2014-0023",700,NA,NA,NA,"GROSPATH","Gross Pathological Examination",NA,"NORMAL","NORMAL",NA,NA,NA,"MUSCLE, QUADRICEPS FEMORIS",NA,NA,NA,NA,NA,NA,"SUPERVISING PATHOLOGIST",NA,NA,"2011-01-09T14:28:00",30
"PDS2014","MA","PDS2014-0023",701,NA,NA,NA,"GROSPATH","Gross Pathological Examination",NA,"NORMAL","NORMAL",NA,NA,NA,"GLAND, SALIVARY, PAROTID",NA,NA,NA,NA,NA,NA,"SUPERVISING PATHOLOGIST",NA,NA,"2011-01-09T14:28:00",30
"PDS2014","MA","PDS2014-0023",702,NA,NA,NA,"GROSPATH","Gross Pathological Examination",NA,"NORMAL","NORMAL",NA,NA,NA,"GLAND, THYROID",NA,NA,NA,NA,NA,NA,"SUPERVISING PATHOLOGIST",NA,NA,"2011-01-09T14:28:00",30
"PDS2014","MA","PDS2014-0023",703,NA,NA,NA,"GROSPATH","Gross Pathological Examination",NA,"NORMAL","NORMAL",NA,NA,NA,"GLAND, PARATHYROID",NA,NA,NA,NA,NA,NA,"SUPERVISING PATHOLOGIST",NA,NA,"2011-01-09T14:28:00",30
"PDS2014","MA","PDS2014-0023",704,NA,NA,NA,"GROSPATH","Gross Pathological Examination",NA,"NORMAL","NORMAL",NA,NA,NA,"LARYNX",NA,NA,NA,NA,NA,NA,"SUPERVISING PATHOLOGIST",NA,NA,"2011-01-09T14:28:00",30
"PDS2014","MA","PDS2014-0023",705,NA,NA,NA,"GROSPATH","Gross Pathological Examination",NA,"NORMAL","NORMAL",NA,NA,NA,"BRAIN",NA,NA,NA,NA,NA,NA,"SUPERVISING PATHOLOGIST",NA,NA,"2011-01-09T14:28:00",30
"PDS2014","MA","PDS2014-0023",706,NA,NA,NA,"GROSPATH","Gross Pathological Examination",NA,"NORMAL","NORMAL",NA,NA,NA,"GLAND, PITUITARY",NA,NA,NA,NA,NA,NA,"SUPERVISING PATHOLOGIST",NA,NA,"2011-01-09T14:28:00",30
"PDS2014","MA","PDS2014-0023",707,NA,NA,NA,"GROSPATH","Gross Pathological Examination",NA,"NORMAL","NORMAL",NA,NA,NA,"EYE",NA,NA,NA,NA,NA,NA,"SUPERVISING PATHOLOGIST",NA,NA,"2011-01-09T14:28:00",30
"PDS2014","MA","PDS2014-0023",708,NA,NA,NA,"GROSPATH","Gross Pathological Examination",NA,"NORMAL","NORMAL",NA,NA,NA,"GLAND, HARDERIAN",NA,NA,NA,NA,NA,NA,"SUPERVISING PATHOLOGIST",NA,NA,"2011-01-09T14:28:00",30
"PDS2014","MA","PDS2014-0023",709,NA,NA,NA,"GROSPATH","Gross Pathological Examination",NA,"NORMAL","NORMAL",NA,NA,NA,"NOSE",NA,NA,NA,NA,NA,NA,"SUPERVISING PATHOLOGIST",NA,NA,"2011-01-09T14:28:00",30
"PDS2014","MA","PDS2014-0023",710,NA,NA,NA,"GROSPATH","Gross Pathological Examination",NA,"NORMAL","NORMAL",NA,NA,NA,"TONGUE",NA,NA,NA,NA,NA,NA,"SUPERVISING PATHOLOGIST",NA,NA,"2011-01-09T14:28:00",30
"PDS2014","MA","PDS2014-0023",711,NA,NA,NA,"GROSPATH","Gross Pathological Examination",NA,"NORMAL","NORMAL",NA,NA,NA,"SKIN",NA,NA,NA,NA,NA,NA,"SUPERVISING PATHOLOGIST",NA,NA,"2011-01-09T14:28:00",30
"PDS2014","MA","PDS2014-0023",712,NA,NA,NA,"GROSPATH","Gross Pathological Examination",NA,"NORMAL","NORMAL",NA,NA,NA,"GLAND, PREPUTIAL",NA,NA,NA,NA,NA,NA,"SUPERVISING PATHOLOGIST",NA,NA,"2011-01-09T14:28:00",30
"PDS2014","MA","PDS2014-0023",713,NA,NA,NA,"GROSPATH","Gross Pathological Examination",NA,"NORMAL","NORMAL",NA,NA,NA,"GLAND, MAMMARY",NA,NA,NA,NA,NA,NA,"SUPERVISING PATHOLOGIST",NA,NA,"2011-01-09T14:28:00",30
"PDS2014","MA","PDS2014-0023",714,NA,NA,NA,"GROSPATH","Gross Pathological Examination",NA,"NORMAL","NORMAL",NA,NA,NA,"BONE MARROW, STERNUM",NA,NA,NA,NA,NA,NA,"SUPERVISING PATHOLOGIST",NA,NA,"2011-01-09T14:28:00",30
"PDS2014","MA","PDS2014-0023",715,NA,NA,NA,"GROSPATH","Gross Pathological Examination",NA,"NORMAL","NORMAL",NA,NA,NA,"THYMUS",NA,NA,NA,NA,NA,NA,"SUPERVISING PATHOLOGIST",NA,NA,"2011-01-09T14:28:00",30
"PDS2014","MA","PDS2014-0023",716,NA,NA,NA,"GROSPATH","Gross Pathological Examination",NA,"NORMAL","NORMAL",NA,NA,NA,"HEART",NA,NA,NA,NA,NA,NA,"SUPERVISING PATHOLOGIST",NA,NA,"2011-01-09T14:28:00",30
"PDS2014","MA","PDS2014-0023",717,NA,NA,NA,"GROSPATH","Gross Pathological Examination",NA,"NORMAL","NORMAL",NA,NA,NA,"TRACHEA",NA,NA,NA,NA,NA,NA,"SUPERVISING PATHOLOGIST",NA,NA,"2011-01-09T14:28:00",30
"PDS2014","MA","PDS2014-0023",718,NA,NA,NA,"GROSPATH","Gross Pathological Examination",NA,"NORMAL","NORMAL",NA,NA,NA,"LUNG",NA,NA,NA,NA,NA,NA,"SUPERVISING PATHOLOGIST",NA,NA,"2011-01-09T14:28:00",30
"PDS2014","MA","PDS2014-0023",719,NA,NA,NA,"GROSPATH","Gross Pathological Examination",NA,"NORMAL","NORMAL",NA,NA,NA,"ESOPHAGUS",NA,NA,NA,NA,NA,NA,"SUPERVISING PATHOLOGIST",NA,NA,"2011-01-09T14:28:00",30
"PDS2014","MA","PDS2014-0023",720,NA,NA,NA,"GROSPATH","Gross Pathological Examination",NA,"NORMAL","NORMAL",NA,NA,NA,"ARTERY, AORTA",NA,NA,NA,NA,NA,NA,"SUPERVISING PATHOLOGIST",NA,NA,"2011-01-09T14:28:00",30
"PDS2014","MA","PDS2014-0023",721,NA,NA,NA,"GROSPATH","Gross Pathological Examination",NA,"NORMAL","NORMAL",NA,NA,NA,"SPLEEN",NA,NA,NA,NA,NA,NA,"SUPERVISING PATHOLOGIST",NA,NA,"2011-01-09T14:28:00",30
"PDS2014","MA","PDS2014-0023",722,NA,NA,NA,"GROSPATH","Gross Pathological Examination",NA,"NORMAL","NORMAL",NA,NA,NA,"PANCREAS",NA,NA,NA,NA,NA,NA,"SUPERVISING PATHOLOGIST",NA,NA,"2011-01-09T14:28:00",30
"PDS2014","MA","PDS2014-0023",723,NA,NA,NA,"GROSPATH","Gross Pathological Examination",NA,"NORMAL","NORMAL",NA,NA,NA,"STOMACH",NA,NA,NA,NA,NA,NA,"SUPERVISING PATHOLOGIST",NA,NA,"2011-01-09T14:28:00",30
"PDS2014","MA","PDS2014-0023",724,NA,NA,NA,"GROSPATH","Gross Pathological Examination",NA,"NORMAL","NORMAL",NA,NA,NA,"SMALL INTESTINE, DUODENUM",NA,NA,NA,NA,NA,NA,"SUPERVISING PATHOLOGIST",NA,NA,"2011-01-09T14:28:00",30
"PDS2014","MA","PDS2014-0023",725,NA,NA,NA,"GROSPATH","Gross Pathological Examination",NA,"NORMAL","NORMAL",NA,NA,NA,"SMALL INTESTINE, JEJUNUM",NA,NA,NA,NA,NA,NA,"SUPERVISING PATHOLOGIST",NA,NA,"2011-01-09T14:28:00",30
"PDS2014","MA","PDS2014-0023",726,NA,NA,NA,"GROSPATH","Gross Pathological Examination",NA,"NORMAL","NORMAL",NA,NA,NA,"LYMPH NODE, MESENTERIC",NA,NA,NA,NA,NA,NA,"SUPERVISING PATHOLOGIST",NA,NA,"2011-01-09T14:28:00",30
"PDS2014","MA","PDS2014-0023",727,NA,NA,NA,"GROSPATH","Gross Pathological Examination",NA,"NORMAL","NORMAL",NA,NA,NA,"LARGE INTESTINE, CECUM",NA,NA,NA,NA,NA,NA,"SUPERVISING PATHOLOGIST",NA,NA,"2011-01-09T14:28:00",30
"PDS2014","MA","PDS2014-0023",728,NA,NA,NA,"GROSPATH","Gross Pathological Examination",NA,"NORMAL","NORMAL",NA,NA,NA,"LARGE INTESTINE, COLON",NA,NA,NA,NA,NA,NA,"SUPERVISING PATHOLOGIST",NA,NA,"2011-01-09T14:28:00",30
"PDS2014","MA","PDS2014-0023",729,NA,NA,NA,"GROSPATH","Gross Pathological Examination",NA,"NORMAL","NORMAL",NA,NA,NA,"SMALL INTESTINE, ILEUM",NA,NA,NA,NA,NA,NA,"SUPERVISING PATHOLOGIST",NA,NA,"2011-01-09T14:28:00",30
"PDS2014","MA","PDS2014-0023",730,NA,NA,NA,"GROSPATH","Gross Pathological Examination",NA,"NORMAL","NORMAL",NA,NA,NA,"GLAND, ADRENAL",NA,NA,NA,NA,NA,NA,"SUPERVISING PATHOLOGIST",NA,NA,"2011-01-09T14:28:00",30
"PDS2014","MA","PDS2014-0023",731,NA,NA,NA,"GROSPATH","Gross Pathological Examination",NA,"NORMAL","NORMAL",NA,NA,NA,"URETER",NA,NA,NA,NA,NA,NA,"SUPERVISING PATHOLOGIST",NA,NA,"2011-01-09T14:28:00",30
"PDS2014","MA","PDS2014-0023",732,NA,NA,NA,"GROSPATH","Gross Pathological Examination",NA,"NORMAL","NORMAL",NA,NA,NA,"KIDNEY",NA,NA,NA,NA,NA,NA,"SUPERVISING PATHOLOGIST",NA,NA,"2011-01-09T14:28:00",30
"PDS2014","MA","PDS2014-0023",733,NA,NA,NA,"GROSPATH","Gross Pathological Examination",NA,"NORMAL","NORMAL",NA,NA,NA,"URINARY BLADDER",NA,NA,NA,NA,NA,NA,"SUPERVISING PATHOLOGIST",NA,NA,"2011-01-09T14:28:00",30
"PDS2014","MA","PDS2014-0023",734,NA,NA,NA,"GROSPATH","Gross Pathological Examination",NA,"NORMAL","NORMAL",NA,NA,NA,"TESTIS",NA,NA,NA,NA,NA,NA,"SUPERVISING PATHOLOGIST",NA,NA,"2011-01-09T14:28:00",30
"PDS2014","MA","PDS2014-0023",735,NA,NA,NA,"GROSPATH","Gross Pathological Examination",NA,"NORMAL","NORMAL",NA,NA,NA,"EPIDIDYMIS",NA,NA,NA,NA,NA,NA,"SUPERVISING PATHOLOGIST",NA,NA,"2011-01-09T14:28:00",30
"PDS2014","MA","PDS2014-0023",736,NA,NA,NA,"GROSPATH","Gross Pathological Examination",NA,"NORMAL","NORMAL",NA,NA,NA,"GLAND, PROSTATE",NA,NA,NA,NA,NA,NA,"SUPERVISING PATHOLOGIST",NA,NA,"2011-01-09T14:28:00",30
"PDS2014","MA","PDS2014-0023",737,NA,NA,NA,"GROSPATH","Gross Pathological Examination",NA,"NORMAL","NORMAL",NA,NA,NA,"GLAND, SEMINAL VESICLE",NA,NA,NA,NA,NA,NA,"SUPERVISING PATHOLOGIST",NA,NA,"2011-01-09T14:28:00",30
"PDS2014","MA","PDS2014-0023",738,NA,NA,NA,"GROSPATH","Gross Pathological Examination",NA,"NORMAL","NORMAL",NA,NA,NA,"SITE, MICROCHIP",NA,NA,NA,NA,NA,NA,"SUPERVISING PATHOLOGIST",NA,NA,"2011-01-09T14:28:00",30
"PDS2014","MA","PDS2014-0023",739,NA,NA,NA,"GROSPATH","Gross Pathological Examination",NA,"NORMAL","NORMAL",NA,NA,NA,"LARGE INTESTINE, RECTUM",NA,NA,NA,NA,NA,NA,"SUPERVISING PATHOLOGIST",NA,NA,"2011-01-09T14:28:00",30
"PDS2014","MA","PDS2014-0023",740,NA,NA,NA,"GROSPATH","Gross Pathological Examination",NA,"NORMAL","NORMAL",NA,NA,NA,"BONE MARROW, FEMUR",NA,NA,NA,NA,NA,NA,"SUPERVISING PATHOLOGIST",NA,NA,"2011-01-09T14:28:00",30
"PDS2014","MA","PDS2014-0024",741,NA,NA,NA,"GROSPATH","Gross Pathological Examination",NA,"frozen sample (co2-ice)","frozen sample (co2-ice)",NA,NA,NA,"LIVER",NA,NA,NA,NA,NA,NA,"SUPERVISING PATHOLOGIST",NA,NA,"2011-01-09T11:27:00",30
"PDS2014","MA","PDS2014-0024",742,NA,NA,NA,"GROSPATH","Gross Pathological Examination",NA,"NORMAL","NORMAL",NA,NA,NA,"NERVE, SCIATIC",NA,NA,NA,NA,NA,NA,"SUPERVISING PATHOLOGIST",NA,NA,"2011-01-09T11:27:00",30
"PDS2014","MA","PDS2014-0024",743,NA,NA,NA,"GROSPATH","Gross Pathological Examination",NA,"NORMAL","NORMAL",NA,NA,NA,"MUSCLE, QUADRICEPS FEMORIS",NA,NA,NA,NA,NA,NA,"SUPERVISING PATHOLOGIST",NA,NA,"2011-01-09T11:27:00",30
"PDS2014","MA","PDS2014-0024",744,NA,NA,NA,"GROSPATH","Gross Pathological Examination",NA,"NORMAL","NORMAL",NA,NA,NA,"GLAND, SALIVARY, PAROTID",NA,NA,NA,NA,NA,NA,"SUPERVISING PATHOLOGIST",NA,NA,"2011-01-09T11:27:00",30
"PDS2014","MA","PDS2014-0024",745,NA,NA,NA,"GROSPATH","Gross Pathological Examination",NA,"NORMAL","NORMAL",NA,NA,NA,"GLAND, THYROID",NA,NA,NA,NA,NA,NA,"SUPERVISING PATHOLOGIST",NA,NA,"2011-01-09T11:27:00",30
"PDS2014","MA","PDS2014-0024",746,NA,NA,NA,"GROSPATH","Gross Pathological Examination",NA,"NORMAL","NORMAL",NA,NA,NA,"GLAND, PARATHYROID",NA,NA,NA,NA,NA,NA,"SUPERVISING PATHOLOGIST",NA,NA,"2011-01-09T11:27:00",30
"PDS2014","MA","PDS2014-0024",747,NA,NA,NA,"GROSPATH","Gross Pathological Examination",NA,"NORMAL","NORMAL",NA,NA,NA,"LARYNX",NA,NA,NA,NA,NA,NA,"SUPERVISING PATHOLOGIST",NA,NA,"2011-01-09T11:27:00",30
"PDS2014","MA","PDS2014-0024",748,NA,NA,NA,"GROSPATH","Gross Pathological Examination",NA,"NORMAL","NORMAL",NA,NA,NA,"BRAIN",NA,NA,NA,NA,NA,NA,"SUPERVISING PATHOLOGIST",NA,NA,"2011-01-09T11:27:00",30
"PDS2014","MA","PDS2014-0024",749,NA,NA,NA,"GROSPATH","Gross Pathological Examination",NA,"NORMAL","NORMAL",NA,NA,NA,"GLAND, PITUITARY",NA,NA,NA,NA,NA,NA,"SUPERVISING PATHOLOGIST",NA,NA,"2011-01-09T11:27:00",30
"PDS2014","MA","PDS2014-0024",750,NA,NA,NA,"GROSPATH","Gross Pathological Examination",NA,"NORMAL","NORMAL",NA,NA,NA,"EYE",NA,NA,NA,NA,NA,NA,"SUPERVISING PATHOLOGIST",NA,NA,"2011-01-09T11:27:00",30
"PDS2014","MA","PDS2014-0024",751,NA,NA,NA,"GROSPATH","Gross Pathological Examination",NA,"NORMAL","NORMAL",NA,NA,NA,"GLAND, HARDERIAN",NA,NA,NA,NA,NA,NA,"SUPERVISING PATHOLOGIST",NA,NA,"2011-01-09T11:27:00",30
"PDS2014","MA","PDS2014-0024",752,NA,NA,NA,"GROSPATH","Gross Pathological Examination",NA,"NORMAL","NORMAL",NA,NA,NA,"NOSE",NA,NA,NA,NA,NA,NA,"SUPERVISING PATHOLOGIST",NA,NA,"2011-01-09T11:27:00",30
"PDS2014","MA","PDS2014-0024",753,NA,NA,NA,"GROSPATH","Gross Pathological Examination",NA,"NORMAL","NORMAL",NA,NA,NA,"TONGUE",NA,NA,NA,NA,NA,NA,"SUPERVISING PATHOLOGIST",NA,NA,"2011-01-09T11:27:00",30
"PDS2014","MA","PDS2014-0024",754,NA,NA,NA,"GROSPATH","Gross Pathological Examination",NA,"NORMAL","NORMAL",NA,NA,NA,"SKIN",NA,NA,NA,NA,NA,NA,"SUPERVISING PATHOLOGIST",NA,NA,"2011-01-09T11:27:00",30
"PDS2014","MA","PDS2014-0024",755,NA,NA,NA,"GROSPATH","Gross Pathological Examination",NA,"NORMAL","NORMAL",NA,NA,NA,"GLAND, PREPUTIAL",NA,NA,NA,NA,NA,NA,"SUPERVISING PATHOLOGIST",NA,NA,"2011-01-09T11:27:00",30
"PDS2014","MA","PDS2014-0024",756,NA,NA,NA,"GROSPATH","Gross Pathological Examination",NA,"NORMAL","NORMAL",NA,NA,NA,"GLAND, MAMMARY",NA,NA,NA,NA,NA,NA,"SUPERVISING PATHOLOGIST",NA,NA,"2011-01-09T11:27:00",30
"PDS2014","MA","PDS2014-0024",757,NA,NA,NA,"GROSPATH","Gross Pathological Examination",NA,"NORMAL","NORMAL",NA,NA,NA,"BONE MARROW, STERNUM",NA,NA,NA,NA,NA,NA,"SUPERVISING PATHOLOGIST",NA,NA,"2011-01-09T11:27:00",30
"PDS2014","MA","PDS2014-0024",758,NA,NA,NA,"GROSPATH","Gross Pathological Examination",NA,"NORMAL","NORMAL",NA,NA,NA,"THYMUS",NA,NA,NA,NA,NA,NA,"SUPERVISING PATHOLOGIST",NA,NA,"2011-01-09T11:27:00",30
"PDS2014","MA","PDS2014-0024",759,NA,NA,NA,"GROSPATH","Gross Pathological Examination",NA,"NORMAL","NORMAL",NA,NA,NA,"HEART",NA,NA,NA,NA,NA,NA,"SUPERVISING PATHOLOGIST",NA,NA,"2011-01-09T11:27:00",30
"PDS2014","MA","PDS2014-0024",760,NA,NA,NA,"GROSPATH","Gross Pathological Examination",NA,"NORMAL","NORMAL",NA,NA,NA,"TRACHEA",NA,NA,NA,NA,NA,NA,"SUPERVISING PATHOLOGIST",NA,NA,"2011-01-09T11:27:00",30
"PDS2014","MA","PDS2014-0024",761,NA,NA,NA,"GROSPATH","Gross Pathological Examination",NA,"NORMAL","NORMAL",NA,NA,NA,"LUNG",NA,NA,NA,NA,NA,NA,"SUPERVISING PATHOLOGIST",NA,NA,"2011-01-09T11:27:00",30
"PDS2014","MA","PDS2014-0024",762,NA,NA,NA,"GROSPATH","Gross Pathological Examination",NA,"NORMAL","NORMAL",NA,NA,NA,"ESOPHAGUS",NA,NA,NA,NA,NA,NA,"SUPERVISING PATHOLOGIST",NA,NA,"2011-01-09T11:27:00",30
"PDS2014","MA","PDS2014-0024",763,NA,NA,NA,"GROSPATH","Gross Pathological Examination",NA,"NORMAL","NORMAL",NA,NA,NA,"ARTERY, AORTA",NA,NA,NA,NA,NA,NA,"SUPERVISING PATHOLOGIST",NA,NA,"2011-01-09T11:27:00",30
"PDS2014","MA","PDS2014-0024",764,NA,NA,NA,"GROSPATH","Gross Pathological Examination",NA,"NORMAL","NORMAL",NA,NA,NA,"SPLEEN",NA,NA,NA,NA,NA,NA,"SUPERVISING PATHOLOGIST",NA,NA,"2011-01-09T11:27:00",30
"PDS2014","MA","PDS2014-0024",765,NA,NA,NA,"GROSPATH","Gross Pathological Examination",NA,"NORMAL","NORMAL",NA,NA,NA,"PANCREAS",NA,NA,NA,NA,NA,NA,"SUPERVISING PATHOLOGIST",NA,NA,"2011-01-09T11:27:00",30
"PDS2014","MA","PDS2014-0024",766,NA,NA,NA,"GROSPATH","Gross Pathological Examination",NA,"NORMAL","NORMAL",NA,NA,NA,"STOMACH",NA,NA,NA,NA,NA,NA,"SUPERVISING PATHOLOGIST",NA,NA,"2011-01-09T11:27:00",30
"PDS2014","MA","PDS2014-0024",767,NA,NA,NA,"GROSPATH","Gross Pathological Examination",NA,"NORMAL","NORMAL",NA,NA,NA,"SMALL INTESTINE, DUODENUM",NA,NA,NA,NA,NA,NA,"SUPERVISING PATHOLOGIST",NA,NA,"2011-01-09T11:27:00",30
"PDS2014","MA","PDS2014-0024",768,NA,NA,NA,"GROSPATH","Gross Pathological Examination",NA,"NORMAL","NORMAL",NA,NA,NA,"SMALL INTESTINE, JEJUNUM",NA,NA,NA,NA,NA,NA,"SUPERVISING PATHOLOGIST",NA,NA,"2011-01-09T11:27:00",30
"PDS2014","MA","PDS2014-0024",769,NA,NA,NA,"GROSPATH","Gross Pathological Examination",NA,"NORMAL","NORMAL",NA,NA,NA,"LYMPH NODE, MESENTERIC",NA,NA,NA,NA,NA,NA,"SUPERVISING PATHOLOGIST",NA,NA,"2011-01-09T11:27:00",30
"PDS2014","MA","PDS2014-0024",770,NA,NA,NA,"GROSPATH","Gross Pathological Examination",NA,"NORMAL","NORMAL",NA,NA,NA,"LARGE INTESTINE, CECUM",NA,NA,NA,NA,NA,NA,"SUPERVISING PATHOLOGIST",NA,NA,"2011-01-09T11:27:00",30
"PDS2014","MA","PDS2014-0024",771,NA,NA,NA,"GROSPATH","Gross Pathological Examination",NA,"NORMAL","NORMAL",NA,NA,NA,"LARGE INTESTINE, COLON",NA,NA,NA,NA,NA,NA,"SUPERVISING PATHOLOGIST",NA,NA,"2011-01-09T11:27:00",30
"PDS2014","MA","PDS2014-0024",772,NA,NA,NA,"GROSPATH","Gross Pathological Examination",NA,"NORMAL","NORMAL",NA,NA,NA,"SMALL INTESTINE, ILEUM",NA,NA,NA,NA,NA,NA,"SUPERVISING PATHOLOGIST",NA,NA,"2011-01-09T11:27:00",30
"PDS2014","MA","PDS2014-0024",773,NA,NA,NA,"GROSPATH","Gross Pathological Examination",NA,"NORMAL","NORMAL",NA,NA,NA,"GLAND, ADRENAL",NA,NA,NA,NA,NA,NA,"SUPERVISING PATHOLOGIST",NA,NA,"2011-01-09T11:27:00",30
"PDS2014","MA","PDS2014-0024",774,NA,NA,NA,"GROSPATH","Gross Pathological Examination",NA,"NORMAL","NORMAL",NA,NA,NA,"URETER",NA,NA,NA,NA,NA,NA,"SUPERVISING PATHOLOGIST",NA,NA,"2011-01-09T11:27:00",30
"PDS2014","MA","PDS2014-0024",775,NA,NA,NA,"GROSPATH","Gross Pathological Examination",NA,"NORMAL","NORMAL",NA,NA,NA,"KIDNEY",NA,NA,NA,NA,NA,NA,"SUPERVISING PATHOLOGIST",NA,NA,"2011-01-09T11:27:00",30
"PDS2014","MA","PDS2014-0024",776,NA,NA,NA,"GROSPATH","Gross Pathological Examination",NA,"NORMAL","NORMAL",NA,NA,NA,"URINARY BLADDER",NA,NA,NA,NA,NA,NA,"SUPERVISING PATHOLOGIST",NA,NA,"2011-01-09T11:27:00",30
"PDS2014","MA","PDS2014-0024",777,NA,NA,NA,"GROSPATH","Gross Pathological Examination",NA,"NORMAL","NORMAL",NA,NA,NA,"TESTIS",NA,NA,NA,NA,NA,NA,"SUPERVISING PATHOLOGIST",NA,NA,"2011-01-09T11:27:00",30
"PDS2014","MA","PDS2014-0024",778,NA,NA,NA,"GROSPATH","Gross Pathological Examination",NA,"NORMAL","NORMAL",NA,NA,NA,"EPIDIDYMIS",NA,NA,NA,NA,NA,NA,"SUPERVISING PATHOLOGIST",NA,NA,"2011-01-09T11:27:00",30
"PDS2014","MA","PDS2014-0024",779,NA,NA,NA,"GROSPATH","Gross Pathological Examination",NA,"NORMAL","NORMAL",NA,NA,NA,"GLAND, PROSTATE",NA,NA,NA,NA,NA,NA,"SUPERVISING PATHOLOGIST",NA,NA,"2011-01-09T11:27:00",30
"PDS2014","MA","PDS2014-0024",780,NA,NA,NA,"GROSPATH","Gross Pathological Examination",NA,"NORMAL","NORMAL",NA,NA,NA,"GLAND, SEMINAL VESICLE",NA,NA,NA,NA,NA,NA,"SUPERVISING PATHOLOGIST",NA,NA,"2011-01-09T11:27:00",30
"PDS2014","MA","PDS2014-0024",781,NA,NA,NA,"GROSPATH","Gross Pathological Examination",NA,"NORMAL","NORMAL",NA,NA,NA,"SITE, MICROCHIP",NA,NA,NA,NA,NA,NA,"SUPERVISING PATHOLOGIST",NA,NA,"2011-01-09T11:27:00",30
"PDS2014","MA","PDS2014-0024",782,NA,NA,NA,"GROSPATH","Gross Pathological Examination",NA,"NORMAL","NORMAL",NA,NA,NA,"LARGE INTESTINE, RECTUM",NA,NA,NA,NA,NA,NA,"SUPERVISING PATHOLOGIST",NA,NA,"2011-01-09T11:27:00",30
"PDS2014","MA","PDS2014-0024",783,NA,NA,NA,"GROSPATH","Gross Pathological Examination",NA,"NORMAL","NORMAL",NA,NA,NA,"BONE MARROW, FEMUR",NA,NA,NA,NA,NA,NA,"SUPERVISING PATHOLOGIST",NA,NA,"2011-01-09T11:27:00",30
"PDS2014","MA","PDS2014-0025",784,NA,NA,NA,"GROSPATH","Gross Pathological Examination",NA,"frozen sample (co2-ice)","frozen sample (co2-ice)",NA,NA,NA,"LIVER",NA,NA,NA,NA,NA,NA,"SUPERVISING PATHOLOGIST",NA,NA,"2011-01-09T14:40:00",30
"PDS2014","MA","PDS2014-0025",785,NA,NA,NA,"GROSPATH","Gross Pathological Examination",NA,"NORMAL","NORMAL",NA,NA,NA,"NERVE, SCIATIC",NA,NA,NA,NA,NA,NA,"SUPERVISING PATHOLOGIST",NA,NA,"2011-01-09T14:40:00",30
"PDS2014","MA","PDS2014-0025",786,NA,NA,NA,"GROSPATH","Gross Pathological Examination",NA,"NORMAL","NORMAL",NA,NA,NA,"MUSCLE, QUADRICEPS FEMORIS",NA,NA,NA,NA,NA,NA,"SUPERVISING PATHOLOGIST",NA,NA,"2011-01-09T14:40:00",30
"PDS2014","MA","PDS2014-0025",787,NA,NA,NA,"GROSPATH","Gross Pathological Examination",NA,"NORMAL","NORMAL",NA,NA,NA,"GLAND, SALIVARY, PAROTID",NA,NA,NA,NA,NA,NA,"SUPERVISING PATHOLOGIST",NA,NA,"2011-01-09T14:40:00",30
"PDS2014","MA","PDS2014-0025",788,NA,NA,NA,"GROSPATH","Gross Pathological Examination",NA,"NORMAL","NORMAL",NA,NA,NA,"GLAND, THYROID",NA,NA,NA,NA,NA,NA,"SUPERVISING PATHOLOGIST",NA,NA,"2011-01-09T14:40:00",30
"PDS2014","MA","PDS2014-0025",789,NA,NA,NA,"GROSPATH","Gross Pathological Examination",NA,"NORMAL","NORMAL",NA,NA,NA,"GLAND, PARATHYROID",NA,NA,NA,NA,NA,NA,"SUPERVISING PATHOLOGIST",NA,NA,"2011-01-09T14:40:00",30
"PDS2014","MA","PDS2014-0025",790,NA,NA,NA,"GROSPATH","Gross Pathological Examination",NA,"NORMAL","NORMAL",NA,NA,NA,"LARYNX",NA,NA,NA,NA,NA,NA,"SUPERVISING PATHOLOGIST",NA,NA,"2011-01-09T14:40:00",30
"PDS2014","MA","PDS2014-0025",791,NA,NA,NA,"GROSPATH","Gross Pathological Examination",NA,"NORMAL","NORMAL",NA,NA,NA,"BRAIN",NA,NA,NA,NA,NA,NA,"SUPERVISING PATHOLOGIST",NA,NA,"2011-01-09T14:40:00",30
"PDS2014","MA","PDS2014-0025",792,NA,NA,NA,"GROSPATH","Gross Pathological Examination",NA,"NORMAL","NORMAL",NA,NA,NA,"GLAND, PITUITARY",NA,NA,NA,NA,NA,NA,"SUPERVISING PATHOLOGIST",NA,NA,"2011-01-09T14:40:00",30
"PDS2014","MA","PDS2014-0025",793,NA,NA,NA,"GROSPATH","Gross Pathological Examination",NA,"NORMAL","NORMAL",NA,NA,NA,"EYE",NA,NA,NA,NA,NA,NA,"SUPERVISING PATHOLOGIST",NA,NA,"2011-01-09T14:40:00",30
"PDS2014","MA","PDS2014-0025",794,NA,NA,NA,"GROSPATH","Gross Pathological Examination",NA,"NORMAL","NORMAL",NA,NA,NA,"GLAND, HARDERIAN",NA,NA,NA,NA,NA,NA,"SUPERVISING PATHOLOGIST",NA,NA,"2011-01-09T14:40:00",30
"PDS2014","MA","PDS2014-0025",795,NA,NA,NA,"GROSPATH","Gross Pathological Examination",NA,"NORMAL","NORMAL",NA,NA,NA,"NOSE",NA,NA,NA,NA,NA,NA,"SUPERVISING PATHOLOGIST",NA,NA,"2011-01-09T14:40:00",30
"PDS2014","MA","PDS2014-0025",796,NA,NA,NA,"GROSPATH","Gross Pathological Examination",NA,"NORMAL","NORMAL",NA,NA,NA,"TONGUE",NA,NA,NA,NA,NA,NA,"SUPERVISING PATHOLOGIST",NA,NA,"2011-01-09T14:40:00",30
"PDS2014","MA","PDS2014-0025",797,NA,NA,NA,"GROSPATH","Gross Pathological Examination",NA,"NORMAL","NORMAL",NA,NA,NA,"SKIN",NA,NA,NA,NA,NA,NA,"SUPERVISING PATHOLOGIST",NA,NA,"2011-01-09T14:40:00",30
"PDS2014","MA","PDS2014-0025",798,NA,NA,NA,"GROSPATH","Gross Pathological Examination",NA,"NORMAL","NORMAL",NA,NA,NA,"GLAND, PREPUTIAL",NA,NA,NA,NA,NA,NA,"SUPERVISING PATHOLOGIST",NA,NA,"2011-01-09T14:40:00",30
"PDS2014","MA","PDS2014-0025",799,NA,NA,NA,"GROSPATH","Gross Pathological Examination",NA,"NORMAL","NORMAL",NA,NA,NA,"GLAND, MAMMARY",NA,NA,NA,NA,NA,NA,"SUPERVISING PATHOLOGIST",NA,NA,"2011-01-09T14:40:00",30
"PDS2014","MA","PDS2014-0025",800,NA,NA,NA,"GROSPATH","Gross Pathological Examination",NA,"NORMAL","NORMAL",NA,NA,NA,"BONE MARROW, STERNUM",NA,NA,NA,NA,NA,NA,"SUPERVISING PATHOLOGIST",NA,NA,"2011-01-09T14:40:00",30
"PDS2014","MA","PDS2014-0025",801,NA,NA,NA,"GROSPATH","Gross Pathological Examination",NA,"NORMAL","NORMAL",NA,NA,NA,"THYMUS",NA,NA,NA,NA,NA,NA,"SUPERVISING PATHOLOGIST",NA,NA,"2011-01-09T14:40:00",30
"PDS2014","MA","PDS2014-0025",802,NA,NA,NA,"GROSPATH","Gross Pathological Examination",NA,"NORMAL","NORMAL",NA,NA,NA,"HEART",NA,NA,NA,NA,NA,NA,"SUPERVISING PATHOLOGIST",NA,NA,"2011-01-09T14:40:00",30
"PDS2014","MA","PDS2014-0025",803,NA,NA,NA,"GROSPATH","Gross Pathological Examination",NA,"NORMAL","NORMAL",NA,NA,NA,"TRACHEA",NA,NA,NA,NA,NA,NA,"SUPERVISING PATHOLOGIST",NA,NA,"2011-01-09T14:40:00",30
"PDS2014","MA","PDS2014-0025",804,NA,NA,NA,"GROSPATH","Gross Pathological Examination",NA,"NORMAL","NORMAL",NA,NA,NA,"LUNG",NA,NA,NA,NA,NA,NA,"SUPERVISING PATHOLOGIST",NA,NA,"2011-01-09T14:40:00",30
"PDS2014","MA","PDS2014-0025",805,NA,NA,NA,"GROSPATH","Gross Pathological Examination",NA,"NORMAL","NORMAL",NA,NA,NA,"ESOPHAGUS",NA,NA,NA,NA,NA,NA,"SUPERVISING PATHOLOGIST",NA,NA,"2011-01-09T14:40:00",30
"PDS2014","MA","PDS2014-0025",806,NA,NA,NA,"GROSPATH","Gross Pathological Examination",NA,"NORMAL","NORMAL",NA,NA,NA,"ARTERY, AORTA",NA,NA,NA,NA,NA,NA,"SUPERVISING PATHOLOGIST",NA,NA,"2011-01-09T14:40:00",30
"PDS2014","MA","PDS2014-0025",807,NA,NA,NA,"GROSPATH","Gross Pathological Examination",NA,"NORMAL","NORMAL",NA,NA,NA,"SPLEEN",NA,NA,NA,NA,NA,NA,"SUPERVISING PATHOLOGIST",NA,NA,"2011-01-09T14:40:00",30
"PDS2014","MA","PDS2014-0025",808,NA,NA,NA,"GROSPATH","Gross Pathological Examination",NA,"NORMAL","NORMAL",NA,NA,NA,"PANCREAS",NA,NA,NA,NA,NA,NA,"SUPERVISING PATHOLOGIST",NA,NA,"2011-01-09T14:40:00",30
"PDS2014","MA","PDS2014-0025",809,NA,NA,NA,"GROSPATH","Gross Pathological Examination",NA,"NORMAL","NORMAL",NA,NA,NA,"STOMACH",NA,NA,NA,NA,NA,NA,"SUPERVISING PATHOLOGIST",NA,NA,"2011-01-09T14:40:00",30
"PDS2014","MA","PDS2014-0025",810,NA,NA,NA,"GROSPATH","Gross Pathological Examination",NA,"NORMAL","NORMAL",NA,NA,NA,"SMALL INTESTINE, DUODENUM",NA,NA,NA,NA,NA,NA,"SUPERVISING PATHOLOGIST",NA,NA,"2011-01-09T14:40:00",30
"PDS2014","MA","PDS2014-0025",811,NA,NA,NA,"GROSPATH","Gross Pathological Examination",NA,"NORMAL","NORMAL",NA,NA,NA,"SMALL INTESTINE, JEJUNUM",NA,NA,NA,NA,NA,NA,"SUPERVISING PATHOLOGIST",NA,NA,"2011-01-09T14:40:00",30
"PDS2014","MA","PDS2014-0025",812,NA,NA,NA,"GROSPATH","Gross Pathological Examination",NA,"NORMAL","NORMAL",NA,NA,NA,"LYMPH NODE, MESENTERIC",NA,NA,NA,NA,NA,NA,"SUPERVISING PATHOLOGIST",NA,NA,"2011-01-09T14:40:00",30
"PDS2014","MA","PDS2014-0025",813,NA,NA,NA,"GROSPATH","Gross Pathological Examination",NA,"NORMAL","NORMAL",NA,NA,NA,"LARGE INTESTINE, CECUM",NA,NA,NA,NA,NA,NA,"SUPERVISING PATHOLOGIST",NA,NA,"2011-01-09T14:40:00",30
"PDS2014","MA","PDS2014-0025",814,NA,NA,NA,"GROSPATH","Gross Pathological Examination",NA,"NORMAL","NORMAL",NA,NA,NA,"LARGE INTESTINE, COLON",NA,NA,NA,NA,NA,NA,"SUPERVISING PATHOLOGIST",NA,NA,"2011-01-09T14:40:00",30
"PDS2014","MA","PDS2014-0025",815,NA,NA,NA,"GROSPATH","Gross Pathological Examination",NA,"NORMAL","NORMAL",NA,NA,NA,"SMALL INTESTINE, ILEUM",NA,NA,NA,NA,NA,NA,"SUPERVISING PATHOLOGIST",NA,NA,"2011-01-09T14:40:00",30
"PDS2014","MA","PDS2014-0025",816,NA,NA,NA,"GROSPATH","Gross Pathological Examination",NA,"NORMAL","NORMAL",NA,NA,NA,"GLAND, ADRENAL",NA,NA,NA,NA,NA,NA,"SUPERVISING PATHOLOGIST",NA,NA,"2011-01-09T14:40:00",30
"PDS2014","MA","PDS2014-0025",817,NA,NA,NA,"GROSPATH","Gross Pathological Examination",NA,"NORMAL","NORMAL",NA,NA,NA,"URETER",NA,NA,NA,NA,NA,NA,"SUPERVISING PATHOLOGIST",NA,NA,"2011-01-09T14:40:00",30
"PDS2014","MA","PDS2014-0025",818,NA,NA,NA,"GROSPATH","Gross Pathological Examination",NA,"NORMAL","NORMAL",NA,NA,NA,"KIDNEY",NA,NA,NA,NA,NA,NA,"SUPERVISING PATHOLOGIST",NA,NA,"2011-01-09T14:40:00",30
"PDS2014","MA","PDS2014-0025",819,NA,NA,NA,"GROSPATH","Gross Pathological Examination",NA,"NORMAL","NORMAL",NA,NA,NA,"URINARY BLADDER",NA,NA,NA,NA,NA,NA,"SUPERVISING PATHOLOGIST",NA,NA,"2011-01-09T14:40:00",30
"PDS2014","MA","PDS2014-0025",820,NA,NA,NA,"GROSPATH","Gross Pathological Examination",NA,"NORMAL","NORMAL",NA,NA,NA,"TESTIS",NA,NA,NA,NA,NA,NA,"SUPERVISING PATHOLOGIST",NA,NA,"2011-01-09T14:40:00",30
"PDS2014","MA","PDS2014-0025",821,NA,NA,NA,"GROSPATH","Gross Pathological Examination",NA,"NORMAL","NORMAL",NA,NA,NA,"EPIDIDYMIS",NA,NA,NA,NA,NA,NA,"SUPERVISING PATHOLOGIST",NA,NA,"2011-01-09T14:40:00",30
"PDS2014","MA","PDS2014-0025",822,NA,NA,NA,"GROSPATH","Gross Pathological Examination",NA,"NORMAL","NORMAL",NA,NA,NA,"GLAND, PROSTATE",NA,NA,NA,NA,NA,NA,"SUPERVISING PATHOLOGIST",NA,NA,"2011-01-09T14:40:00",30
"PDS2014","MA","PDS2014-0025",823,NA,NA,NA,"GROSPATH","Gross Pathological Examination",NA,"NORMAL","NORMAL",NA,NA,NA,"GLAND, SEMINAL VESICLE",NA,NA,NA,NA,NA,NA,"SUPERVISING PATHOLOGIST",NA,NA,"2011-01-09T14:40:00",30
"PDS2014","MA","PDS2014-0025",824,NA,NA,NA,"GROSPATH","Gross Pathological Examination",NA,"NORMAL","NORMAL",NA,NA,NA,"SITE, MICROCHIP",NA,NA,NA,NA,NA,NA,"SUPERVISING PATHOLOGIST",NA,NA,"2011-01-09T14:40:00",30
"PDS2014","MA","PDS2014-0025",825,NA,NA,NA,"GROSPATH","Gross Pathological Examination",NA,"NORMAL","NORMAL",NA,NA,NA,"LARGE INTESTINE, RECTUM",NA,NA,NA,NA,NA,NA,"SUPERVISING PATHOLOGIST",NA,NA,"2011-01-09T14:40:00",30
"PDS2014","MA","PDS2014-0025",826,NA,NA,NA,"GROSPATH","Gross Pathological Examination",NA,"NORMAL","NORMAL",NA,NA,NA,"BONE MARROW, FEMUR",NA,NA,NA,NA,NA,NA,"SUPERVISING PATHOLOGIST",NA,NA,"2011-01-09T14:40:00",30
"PDS2014","MA","PDS2014-0026",827,NA,NA,NA,"GROSPATH","Gross Pathological Examination",NA,"NORMAL","NORMAL",NA,NA,NA,"ALL TISSUES",NA,NA,NA,NA,NA,NA,"SUPERVISING PATHOLOGIST",NA,NA,"2011-01-10T10:41:00",31
"PDS2014","MA","PDS2014-0027",828,NA,NA,NA,"GROSPATH","Gross Pathological Examination",NA,"NORMAL","NORMAL",NA,NA,NA,"ALL TISSUES",NA,NA,NA,NA,NA,NA,"SUPERVISING PATHOLOGIST",NA,NA,"2011-01-10T13:58:00",31
"PDS2014","MA","PDS2014-0028",829,NA,NA,NA,"GROSPATH","Gross Pathological Examination",NA,"tissue damaged after necropsy","tissue damaged after necropsy",NA,NA,NA,"GLAND, PITUITARY",NA,NA,NA,NA,NA,NA,"SUPERVISING PATHOLOGIST",NA,NA,"2011-01-10T10:42:00",31
"PDS2014","MA","PDS2014-0028",830,NA,NA,NA,"GROSPATH","Gross Pathological Examination",NA,"NORMAL","NORMAL",NA,NA,NA,"NERVE, SCIATIC",NA,NA,NA,NA,NA,NA,"SUPERVISING PATHOLOGIST",NA,NA,"2011-01-10T10:42:00",31
"PDS2014","MA","PDS2014-0028",831,NA,NA,NA,"GROSPATH","Gross Pathological Examination",NA,"NORMAL","NORMAL",NA,NA,NA,"MUSCLE, QUADRICEPS FEMORIS",NA,NA,NA,NA,NA,NA,"SUPERVISING PATHOLOGIST",NA,NA,"2011-01-10T10:42:00",31
"PDS2014","MA","PDS2014-0028",832,NA,NA,NA,"GROSPATH","Gross Pathological Examination",NA,"NORMAL","NORMAL",NA,NA,NA,"GLAND, SALIVARY, PAROTID",NA,NA,NA,NA,NA,NA,"SUPERVISING PATHOLOGIST",NA,NA,"2011-01-10T10:42:00",31
"PDS2014","MA","PDS2014-0028",833,NA,NA,NA,"GROSPATH","Gross Pathological Examination",NA,"NORMAL","NORMAL",NA,NA,NA,"GLAND, THYROID",NA,NA,NA,NA,NA,NA,"SUPERVISING PATHOLOGIST",NA,NA,"2011-01-10T10:42:00",31
"PDS2014","MA","PDS2014-0028",834,NA,NA,NA,"GROSPATH","Gross Pathological Examination",NA,"NORMAL","NORMAL",NA,NA,NA,"GLAND, PARATHYROID",NA,NA,NA,NA,NA,NA,"SUPERVISING PATHOLOGIST",NA,NA,"2011-01-10T10:42:00",31
"PDS2014","MA","PDS2014-0028",835,NA,NA,NA,"GROSPATH","Gross Pathological Examination",NA,"NORMAL","NORMAL",NA,NA,NA,"LARYNX",NA,NA,NA,NA,NA,NA,"SUPERVISING PATHOLOGIST",NA,NA,"2011-01-10T10:42:00",31
"PDS2014","MA","PDS2014-0028",836,NA,NA,NA,"GROSPATH","Gross Pathological Examination",NA,"NORMAL","NORMAL",NA,NA,NA,"BRAIN",NA,NA,NA,NA,NA,NA,"SUPERVISING PATHOLOGIST",NA,NA,"2011-01-10T10:42:00",31
"PDS2014","MA","PDS2014-0028",837,NA,NA,NA,"GROSPATH","Gross Pathological Examination",NA,"NORMAL","NORMAL",NA,NA,NA,"EYE",NA,NA,NA,NA,NA,NA,"SUPERVISING PATHOLOGIST",NA,NA,"2011-01-10T10:42:00",31
"PDS2014","MA","PDS2014-0028",838,NA,NA,NA,"GROSPATH","Gross Pathological Examination",NA,"NORMAL","NORMAL",NA,NA,NA,"GLAND, HARDERIAN",NA,NA,NA,NA,NA,NA,"SUPERVISING PATHOLOGIST",NA,NA,"2011-01-10T10:42:00",31
"PDS2014","MA","PDS2014-0028",839,NA,NA,NA,"GROSPATH","Gross Pathological Examination",NA,"NORMAL","NORMAL",NA,NA,NA,"NOSE",NA,NA,NA,NA,NA,NA,"SUPERVISING PATHOLOGIST",NA,NA,"2011-01-10T10:42:00",31
"PDS2014","MA","PDS2014-0028",840,NA,NA,NA,"GROSPATH","Gross Pathological Examination",NA,"NORMAL","NORMAL",NA,NA,NA,"TONGUE",NA,NA,NA,NA,NA,NA,"SUPERVISING PATHOLOGIST",NA,NA,"2011-01-10T10:42:00",31
"PDS2014","MA","PDS2014-0028",841,NA,NA,NA,"GROSPATH","Gross Pathological Examination",NA,"NORMAL","NORMAL",NA,NA,NA,"SKIN",NA,NA,NA,NA,NA,NA,"SUPERVISING PATHOLOGIST",NA,NA,"2011-01-10T10:42:00",31
"PDS2014","MA","PDS2014-0028",842,NA,NA,NA,"GROSPATH","Gross Pathological Examination",NA,"NORMAL","NORMAL",NA,NA,NA,"GLAND, PREPUTIAL",NA,NA,NA,NA,NA,NA,"SUPERVISING PATHOLOGIST",NA,NA,"2011-01-10T10:42:00",31
"PDS2014","MA","PDS2014-0028",843,NA,NA,NA,"GROSPATH","Gross Pathological Examination",NA,"NORMAL","NORMAL",NA,NA,NA,"GLAND, MAMMARY",NA,NA,NA,NA,NA,NA,"SUPERVISING PATHOLOGIST",NA,NA,"2011-01-10T10:42:00",31
"PDS2014","MA","PDS2014-0028",844,NA,NA,NA,"GROSPATH","Gross Pathological Examination",NA,"NORMAL","NORMAL",NA,NA,NA,"BONE MARROW, STERNUM",NA,NA,NA,NA,NA,NA,"SUPERVISING PATHOLOGIST",NA,NA,"2011-01-10T10:42:00",31
"PDS2014","MA","PDS2014-0028",845,NA,NA,NA,"GROSPATH","Gross Pathological Examination",NA,"NORMAL","NORMAL",NA,NA,NA,"THYMUS",NA,NA,NA,NA,NA,NA,"SUPERVISING PATHOLOGIST",NA,NA,"2011-01-10T10:42:00",31
"PDS2014","MA","PDS2014-0028",846,NA,NA,NA,"GROSPATH","Gross Pathological Examination",NA,"NORMAL","NORMAL",NA,NA,NA,"HEART",NA,NA,NA,NA,NA,NA,"SUPERVISING PATHOLOGIST",NA,NA,"2011-01-10T10:42:00",31
"PDS2014","MA","PDS2014-0028",847,NA,NA,NA,"GROSPATH","Gross Pathological Examination",NA,"NORMAL","NORMAL",NA,NA,NA,"TRACHEA",NA,NA,NA,NA,NA,NA,"SUPERVISING PATHOLOGIST",NA,NA,"2011-01-10T10:42:00",31
"PDS2014","MA","PDS2014-0028",848,NA,NA,NA,"GROSPATH","Gross Pathological Examination",NA,"NORMAL","NORMAL",NA,NA,NA,"LUNG",NA,NA,NA,NA,NA,NA,"SUPERVISING PATHOLOGIST",NA,NA,"2011-01-10T10:42:00",31
"PDS2014","MA","PDS2014-0028",849,NA,NA,NA,"GROSPATH","Gross Pathological Examination",NA,"NORMAL","NORMAL",NA,NA,NA,"ESOPHAGUS",NA,NA,NA,NA,NA,NA,"SUPERVISING PATHOLOGIST",NA,NA,"2011-01-10T10:42:00",31
"PDS2014","MA","PDS2014-0028",850,NA,NA,NA,"GROSPATH","Gross Pathological Examination",NA,"NORMAL","NORMAL",NA,NA,NA,"ARTERY, AORTA",NA,NA,NA,NA,NA,NA,"SUPERVISING PATHOLOGIST",NA,NA,"2011-01-10T10:42:00",31
"PDS2014","MA","PDS2014-0028",851,NA,NA,NA,"GROSPATH","Gross Pathological Examination",NA,"NORMAL","NORMAL",NA,NA,NA,"SPLEEN",NA,NA,NA,NA,NA,NA,"SUPERVISING PATHOLOGIST",NA,NA,"2011-01-10T10:42:00",31
"PDS2014","MA","PDS2014-0028",852,NA,NA,NA,"GROSPATH","Gross Pathological Examination",NA,"NORMAL","NORMAL",NA,NA,NA,"PANCREAS",NA,NA,NA,NA,NA,NA,"SUPERVISING PATHOLOGIST",NA,NA,"2011-01-10T10:42:00",31
"PDS2014","MA","PDS2014-0028",853,NA,NA,NA,"GROSPATH","Gross Pathological Examination",NA,"NORMAL","NORMAL",NA,NA,NA,"STOMACH",NA,NA,NA,NA,NA,NA,"SUPERVISING PATHOLOGIST",NA,NA,"2011-01-10T10:42:00",31
"PDS2014","MA","PDS2014-0028",854,NA,NA,NA,"GROSPATH","Gross Pathological Examination",NA,"NORMAL","NORMAL",NA,NA,NA,"SMALL INTESTINE, DUODENUM",NA,NA,NA,NA,NA,NA,"SUPERVISING PATHOLOGIST",NA,NA,"2011-01-10T10:42:00",31
"PDS2014","MA","PDS2014-0028",855,NA,NA,NA,"GROSPATH","Gross Pathological Examination",NA,"NORMAL","NORMAL",NA,NA,NA,"SMALL INTESTINE, JEJUNUM",NA,NA,NA,NA,NA,NA,"SUPERVISING PATHOLOGIST",NA,NA,"2011-01-10T10:42:00",31
"PDS2014","MA","PDS2014-0028",856,NA,NA,NA,"GROSPATH","Gross Pathological Examination",NA,"NORMAL","NORMAL",NA,NA,NA,"LYMPH NODE, MESENTERIC",NA,NA,NA,NA,NA,NA,"SUPERVISING PATHOLOGIST",NA,NA,"2011-01-10T10:42:00",31
"PDS2014","MA","PDS2014-0028",857,NA,NA,NA,"GROSPATH","Gross Pathological Examination",NA,"NORMAL","NORMAL",NA,NA,NA,"LARGE INTESTINE, CECUM",NA,NA,NA,NA,NA,NA,"SUPERVISING PATHOLOGIST",NA,NA,"2011-01-10T10:42:00",31
"PDS2014","MA","PDS2014-0028",858,NA,NA,NA,"GROSPATH","Gross Pathological Examination",NA,"NORMAL","NORMAL",NA,NA,NA,"LARGE INTESTINE, COLON",NA,NA,NA,NA,NA,NA,"SUPERVISING PATHOLOGIST",NA,NA,"2011-01-10T10:42:00",31
"PDS2014","MA","PDS2014-0028",859,NA,NA,NA,"GROSPATH","Gross Pathological Examination",NA,"NORMAL","NORMAL",NA,NA,NA,"SMALL INTESTINE, ILEUM",NA,NA,NA,NA,NA,NA,"SUPERVISING PATHOLOGIST",NA,NA,"2011-01-10T10:42:00",31
"PDS2014","MA","PDS2014-0028",860,NA,NA,NA,"GROSPATH","Gross Pathological Examination",NA,"NORMAL","NORMAL",NA,NA,NA,"LIVER",NA,NA,NA,NA,NA,NA,"SUPERVISING PATHOLOGIST",NA,NA,"2011-01-10T10:42:00",31
"PDS2014","MA","PDS2014-0028",861,NA,NA,NA,"GROSPATH","Gross Pathological Examination",NA,"NORMAL","NORMAL",NA,NA,NA,"GLAND, ADRENAL",NA,NA,NA,NA,NA,NA,"SUPERVISING PATHOLOGIST",NA,NA,"2011-01-10T10:42:00",31
"PDS2014","MA","PDS2014-0028",862,NA,NA,NA,"GROSPATH","Gross Pathological Examination",NA,"NORMAL","NORMAL",NA,NA,NA,"URETER",NA,NA,NA,NA,NA,NA,"SUPERVISING PATHOLOGIST",NA,NA,"2011-01-10T10:42:00",31
"PDS2014","MA","PDS2014-0028",863,NA,NA,NA,"GROSPATH","Gross Pathological Examination",NA,"NORMAL","NORMAL",NA,NA,NA,"KIDNEY",NA,NA,NA,NA,NA,NA,"SUPERVISING PATHOLOGIST",NA,NA,"2011-01-10T10:42:00",31
"PDS2014","MA","PDS2014-0028",864,NA,NA,NA,"GROSPATH","Gross Pathological Examination",NA,"NORMAL","NORMAL",NA,NA,NA,"URINARY BLADDER",NA,NA,NA,NA,NA,NA,"SUPERVISING PATHOLOGIST",NA,NA,"2011-01-10T10:42:00",31
"PDS2014","MA","PDS2014-0028",865,NA,NA,NA,"GROSPATH","Gross Pathological Examination",NA,"NORMAL","NORMAL",NA,NA,NA,"TESTIS",NA,NA,NA,NA,NA,NA,"SUPERVISING PATHOLOGIST",NA,NA,"2011-01-10T10:42:00",31
"PDS2014","MA","PDS2014-0028",866,NA,NA,NA,"GROSPATH","Gross Pathological Examination",NA,"NORMAL","NORMAL",NA,NA,NA,"EPIDIDYMIS",NA,NA,NA,NA,NA,NA,"SUPERVISING PATHOLOGIST",NA,NA,"2011-01-10T10:42:00",31
"PDS2014","MA","PDS2014-0028",867,NA,NA,NA,"GROSPATH","Gross Pathological Examination",NA,"NORMAL","NORMAL",NA,NA,NA,"GLAND, PROSTATE",NA,NA,NA,NA,NA,NA,"SUPERVISING PATHOLOGIST",NA,NA,"2011-01-10T10:42:00",31
"PDS2014","MA","PDS2014-0028",868,NA,NA,NA,"GROSPATH","Gross Pathological Examination",NA,"NORMAL","NORMAL",NA,NA,NA,"GLAND, SEMINAL VESICLE",NA,NA,NA,NA,NA,NA,"SUPERVISING PATHOLOGIST",NA,NA,"2011-01-10T10:42:00",31
"PDS2014","MA","PDS2014-0028",869,NA,NA,NA,"GROSPATH","Gross Pathological Examination",NA,"NORMAL","NORMAL",NA,NA,NA,"SITE, MICROCHIP",NA,NA,NA,NA,NA,NA,"SUPERVISING PATHOLOGIST",NA,NA,"2011-01-10T10:42:00",31
"PDS2014","MA","PDS2014-0028",870,NA,NA,NA,"GROSPATH","Gross Pathological Examination",NA,"NORMAL","NORMAL",NA,NA,NA,"LARGE INTESTINE, RECTUM",NA,NA,NA,NA,NA,NA,"SUPERVISING PATHOLOGIST",NA,NA,"2011-01-10T10:42:00",31
"PDS2014","MA","PDS2014-0028",871,NA,NA,NA,"GROSPATH","Gross Pathological Examination",NA,"NORMAL","NORMAL",NA,NA,NA,"BONE MARROW, FEMUR",NA,NA,NA,NA,NA,NA,"SUPERVISING PATHOLOGIST",NA,NA,"2011-01-10T10:42:00",31
"PDS2014","MA","PDS2014-0029",872,NA,NA,NA,"GROSPATH","Gross Pathological Examination",NA,"NORMAL","NORMAL",NA,NA,NA,"ALL TISSUES",NA,NA,NA,NA,NA,NA,"SUPERVISING PATHOLOGIST",NA,NA,"2011-01-10T13:58:00",31
"PDS2014","MA","PDS2014-0030",873,NA,NA,NA,"GROSPATH","Gross Pathological Examination",NA,"perfusion","perfusion",NA,NA,NA,"ALL TISSUES",NA,NA,NA,NA,NA,NA,"SUPERVISING PATHOLOGIST",NA,NA,"2011-01-10T12:15:00",31
"PDS2014","MA","PDS2014-0030",874,NA,NA,NA,"GROSPATH","Gross Pathological Examination",NA,"NORMAL","NORMAL",NA,NA,NA,"NERVE, SCIATIC",NA,NA,NA,NA,NA,NA,"SUPERVISING PATHOLOGIST",NA,NA,"2011-01-10T12:15:00",31
"PDS2014","MA","PDS2014-0030",875,NA,NA,NA,"GROSPATH","Gross Pathological Examination",NA,"NORMAL","NORMAL",NA,NA,NA,"MUSCLE, QUADRICEPS FEMORIS",NA,NA,NA,NA,NA,NA,"SUPERVISING PATHOLOGIST",NA,NA,"2011-01-10T12:15:00",31
"PDS2014","MA","PDS2014-0030",876,NA,NA,NA,"GROSPATH","Gross Pathological Examination",NA,"NORMAL","NORMAL",NA,NA,NA,"GLAND, SALIVARY, PAROTID",NA,NA,NA,NA,NA,NA,"SUPERVISING PATHOLOGIST",NA,NA,"2011-01-10T12:15:00",31
"PDS2014","MA","PDS2014-0030",877,NA,NA,NA,"GROSPATH","Gross Pathological Examination",NA,"NORMAL","NORMAL",NA,NA,NA,"GLAND, THYROID",NA,NA,NA,NA,NA,NA,"SUPERVISING PATHOLOGIST",NA,NA,"2011-01-10T12:15:00",31
"PDS2014","MA","PDS2014-0030",878,NA,NA,NA,"GROSPATH","Gross Pathological Examination",NA,"NORMAL","NORMAL",NA,NA,NA,"GLAND, PARATHYROID",NA,NA,NA,NA,NA,NA,"SUPERVISING PATHOLOGIST",NA,NA,"2011-01-10T12:15:00",31
"PDS2014","MA","PDS2014-0030",879,NA,NA,NA,"GROSPATH","Gross Pathological Examination",NA,"NORMAL","NORMAL",NA,NA,NA,"LARYNX",NA,NA,NA,NA,NA,NA,"SUPERVISING PATHOLOGIST",NA,NA,"2011-01-10T12:15:00",31
"PDS2014","MA","PDS2014-0030",880,NA,NA,NA,"GROSPATH","Gross Pathological Examination",NA,"NORMAL","NORMAL",NA,NA,NA,"BRAIN",NA,NA,NA,NA,NA,NA,"SUPERVISING PATHOLOGIST",NA,NA,"2011-01-10T12:15:00",31
"PDS2014","MA","PDS2014-0030",881,NA,NA,NA,"GROSPATH","Gross Pathological Examination",NA,"NORMAL","NORMAL",NA,NA,NA,"GLAND, PITUITARY",NA,NA,NA,NA,NA,NA,"SUPERVISING PATHOLOGIST",NA,NA,"2011-01-10T12:15:00",31
"PDS2014","MA","PDS2014-0030",882,NA,NA,NA,"GROSPATH","Gross Pathological Examination",NA,"NORMAL","NORMAL",NA,NA,NA,"EYE",NA,NA,NA,NA,NA,NA,"SUPERVISING PATHOLOGIST",NA,NA,"2011-01-10T12:15:00",31
"PDS2014","MA","PDS2014-0030",883,NA,NA,NA,"GROSPATH","Gross Pathological Examination",NA,"NORMAL","NORMAL",NA,NA,NA,"GLAND, HARDERIAN",NA,NA,NA,NA,NA,NA,"SUPERVISING PATHOLOGIST",NA,NA,"2011-01-10T12:15:00",31
"PDS2014","MA","PDS2014-0030",884,NA,NA,NA,"GROSPATH","Gross Pathological Examination",NA,"NORMAL","NORMAL",NA,NA,NA,"NOSE",NA,NA,NA,NA,NA,NA,"SUPERVISING PATHOLOGIST",NA,NA,"2011-01-10T12:15:00",31
"PDS2014","MA","PDS2014-0030",885,NA,NA,NA,"GROSPATH","Gross Pathological Examination",NA,"NORMAL","NORMAL",NA,NA,NA,"TONGUE",NA,NA,NA,NA,NA,NA,"SUPERVISING PATHOLOGIST",NA,NA,"2011-01-10T12:15:00",31
"PDS2014","MA","PDS2014-0030",886,NA,NA,NA,"GROSPATH","Gross Pathological Examination",NA,"NORMAL","NORMAL",NA,NA,NA,"SKIN",NA,NA,NA,NA,NA,NA,"SUPERVISING PATHOLOGIST",NA,NA,"2011-01-10T12:15:00",31
"PDS2014","MA","PDS2014-0030",887,NA,NA,NA,"GROSPATH","Gross Pathological Examination",NA,"NORMAL","NORMAL",NA,NA,NA,"GLAND, PREPUTIAL",NA,NA,NA,NA,NA,NA,"SUPERVISING PATHOLOGIST",NA,NA,"2011-01-10T12:15:00",31
"PDS2014","MA","PDS2014-0030",888,NA,NA,NA,"GROSPATH","Gross Pathological Examination",NA,"NORMAL","NORMAL",NA,NA,NA,"GLAND, MAMMARY",NA,NA,NA,NA,NA,NA,"SUPERVISING PATHOLOGIST",NA,NA,"2011-01-10T12:15:00",31
"PDS2014","MA","PDS2014-0030",889,NA,NA,NA,"GROSPATH","Gross Pathological Examination",NA,"NORMAL","NORMAL",NA,NA,NA,"BONE MARROW, STERNUM",NA,NA,NA,NA,NA,NA,"SUPERVISING PATHOLOGIST",NA,NA,"2011-01-10T12:15:00",31
"PDS2014","MA","PDS2014-0030",890,NA,NA,NA,"GROSPATH","Gross Pathological Examination",NA,"NORMAL","NORMAL",NA,NA,NA,"THYMUS",NA,NA,NA,NA,NA,NA,"SUPERVISING PATHOLOGIST",NA,NA,"2011-01-10T12:15:00",31
"PDS2014","MA","PDS2014-0030",891,NA,NA,NA,"GROSPATH","Gross Pathological Examination",NA,"NORMAL","NORMAL",NA,NA,NA,"HEART",NA,NA,NA,NA,NA,NA,"SUPERVISING PATHOLOGIST",NA,NA,"2011-01-10T12:15:00",31
"PDS2014","MA","PDS2014-0030",892,NA,NA,NA,"GROSPATH","Gross Pathological Examination",NA,"NORMAL","NORMAL",NA,NA,NA,"TRACHEA",NA,NA,NA,NA,NA,NA,"SUPERVISING PATHOLOGIST",NA,NA,"2011-01-10T12:15:00",31
"PDS2014","MA","PDS2014-0030",893,NA,NA,NA,"GROSPATH","Gross Pathological Examination",NA,"NORMAL","NORMAL",NA,NA,NA,"LUNG",NA,NA,NA,NA,NA,NA,"SUPERVISING PATHOLOGIST",NA,NA,"2011-01-10T12:15:00",31
"PDS2014","MA","PDS2014-0030",894,NA,NA,NA,"GROSPATH","Gross Pathological Examination",NA,"NORMAL","NORMAL",NA,NA,NA,"ESOPHAGUS",NA,NA,NA,NA,NA,NA,"SUPERVISING PATHOLOGIST",NA,NA,"2011-01-10T12:15:00",31
"PDS2014","MA","PDS2014-0030",895,NA,NA,NA,"GROSPATH","Gross Pathological Examination",NA,"NORMAL","NORMAL",NA,NA,NA,"ARTERY, AORTA",NA,NA,NA,NA,NA,NA,"SUPERVISING PATHOLOGIST",NA,NA,"2011-01-10T12:15:00",31
"PDS2014","MA","PDS2014-0030",896,NA,NA,NA,"GROSPATH","Gross Pathological Examination",NA,"NORMAL","NORMAL",NA,NA,NA,"SPLEEN",NA,NA,NA,NA,NA,NA,"SUPERVISING PATHOLOGIST",NA,NA,"2011-01-10T12:15:00",31
"PDS2014","MA","PDS2014-0030",897,NA,NA,NA,"GROSPATH","Gross Pathological Examination",NA,"NORMAL","NORMAL",NA,NA,NA,"PANCREAS",NA,NA,NA,NA,NA,NA,"SUPERVISING PATHOLOGIST",NA,NA,"2011-01-10T12:15:00",31
"PDS2014","MA","PDS2014-0030",898,NA,NA,NA,"GROSPATH","Gross Pathological Examination",NA,"NORMAL","NORMAL",NA,NA,NA,"STOMACH",NA,NA,NA,NA,NA,NA,"SUPERVISING PATHOLOGIST",NA,NA,"2011-01-10T12:15:00",31
"PDS2014","MA","PDS2014-0030",899,NA,NA,NA,"GROSPATH","Gross Pathological Examination",NA,"NORMAL","NORMAL",NA,NA,NA,"SMALL INTESTINE, DUODENUM",NA,NA,NA,NA,NA,NA,"SUPERVISING PATHOLOGIST",NA,NA,"2011-01-10T12:15:00",31
"PDS2014","MA","PDS2014-0030",900,NA,NA,NA,"GROSPATH","Gross Pathological Examination",NA,"NORMAL","NORMAL",NA,NA,NA,"SMALL INTESTINE, JEJUNUM",NA,NA,NA,NA,NA,NA,"SUPERVISING PATHOLOGIST",NA,NA,"2011-01-10T12:15:00",31
"PDS2014","MA","PDS2014-0030",901,NA,NA,NA,"GROSPATH","Gross Pathological Examination",NA,"NORMAL","NORMAL",NA,NA,NA,"LYMPH NODE, MESENTERIC",NA,NA,NA,NA,NA,NA,"SUPERVISING PATHOLOGIST",NA,NA,"2011-01-10T12:15:00",31
"PDS2014","MA","PDS2014-0030",902,NA,NA,NA,"GROSPATH","Gross Pathological Examination",NA,"NORMAL","NORMAL",NA,NA,NA,"LARGE INTESTINE, CECUM",NA,NA,NA,NA,NA,NA,"SUPERVISING PATHOLOGIST",NA,NA,"2011-01-10T12:15:00",31
"PDS2014","MA","PDS2014-0030",903,NA,NA,NA,"GROSPATH","Gross Pathological Examination",NA,"NORMAL","NORMAL",NA,NA,NA,"LARGE INTESTINE, COLON",NA,NA,NA,NA,NA,NA,"SUPERVISING PATHOLOGIST",NA,NA,"2011-01-10T12:15:00",31
"PDS2014","MA","PDS2014-0030",904,NA,NA,NA,"GROSPATH","Gross Pathological Examination",NA,"NORMAL","NORMAL",NA,NA,NA,"SMALL INTESTINE, ILEUM",NA,NA,NA,NA,NA,NA,"SUPERVISING PATHOLOGIST",NA,NA,"2011-01-10T12:15:00",31
"PDS2014","MA","PDS2014-0030",905,NA,NA,NA,"GROSPATH","Gross Pathological Examination",NA,"NORMAL","NORMAL",NA,NA,NA,"LIVER",NA,NA,NA,NA,NA,NA,"SUPERVISING PATHOLOGIST",NA,NA,"2011-01-10T12:15:00",31
"PDS2014","MA","PDS2014-0030",906,NA,NA,NA,"GROSPATH","Gross Pathological Examination",NA,"NORMAL","NORMAL",NA,NA,NA,"GLAND, ADRENAL",NA,NA,NA,NA,NA,NA,"SUPERVISING PATHOLOGIST",NA,NA,"2011-01-10T12:15:00",31
"PDS2014","MA","PDS2014-0030",907,NA,NA,NA,"GROSPATH","Gross Pathological Examination",NA,"NORMAL","NORMAL",NA,NA,NA,"URETER",NA,NA,NA,NA,NA,NA,"SUPERVISING PATHOLOGIST",NA,NA,"2011-01-10T12:15:00",31
"PDS2014","MA","PDS2014-0030",908,NA,NA,NA,"GROSPATH","Gross Pathological Examination",NA,"NORMAL","NORMAL",NA,NA,NA,"KIDNEY",NA,NA,NA,NA,NA,NA,"SUPERVISING PATHOLOGIST",NA,NA,"2011-01-10T12:15:00",31
"PDS2014","MA","PDS2014-0030",909,NA,NA,NA,"GROSPATH","Gross Pathological Examination",NA,"NORMAL","NORMAL",NA,NA,NA,"URINARY BLADDER",NA,NA,NA,NA,NA,NA,"SUPERVISING PATHOLOGIST",NA,NA,"2011-01-10T12:15:00",31
"PDS2014","MA","PDS2014-0030",910,NA,NA,NA,"GROSPATH","Gross Pathological Examination",NA,"NORMAL","NORMAL",NA,NA,NA,"TESTIS",NA,NA,NA,NA,NA,NA,"SUPERVISING PATHOLOGIST",NA,NA,"2011-01-10T12:15:00",31
"PDS2014","MA","PDS2014-0030",911,NA,NA,NA,"GROSPATH","Gross Pathological Examination",NA,"NORMAL","NORMAL",NA,NA,NA,"EPIDIDYMIS",NA,NA,NA,NA,NA,NA,"SUPERVISING PATHOLOGIST",NA,NA,"2011-01-10T12:15:00",31
"PDS2014","MA","PDS2014-0030",912,NA,NA,NA,"GROSPATH","Gross Pathological Examination",NA,"NORMAL","NORMAL",NA,NA,NA,"GLAND, PROSTATE",NA,NA,NA,NA,NA,NA,"SUPERVISING PATHOLOGIST",NA,NA,"2011-01-10T12:15:00",31
"PDS2014","MA","PDS2014-0030",913,NA,NA,NA,"GROSPATH","Gross Pathological Examination",NA,"NORMAL","NORMAL",NA,NA,NA,"GLAND, SEMINAL VESICLE",NA,NA,NA,NA,NA,NA,"SUPERVISING PATHOLOGIST",NA,NA,"2011-01-10T12:15:00",31
"PDS2014","MA","PDS2014-0030",914,NA,NA,NA,"GROSPATH","Gross Pathological Examination",NA,"NORMAL","NORMAL",NA,NA,NA,"SITE, MICROCHIP",NA,NA,NA,NA,NA,NA,"SUPERVISING PATHOLOGIST",NA,NA,"2011-01-10T12:15:00",31
"PDS2014","MA","PDS2014-0030",915,NA,NA,NA,"GROSPATH","Gross Pathological Examination",NA,"NORMAL","NORMAL",NA,NA,NA,"LARGE INTESTINE, RECTUM",NA,NA,NA,NA,NA,NA,"SUPERVISING PATHOLOGIST",NA,NA,"2011-01-10T12:15:00",31
"PDS2014","MA","PDS2014-0030",916,NA,NA,NA,"GROSPATH","Gross Pathological Examination",NA,"NORMAL","NORMAL",NA,NA,NA,"BONE MARROW, FEMUR",NA,NA,NA,NA,NA,NA,"SUPERVISING PATHOLOGIST",NA,NA,"2011-01-10T12:15:00",31
"PDS2014","MA","PDS2014-0031",917,NA,NA,NA,"GROSPATH","Gross Pathological Examination",NA,"No necropsy observations noted","NORMAL",NA,NA,NA,"ALL TISSUES",NA,NA,NA,NA,NA,NA,"SUPERVISING PATHOLOGIST",NA,NA,"2011-01-09T13:51:48",30
"PDS2014","MA","PDS2014-0032",918,NA,NA,NA,"GROSPATH","Gross Pathological Examination",NA,"No necropsy observations noted","NORMAL",NA,NA,NA,"ALL TISSUES",NA,NA,NA,NA,NA,NA,"SUPERVISING PATHOLOGIST",NA,NA,"2011-01-09T13:52:13",30
"PDS2014","MA","PDS2014-0033",919,NA,NA,NA,"GROSPATH","Gross Pathological Examination",NA,"No necropsy observations noted","NORMAL",NA,NA,NA,"ALL TISSUES",NA,NA,NA,NA,NA,NA,"SUPERVISING PATHOLOGIST",NA,NA,"2011-01-09T13:51:15",30
"PDS2014","MA","PDS2014-0041",920,NA,NA,NA,"GROSPATH","Gross Pathological Examination",NA,"frozen sample (co2-ice)","frozen sample (co2-ice)",NA,NA,NA,"LIVER",NA,NA,NA,NA,NA,NA,"SUPERVISING PATHOLOGIST",NA,NA,"2011-01-09T10:18:00",30
"PDS2014","MA","PDS2014-0041",921,NA,NA,NA,"GROSPATH","Gross Pathological Examination",NA,"NORMAL","NORMAL",NA,NA,NA,"NERVE, SCIATIC",NA,NA,NA,NA,NA,NA,"SUPERVISING PATHOLOGIST",NA,NA,"2011-01-09T10:18:00",30
"PDS2014","MA","PDS2014-0041",922,NA,NA,NA,"GROSPATH","Gross Pathological Examination",NA,"NORMAL","NORMAL",NA,NA,NA,"MUSCLE, QUADRICEPS FEMORIS",NA,NA,NA,NA,NA,NA,"SUPERVISING PATHOLOGIST",NA,NA,"2011-01-09T10:18:00",30
"PDS2014","MA","PDS2014-0041",923,NA,NA,NA,"GROSPATH","Gross Pathological Examination",NA,"NORMAL","NORMAL",NA,NA,NA,"GLAND, SALIVARY, PAROTID",NA,NA,NA,NA,NA,NA,"SUPERVISING PATHOLOGIST",NA,NA,"2011-01-09T10:18:00",30
"PDS2014","MA","PDS2014-0041",924,NA,NA,NA,"GROSPATH","Gross Pathological Examination",NA,"NORMAL","NORMAL",NA,NA,NA,"GLAND, THYROID",NA,NA,NA,NA,NA,NA,"SUPERVISING PATHOLOGIST",NA,NA,"2011-01-09T10:18:00",30
"PDS2014","MA","PDS2014-0041",925,NA,NA,NA,"GROSPATH","Gross Pathological Examination",NA,"NORMAL","NORMAL",NA,NA,NA,"GLAND, PARATHYROID",NA,NA,NA,NA,NA,NA,"SUPERVISING PATHOLOGIST",NA,NA,"2011-01-09T10:18:00",30
"PDS2014","MA","PDS2014-0041",926,NA,NA,NA,"GROSPATH","Gross Pathological Examination",NA,"NORMAL","NORMAL",NA,NA,NA,"LARYNX",NA,NA,NA,NA,NA,NA,"SUPERVISING PATHOLOGIST",NA,NA,"2011-01-09T10:18:00",30
"PDS2014","MA","PDS2014-0041",927,NA,NA,NA,"GROSPATH","Gross Pathological Examination",NA,"NORMAL","NORMAL",NA,NA,NA,"BRAIN",NA,NA,NA,NA,NA,NA,"SUPERVISING PATHOLOGIST",NA,NA,"2011-01-09T10:18:00",30
"PDS2014","MA","PDS2014-0041",928,NA,NA,NA,"GROSPATH","Gross Pathological Examination",NA,"NORMAL","NORMAL",NA,NA,NA,"GLAND, PITUITARY",NA,NA,NA,NA,NA,NA,"SUPERVISING PATHOLOGIST",NA,NA,"2011-01-09T10:18:00",30
"PDS2014","MA","PDS2014-0041",929,NA,NA,NA,"GROSPATH","Gross Pathological Examination",NA,"NORMAL","NORMAL",NA,NA,NA,"EYE",NA,NA,NA,NA,NA,NA,"SUPERVISING PATHOLOGIST",NA,NA,"2011-01-09T10:18:00",30
"PDS2014","MA","PDS2014-0041",930,NA,NA,NA,"GROSPATH","Gross Pathological Examination",NA,"NORMAL","NORMAL",NA,NA,NA,"GLAND, HARDERIAN",NA,NA,NA,NA,NA,NA,"SUPERVISING PATHOLOGIST",NA,NA,"2011-01-09T10:18:00",30
"PDS2014","MA","PDS2014-0041",931,NA,NA,NA,"GROSPATH","Gross Pathological Examination",NA,"NORMAL","NORMAL",NA,NA,NA,"NOSE",NA,NA,NA,NA,NA,NA,"SUPERVISING PATHOLOGIST",NA,NA,"2011-01-09T10:18:00",30
"PDS2014","MA","PDS2014-0041",932,NA,NA,NA,"GROSPATH","Gross Pathological Examination",NA,"NORMAL","NORMAL",NA,NA,NA,"TONGUE",NA,NA,NA,NA,NA,NA,"SUPERVISING PATHOLOGIST",NA,NA,"2011-01-09T10:18:00",30
"PDS2014","MA","PDS2014-0041",933,NA,NA,NA,"GROSPATH","Gross Pathological Examination",NA,"NORMAL","NORMAL",NA,NA,NA,"SKIN",NA,NA,NA,NA,NA,NA,"SUPERVISING PATHOLOGIST",NA,NA,"2011-01-09T10:18:00",30
"PDS2014","MA","PDS2014-0041",934,NA,NA,NA,"GROSPATH","Gross Pathological Examination",NA,"NORMAL","NORMAL",NA,NA,NA,"GLAND, PREPUTIAL",NA,NA,NA,NA,NA,NA,"SUPERVISING PATHOLOGIST",NA,NA,"2011-01-09T10:18:00",30
"PDS2014","MA","PDS2014-0041",935,NA,NA,NA,"GROSPATH","Gross Pathological Examination",NA,"NORMAL","NORMAL",NA,NA,NA,"GLAND, MAMMARY",NA,NA,NA,NA,NA,NA,"SUPERVISING PATHOLOGIST",NA,NA,"2011-01-09T10:18:00",30
"PDS2014","MA","PDS2014-0041",936,NA,NA,NA,"GROSPATH","Gross Pathological Examination",NA,"NORMAL","NORMAL",NA,NA,NA,"BONE MARROW, STERNUM",NA,NA,NA,NA,NA,NA,"SUPERVISING PATHOLOGIST",NA,NA,"2011-01-09T10:18:00",30
"PDS2014","MA","PDS2014-0041",937,NA,NA,NA,"GROSPATH","Gross Pathological Examination",NA,"NORMAL","NORMAL",NA,NA,NA,"THYMUS",NA,NA,NA,NA,NA,NA,"SUPERVISING PATHOLOGIST",NA,NA,"2011-01-09T10:18:00",30
"PDS2014","MA","PDS2014-0041",938,NA,NA,NA,"GROSPATH","Gross Pathological Examination",NA,"NORMAL","NORMAL",NA,NA,NA,"HEART",NA,NA,NA,NA,NA,NA,"SUPERVISING PATHOLOGIST",NA,NA,"2011-01-09T10:18:00",30
"PDS2014","MA","PDS2014-0041",939,NA,NA,NA,"GROSPATH","Gross Pathological Examination",NA,"NORMAL","NORMAL",NA,NA,NA,"TRACHEA",NA,NA,NA,NA,NA,NA,"SUPERVISING PATHOLOGIST",NA,NA,"2011-01-09T10:18:00",30
"PDS2014","MA","PDS2014-0041",940,NA,NA,NA,"GROSPATH","Gross Pathological Examination",NA,"NORMAL","NORMAL",NA,NA,NA,"LUNG",NA,NA,NA,NA,NA,NA,"SUPERVISING PATHOLOGIST",NA,NA,"2011-01-09T10:18:00",30
"PDS2014","MA","PDS2014-0041",941,NA,NA,NA,"GROSPATH","Gross Pathological Examination",NA,"NORMAL","NORMAL",NA,NA,NA,"ESOPHAGUS",NA,NA,NA,NA,NA,NA,"SUPERVISING PATHOLOGIST",NA,NA,"2011-01-09T10:18:00",30
"PDS2014","MA","PDS2014-0041",942,NA,NA,NA,"GROSPATH","Gross Pathological Examination",NA,"NORMAL","NORMAL",NA,NA,NA,"ARTERY, AORTA",NA,NA,NA,NA,NA,NA,"SUPERVISING PATHOLOGIST",NA,NA,"2011-01-09T10:18:00",30
"PDS2014","MA","PDS2014-0041",943,NA,NA,NA,"GROSPATH","Gross Pathological Examination",NA,"NORMAL","NORMAL",NA,NA,NA,"SPLEEN",NA,NA,NA,NA,NA,NA,"SUPERVISING PATHOLOGIST",NA,NA,"2011-01-09T10:18:00",30
"PDS2014","MA","PDS2014-0041",944,NA,NA,NA,"GROSPATH","Gross Pathological Examination",NA,"NORMAL","NORMAL",NA,NA,NA,"PANCREAS",NA,NA,NA,NA,NA,NA,"SUPERVISING PATHOLOGIST",NA,NA,"2011-01-09T10:18:00",30
"PDS2014","MA","PDS2014-0041",945,NA,NA,NA,"GROSPATH","Gross Pathological Examination",NA,"NORMAL","NORMAL",NA,NA,NA,"STOMACH",NA,NA,NA,NA,NA,NA,"SUPERVISING PATHOLOGIST",NA,NA,"2011-01-09T10:18:00",30
"PDS2014","MA","PDS2014-0041",946,NA,NA,NA,"GROSPATH","Gross Pathological Examination",NA,"NORMAL","NORMAL",NA,NA,NA,"SMALL INTESTINE, DUODENUM",NA,NA,NA,NA,NA,NA,"SUPERVISING PATHOLOGIST",NA,NA,"2011-01-09T10:18:00",30
"PDS2014","MA","PDS2014-0041",947,NA,NA,NA,"GROSPATH","Gross Pathological Examination",NA,"NORMAL","NORMAL",NA,NA,NA,"SMALL INTESTINE, JEJUNUM",NA,NA,NA,NA,NA,NA,"SUPERVISING PATHOLOGIST",NA,NA,"2011-01-09T10:18:00",30
"PDS2014","MA","PDS2014-0041",948,NA,NA,NA,"GROSPATH","Gross Pathological Examination",NA,"NORMAL","NORMAL",NA,NA,NA,"LYMPH NODE, MESENTERIC",NA,NA,NA,NA,NA,NA,"SUPERVISING PATHOLOGIST",NA,NA,"2011-01-09T10:18:00",30
"PDS2014","MA","PDS2014-0041",949,NA,NA,NA,"GROSPATH","Gross Pathological Examination",NA,"NORMAL","NORMAL",NA,NA,NA,"LARGE INTESTINE, CECUM",NA,NA,NA,NA,NA,NA,"SUPERVISING PATHOLOGIST",NA,NA,"2011-01-09T10:18:00",30
