"STUDYID","DOMAIN","USUBJID","MISEQ","MIGRPID","MIREFID","MISPID","MITESTCD","MITEST","MIBODSYS","MIORRES","MISTRESC","MIRESCAT","MISTAT","MIREASND","MINAM","MISPEC","MIANTREG","MISPCCND","MISPCUFL","MIMETHOD","MILAT","MIDIR","MIEVAL","MISEV","MIDTHREL","MIDTC","MIDY"
"PDS2014","MI","PDS2014-0001",1,NA,NA,NA,"MIEXAM","Microscopic Examination",NA,"NORMAL","NORMAL",NA,NA,NA,NA,"GLAND, ADRENAL",NA,NA,NA,NA,NA,NA,"PATHOLOGIST",NA,NA,"2011-01-09T09:59:00",30
"PDS2014","MI","PDS2014-0001",2,NA,NA,NA,"MIEXAM","Microscopic Examination",NA,"NORMAL","NORMAL",NA,NA,NA,NA,"ARTERY, AORTA",NA,NA,NA,NA,NA,NA,"PATHOLOGIST",NA,NA,"2011-01-09T09:59:00",30
"PDS2014","MI","PDS2014-0001",3,NA,NA,NA,"MIEXAM","Microscopic Examination",NA,"Fat vacuoles, diffuse, grade 1","Fat vacuoles","NON-NEOPLASTIC",NA,NA,NA,"BONE MARROW, FEMUR",NA,NA,NA,NA,NA,NA,"PATHOLOGIST","MILD",NA,"2011-01-09T09:59:00",30
"PDS2014","MI","PDS2014-0001",4,NA,NA,NA,"MIEXAM","Microscopic Examination",NA,"NORMAL","NORMAL",NA,NA,NA,NA,"BONE MARROW, STERNUM",NA,NA,NA,NA,NA,NA,"PATHOLOGIST",NA,NA,"2011-01-09T09:59:00",30
"PDS2014","MI","PDS2014-0001",5,NA,NA,NA,"MIEXAM","Microscopic Examination",NA,"NORMAL","NORMAL",NA,NA,NA,NA,"BONE, STERNUM",NA,NA,NA,NA,NA,NA,"PATHOLOGIST",NA,NA,"2011-01-09T09:59:00",30
"PDS2014","MI","PDS2014-0001",6,NA,NA,NA,"MIEXAM","Microscopic Examination",NA,"NORMAL","NORMAL",NA,NA,NA,NA,"JOINT, STIFLE",NA,NA,NA,NA,NA,NA,"PATHOLOGIST",NA,NA,"2011-01-09T09:59:00",30
"PDS2014","MI","PDS2014-0001",7,NA,NA,NA,"MIEXAM","Microscopic Examination",NA,"NORMAL","NORMAL",NA,NA,NA,NA,"BRAIN",NA,NA,NA,NA,NA,NA,"PATHOLOGIST",NA,NA,"2011-01-09T09:59:00",30
"PDS2014","MI","PDS2014-0001",8,NA,NA,NA,"MIEXAM","Microscopic Examination",NA,"NORMAL","NORMAL",NA,NA,NA,NA,"GLAND, COAGULATING",NA,NA,NA,NA,NA,NA,"PATHOLOGIST",NA,NA,"2011-01-09T09:59:00",30
"PDS2014","MI","PDS2014-0001",9,NA,NA,NA,"MIEXAM","Microscopic Examination",NA,"NORMAL","NORMAL",NA,NA,NA,NA,"EPIDIDYMIS",NA,NA,NA,NA,NA,NA,"PATHOLOGIST",NA,NA,"2011-01-09T09:59:00",30
"PDS2014","MI","PDS2014-0001",10,NA,NA,NA,"MIEXAM","Microscopic Examination",NA,"NORMAL","NORMAL",NA,NA,NA,NA,"ESOPHAGUS",NA,NA,NA,NA,NA,NA,"PATHOLOGIST",NA,NA,"2011-01-09T09:59:00",30
"PDS2014","MI","PDS2014-0001",11,NA,NA,NA,"MIEXAM","Microscopic Examination",NA,"NORMAL","NORMAL",NA,NA,NA,NA,"EYE",NA,NA,NA,NA,NA,NA,"PATHOLOGIST",NA,NA,"2011-01-09T09:59:00",30
"PDS2014","MI","PDS2014-0001",12,NA,NA,NA,"MIEXAM","Microscopic Examination",NA,"NORMAL","NORMAL",NA,NA,NA,NA,"GLAND, HARDERIAN",NA,NA,NA,NA,NA,NA,"PATHOLOGIST",NA,NA,"2011-01-09T09:59:00",30
"PDS2014","MI","PDS2014-0001",13,NA,NA,NA,"MIEXAM","Microscopic Examination",NA,"Inflammation chronic, myocardium, focal, septum, grade 1","Inflammation chronic","NON-NEOPLASTIC",NA,NA,NA,"HEART",NA,NA,NA,NA,NA,NA,"PATHOLOGIST","MILD",NA,"2011-01-09T09:59:00",30
"PDS2014","MI","PDS2014-0001",14,NA,NA,NA,"MIEXAM","Microscopic Examination",NA,"NORMAL","NORMAL",NA,NA,NA,NA,"KIDNEY",NA,NA,NA,NA,NA,NA,"PATHOLOGIST",NA,NA,"2011-01-09T09:59:00",30
"PDS2014","MI","PDS2014-0001",15,NA,NA,NA,"MIEXAM","Microscopic Examination",NA,"NORMAL","NORMAL",NA,NA,NA,NA,"LARGE INTESTINE, COLON",NA,NA,NA,NA,NA,NA,"PATHOLOGIST",NA,NA,"2011-01-09T09:59:00",30
"PDS2014","MI","PDS2014-0001",16,NA,NA,NA,"MIEXAM","Microscopic Examination",NA,"NORMAL","NORMAL",NA,NA,NA,NA,"LARGE INTESTINE, RECTUM",NA,NA,NA,NA,NA,NA,"PATHOLOGIST",NA,NA,"2011-01-09T09:59:00",30
"PDS2014","MI","PDS2014-0001",17,NA,NA,NA,"MIEXAM","Microscopic Examination",NA,"NORMAL","NORMAL",NA,NA,NA,NA,"LARGE INTESTINE, CECUM",NA,NA,NA,NA,NA,NA,"PATHOLOGIST",NA,NA,"2011-01-09T09:59:00",30
"PDS2014","MI","PDS2014-0001",18,NA,NA,NA,"MIEXAM","Microscopic Examination",NA,"NORMAL","NORMAL",NA,NA,NA,NA,"LARYNX",NA,NA,NA,NA,NA,NA,"PATHOLOGIST",NA,NA,"2011-01-09T09:59:00",30
"PDS2014","MI","PDS2014-0001",19,NA,NA,NA,"MIEXAM","Microscopic Examination",NA,"MPS-aggregates multifocal, grade 1","MPS-aggregates multifocal","NON-NEOPLASTIC",NA,NA,NA,"LIVER",NA,NA,NA,NA,NA,NA,"PATHOLOGIST","MILD",NA,"2011-01-09T09:59:00",30
"PDS2014","MI","PDS2014-0001",20,NA,NA,NA,"MIEXAM","Microscopic Examination",NA,"Macrophages intra-alveolar focal/multifocal, grade 1","Macrophages intra-alveolar focal/multifocal","NON-NEOPLASTIC",NA,NA,NA,"LUNG",NA,NA,NA,NA,NA,NA,"PATHOLOGIST","MILD",NA,"2011-01-09T09:59:00",30
"PDS2014","MI","PDS2014-0001",21,NA,NA,NA,"MIEXAM","Microscopic Examination",NA,"NORMAL","NORMAL",NA,NA,NA,NA,"LYMPH NODE, MESENTERIC",NA,NA,NA,NA,NA,NA,"PATHOLOGIST",NA,NA,"2011-01-09T09:59:00",30
"PDS2014","MI","PDS2014-0001",22,NA,NA,NA,"MIEXAM","Microscopic Examination",NA,"NORMAL","NORMAL",NA,NA,NA,NA,"LYMPH NODE, POPLITEAL",NA,NA,NA,NA,NA,NA,"PATHOLOGIST",NA,NA,"2011-01-09T09:59:00",30
"PDS2014","MI","PDS2014-0001",23,NA,NA,NA,"MIEXAM","Microscopic Examination",NA,"NORMAL","NORMAL",NA,NA,NA,NA,"GLAND, MAMMARY",NA,NA,NA,NA,NA,NA,"PATHOLOGIST",NA,NA,"2011-01-09T09:59:00",30
"PDS2014","MI","PDS2014-0001",24,NA,NA,NA,"MIEXAM","Microscopic Examination",NA,"NORMAL","NORMAL",NA,NA,NA,NA,"NERVE, OPTIC",NA,NA,NA,NA,NA,NA,"PATHOLOGIST",NA,NA,"2011-01-09T09:59:00",30
"PDS2014","MI","PDS2014-0001",25,NA,NA,NA,"MIEXAM","Microscopic Examination",NA,"NORMAL","NORMAL",NA,NA,NA,NA,"PANCREAS",NA,NA,NA,NA,NA,NA,"PATHOLOGIST",NA,NA,"2011-01-09T09:59:00",30
"PDS2014","MI","PDS2014-0001",26,NA,NA,NA,"MIEXAM","Microscopic Examination",NA,"NORMAL","NORMAL",NA,NA,NA,NA,"GLAND, PARATHYROID",NA,NA,NA,NA,NA,NA,"PATHOLOGIST",NA,NA,"2011-01-09T09:59:00",30
"PDS2014","MI","PDS2014-0001",27,NA,NA,NA,"MIEXAM","Microscopic Examination",NA,"NORMAL","NORMAL",NA,NA,NA,NA,"NERVE, SCIATIC",NA,NA,NA,NA,NA,NA,"PATHOLOGIST",NA,NA,"2011-01-09T09:59:00",30
"PDS2014","MI","PDS2014-0001",28,NA,NA,NA,"MIEXAM","Microscopic Examination",NA,"NORMAL","NORMAL",NA,NA,NA,NA,"PEYER'S PATCH",NA,NA,NA,NA,NA,NA,"PATHOLOGIST",NA,NA,"2011-01-09T09:59:00",30
"PDS2014","MI","PDS2014-0001",29,NA,NA,NA,"MIEXAM","Microscopic Examination",NA,"NORMAL","NORMAL",NA,NA,NA,NA,"GLAND, PITUITARY",NA,NA,NA,NA,NA,NA,"PATHOLOGIST",NA,NA,"2011-01-09T09:59:00",30
"PDS2014","MI","PDS2014-0001",30,NA,NA,NA,"MIEXAM","Microscopic Examination",NA,"Inflammation chronic, ventral, grade 1","Inflammation chronic","NON-NEOPLASTIC",NA,NA,NA,"GLAND, PROSTATE",NA,NA,NA,NA,NA,NA,"PATHOLOGIST","MILD",NA,"2011-01-09T09:59:00",30
"PDS2014","MI","PDS2014-0001",31,NA,NA,NA,"MIEXAM","Microscopic Examination",NA,"NORMAL","NORMAL",NA,NA,NA,NA,"GLAND, SALIVARY, SUBLINGUAL",NA,NA,NA,NA,NA,NA,"PATHOLOGIST",NA,NA,"2011-01-09T09:59:00",30
"PDS2014","MI","PDS2014-0001",32,NA,NA,NA,"MIEXAM","Microscopic Examination",NA,"NORMAL","NORMAL",NA,NA,NA,NA,"GLAND, SALIVARY, SUBMANDIBULAR",NA,NA,NA,NA,NA,NA,"PATHOLOGIST",NA,NA,"2011-01-09T09:59:00",30
"PDS2014","MI","PDS2014-0001",33,NA,NA,NA,"MIEXAM","Microscopic Examination",NA,"NORMAL","NORMAL",NA,NA,NA,NA,"GLAND, SALIVARY, PAROTID",NA,NA,NA,NA,NA,NA,"PATHOLOGIST",NA,NA,"2011-01-09T09:59:00",30
"PDS2014","MI","PDS2014-0001",34,NA,NA,NA,"MIEXAM","Microscopic Examination",NA,"NORMAL","NORMAL",NA,NA,NA,NA,"GLAND, SEMINAL VESICLE",NA,NA,NA,NA,NA,NA,"PATHOLOGIST",NA,NA,"2011-01-09T09:59:00",30
"PDS2014","MI","PDS2014-0001",35,NA,NA,NA,"MIEXAM","Microscopic Examination",NA,"NORMAL","NORMAL",NA,NA,NA,NA,"MUSCLE, QUADRICEPS FEMORIS",NA,NA,NA,NA,NA,NA,"PATHOLOGIST",NA,NA,"2011-01-09T09:59:00",30
"PDS2014","MI","PDS2014-0001",36,NA,NA,NA,"MIEXAM","Microscopic Examination",NA,"NORMAL","NORMAL",NA,NA,NA,NA,"SKIN",NA,NA,NA,NA,NA,NA,"PATHOLOGIST",NA,NA,"2011-01-09T09:59:00",30
"PDS2014","MI","PDS2014-0001",37,NA,NA,NA,"MIEXAM","Microscopic Examination",NA,"NORMAL","NORMAL",NA,NA,NA,NA,"SMALL INTESTINE, DUODENUM",NA,NA,NA,NA,NA,NA,"PATHOLOGIST",NA,NA,"2011-01-09T09:59:00",30
"PDS2014","MI","PDS2014-0001",38,NA,NA,NA,"MIEXAM","Microscopic Examination",NA,"NORMAL","NORMAL",NA,NA,NA,NA,"SMALL INTESTINE, ILEUM",NA,NA,NA,NA,NA,NA,"PATHOLOGIST",NA,NA,"2011-01-09T09:59:00",30
"PDS2014","MI","PDS2014-0001",39,NA,NA,NA,"MIEXAM","Microscopic Examination",NA,"NORMAL","NORMAL",NA,NA,NA,NA,"SMALL INTESTINE, JEJUNUM",NA,NA,NA,NA,NA,NA,"PATHOLOGIST",NA,NA,"2011-01-09T09:59:00",30
"PDS2014","MI","PDS2014-0001",40,NA,NA,NA,"MIEXAM","Microscopic Examination",NA,"NORMAL","NORMAL",NA,NA,NA,NA,"SPINAL CORD, CERVICAL",NA,NA,NA,NA,NA,NA,"PATHOLOGIST",NA,NA,"2011-01-09T09:59:00",30
"PDS2014","MI","PDS2014-0001",41,NA,NA,NA,"MIEXAM","Microscopic Examination",NA,"NORMAL","NORMAL",NA,NA,NA,NA,"SPINAL CORD, LUMBAR",NA,NA,NA,NA,NA,NA,"PATHOLOGIST",NA,NA,"2011-01-09T09:59:00",30
"PDS2014","MI","PDS2014-0001",42,NA,NA,NA,"MIEXAM","Microscopic Examination",NA,"NORMAL","NORMAL",NA,NA,NA,NA,"SPINAL CORD, THORACIC",NA,NA,NA,NA,NA,NA,"PATHOLOGIST",NA,NA,"2011-01-09T09:59:00",30
"PDS2014","MI","PDS2014-0001",43,NA,NA,NA,"MIEXAM","Microscopic Examination",NA,"NORMAL","NORMAL",NA,NA,NA,NA,"SPLEEN",NA,NA,NA,NA,NA,NA,"PATHOLOGIST",NA,NA,"2011-01-09T09:59:00",30
"PDS2014","MI","PDS2014-0001",44,NA,NA,NA,"MIEXAM","Microscopic Examination",NA,"NORMAL","NORMAL",NA,NA,NA,NA,"STOMACH",NA,NA,NA,NA,NA,NA,"PATHOLOGIST",NA,NA,"2011-01-09T09:59:00",30
"PDS2014","MI","PDS2014-0001",45,NA,NA,NA,"MIEXAM","Microscopic Examination",NA,"NORMAL","NORMAL",NA,NA,NA,NA,"TESTIS",NA,NA,NA,NA,NA,NA,"PATHOLOGIST",NA,NA,"2011-01-09T09:59:00",30
"PDS2014","MI","PDS2014-0001",46,NA,NA,NA,"MIEXAM","Microscopic Examination",NA,"NORMAL","NORMAL",NA,NA,NA,NA,"THYMUS",NA,NA,NA,NA,NA,NA,"PATHOLOGIST",NA,NA,"2011-01-09T09:59:00",30
"PDS2014","MI","PDS2014-0001",47,NA,NA,NA,"MIEXAM","Microscopic Examination",NA,"NORMAL","NORMAL",NA,NA,NA,NA,"GLAND, THYROID",NA,NA,NA,NA,NA,NA,"PATHOLOGIST",NA,NA,"2011-01-09T09:59:00",30
"PDS2014","MI","PDS2014-0001",48,NA,NA,NA,"MIEXAM","Microscopic Examination",NA,"NORMAL","NORMAL",NA,NA,NA,NA,"TONGUE",NA,NA,NA,NA,NA,NA,"PATHOLOGIST",NA,NA,"2011-01-09T09:59:00",30
"PDS2014","MI","PDS2014-0001",49,NA,NA,NA,"MIEXAM","Microscopic Examination",NA,"NORMAL","NORMAL",NA,NA,NA,NA,"TRACHEA",NA,NA,NA,NA,NA,NA,"PATHOLOGIST",NA,NA,"2011-01-09T09:59:00",30
"PDS2014","MI","PDS2014-0001",50,NA,NA,NA,"MIEXAM","Microscopic Examination",NA,"NORMAL","NORMAL",NA,NA,NA,NA,"URETER",NA,NA,NA,NA,NA,NA,"PATHOLOGIST",NA,NA,"2011-01-09T09:59:00",30
"PDS2014","MI","PDS2014-0001",51,NA,NA,NA,"MIEXAM","Microscopic Examination",NA,"Inflammation chronic, focal/multifocal, grade 1","Inflammation chronic","NON-NEOPLASTIC",NA,NA,NA,"URINARY BLADDER",NA,NA,NA,NA,NA,NA,"PATHOLOGIST","MILD",NA,"2011-01-09T09:59:00",30
"PDS2014","MI","PDS2014-0002",52,NA,NA,NA,"MIEXAM","Microscopic Examination",NA,"NORMAL","NORMAL",NA,NA,NA,NA,"GLAND, ADRENAL",NA,NA,NA,NA,NA,NA,"PATHOLOGIST",NA,NA,"2011-01-09T11:38:00",30
"PDS2014","MI","PDS2014-0002",53,NA,NA,NA,"MIEXAM","Microscopic Examination",NA,"NORMAL","NORMAL",NA,NA,NA,NA,"ARTERY, AORTA",NA,NA,NA,NA,NA,NA,"PATHOLOGIST",NA,NA,"2011-01-09T11:38:00",30
"PDS2014","MI","PDS2014-0002",54,NA,NA,NA,"MIEXAM","Microscopic Examination",NA,"Fat vacuoles, diffuse, grade 2","Fat vacuoles","NON-NEOPLASTIC",NA,NA,NA,"BONE MARROW, FEMUR",NA,NA,NA,NA,NA,NA,"PATHOLOGIST","MODERATE",NA,"2011-01-09T11:38:00",30
"PDS2014","MI","PDS2014-0002",55,NA,NA,NA,"MIEXAM","Microscopic Examination",NA,"NORMAL","NORMAL",NA,NA,NA,NA,"BONE MARROW, STERNUM",NA,NA,NA,NA,NA,NA,"PATHOLOGIST",NA,NA,"2011-01-09T11:38:00",30
"PDS2014","MI","PDS2014-0002",56,NA,NA,NA,"MIEXAM","Microscopic Examination",NA,"NORMAL","NORMAL",NA,NA,NA,NA,"BONE, STERNUM",NA,NA,NA,NA,NA,NA,"PATHOLOGIST",NA,NA,"2011-01-09T11:38:00",30
"PDS2014","MI","PDS2014-0002",57,NA,NA,NA,"MIEXAM","Microscopic Examination",NA,"NORMAL","NORMAL",NA,NA,NA,NA,"JOINT, STIFLE",NA,NA,NA,NA,NA,NA,"PATHOLOGIST",NA,NA,"2011-01-09T11:38:00",30
"PDS2014","MI","PDS2014-0002",58,NA,NA,NA,"MIEXAM","Microscopic Examination",NA,"NORMAL","NORMAL",NA,NA,NA,NA,"BRAIN",NA,NA,NA,NA,NA,NA,"PATHOLOGIST",NA,NA,"2011-01-09T11:38:00",30
"PDS2014","MI","PDS2014-0002",59,NA,NA,NA,"MIEXAM","Microscopic Examination",NA,"NORMAL","NORMAL",NA,NA,NA,NA,"GLAND, COAGULATING",NA,NA,NA,NA,NA,NA,"PATHOLOGIST",NA,NA,"2011-01-09T11:38:00",30
"PDS2014","MI","PDS2014-0002",60,NA,NA,NA,"MIEXAM","Microscopic Examination",NA,"NORMAL","NORMAL",NA,NA,NA,NA,"EPIDIDYMIS",NA,NA,NA,NA,NA,NA,"PATHOLOGIST",NA,NA,"2011-01-09T11:38:00",30
"PDS2014","MI","PDS2014-0002",61,NA,NA,NA,"MIEXAM","Microscopic Examination",NA,"NORMAL","NORMAL",NA,NA,NA,NA,"ESOPHAGUS",NA,NA,NA,NA,NA,NA,"PATHOLOGIST",NA,NA,"2011-01-09T11:38:00",30
"PDS2014","MI","PDS2014-0002",62,NA,NA,NA,"MIEXAM","Microscopic Examination",NA,"NORMAL","NORMAL",NA,NA,NA,NA,"EYE",NA,NA,NA,NA,NA,NA,"PATHOLOGIST",NA,NA,"2011-01-09T11:38:00",30
"PDS2014","MI","PDS2014-0002",63,NA,NA,NA,"MIEXAM","Microscopic Examination",NA,"NORMAL","NORMAL",NA,NA,NA,NA,"GLAND, HARDERIAN",NA,NA,NA,NA,NA,NA,"PATHOLOGIST",NA,NA,"2011-01-09T11:38:00",30
"PDS2014","MI","PDS2014-0002",64,NA,NA,NA,"MIEXAM","Microscopic Examination",NA,"NORMAL","NORMAL",NA,NA,NA,NA,"HEART",NA,NA,NA,NA,NA,NA,"PATHOLOGIST",NA,NA,"2011-01-09T11:38:00",30
"PDS2014","MI","PDS2014-0002",65,NA,NA,NA,"MIEXAM","Microscopic Examination",NA,"Basophilia tubule(s), cortex, focal/multifocal, grade 1","Basophilia tubule(s)","NON-NEOPLASTIC",NA,NA,NA,"KIDNEY",NA,NA,NA,NA,"UNILATERAL",NA,"PATHOLOGIST","MILD",NA,"2011-01-09T11:38:00",30
"PDS2014","MI","PDS2014-0002",66,NA,NA,NA,"MIEXAM","Microscopic Examination",NA,"NORMAL","NORMAL",NA,NA,NA,NA,"LARGE INTESTINE, COLON",NA,NA,NA,NA,NA,NA,"PATHOLOGIST",NA,NA,"2011-01-09T11:38:00",30
"PDS2014","MI","PDS2014-0002",67,NA,NA,NA,"MIEXAM","Microscopic Examination",NA,"NORMAL","NORMAL",NA,NA,NA,NA,"LARGE INTESTINE, RECTUM",NA,NA,NA,NA,NA,NA,"PATHOLOGIST",NA,NA,"2011-01-09T11:38:00",30
"PDS2014","MI","PDS2014-0002",68,NA,NA,NA,"MIEXAM","Microscopic Examination",NA,"NORMAL","NORMAL",NA,NA,NA,NA,"LARGE INTESTINE, CECUM",NA,NA,NA,NA,NA,NA,"PATHOLOGIST",NA,NA,"2011-01-09T11:38:00",30
"PDS2014","MI","PDS2014-0002",69,NA,NA,NA,"MIEXAM","Microscopic Examination",NA,"NORMAL","NORMAL",NA,NA,NA,NA,"LARYNX",NA,NA,NA,NA,NA,NA,"PATHOLOGIST",NA,NA,"2011-01-09T11:38:00",30
"PDS2014","MI","PDS2014-0002",70,NA,NA,NA,"MIEXAM","Microscopic Examination",NA,"Inflammation chronic, multifocal, grade 1","Inflammation chronic","NON-NEOPLASTIC",NA,NA,NA,"LIVER",NA,NA,NA,NA,NA,NA,"PATHOLOGIST","MILD",NA,"2011-01-09T11:38:00",30
"PDS2014","MI","PDS2014-0002",71,NA,NA,NA,"MIEXAM","Microscopic Examination",NA,"MPS-aggregates multifocal, grade 1","MPS-aggregates multifocal","NON-NEOPLASTIC",NA,NA,NA,"LIVER",NA,NA,NA,NA,NA,NA,"PATHOLOGIST","MILD",NA,"2011-01-09T11:38:00",30
"PDS2014","MI","PDS2014-0002",72,NA,NA,NA,"MIEXAM","Microscopic Examination",NA,"Macrophages intra-alveolar focal/multifocal, grade 1","Macrophages intra-alveolar focal/multifocal","NON-NEOPLASTIC",NA,NA,NA,"LUNG",NA,NA,NA,NA,NA,NA,"PATHOLOGIST","MILD",NA,"2011-01-09T11:38:00",30
"PDS2014","MI","PDS2014-0002",73,NA,NA,NA,"MIEXAM","Microscopic Examination",NA,"NORMAL","NORMAL",NA,NA,NA,NA,"LYMPH NODE, MESENTERIC",NA,NA,NA,NA,NA,NA,"PATHOLOGIST",NA,NA,"2011-01-09T11:38:00",30
"PDS2014","MI","PDS2014-0002",74,NA,NA,NA,"MIEXAM","Microscopic Examination",NA,"NORMAL","NORMAL",NA,NA,NA,NA,"LYMPH NODE, POPLITEAL",NA,NA,NA,NA,NA,NA,"PATHOLOGIST",NA,NA,"2011-01-09T11:38:00",30
"PDS2014","MI","PDS2014-0002",75,NA,NA,NA,"MIEXAM","Microscopic Examination",NA,"NORMAL","NORMAL",NA,NA,NA,NA,"GLAND, MAMMARY",NA,NA,NA,NA,NA,NA,"PATHOLOGIST",NA,NA,"2011-01-09T11:38:00",30
"PDS2014","MI","PDS2014-0002",76,NA,NA,NA,"MIEXAM","Microscopic Examination",NA,"NORMAL","NORMAL",NA,NA,NA,NA,"NERVE, OPTIC",NA,NA,NA,NA,NA,NA,"PATHOLOGIST",NA,NA,"2011-01-09T11:38:00",30
"PDS2014","MI","PDS2014-0002",77,NA,NA,NA,"MIEXAM","Microscopic Examination",NA,"NORMAL","NORMAL",NA,NA,NA,NA,"PANCREAS",NA,NA,NA,NA,NA,NA,"PATHOLOGIST",NA,NA,"2011-01-09T11:38:00",30
"PDS2014","MI","PDS2014-0002",78,NA,NA,NA,"MIEXAM","Microscopic Examination",NA,"NORMAL","NORMAL",NA,NA,NA,NA,"GLAND, PARATHYROID",NA,NA,NA,NA,NA,NA,"PATHOLOGIST",NA,NA,"2011-01-09T11:38:00",30
"PDS2014","MI","PDS2014-0002",79,NA,NA,NA,"MIEXAM","Microscopic Examination",NA,"NORMAL","NORMAL",NA,NA,NA,NA,"NERVE, SCIATIC",NA,NA,NA,NA,NA,NA,"PATHOLOGIST",NA,NA,"2011-01-09T11:38:00",30
"PDS2014","MI","PDS2014-0002",80,NA,NA,NA,"MIEXAM","Microscopic Examination",NA,"Mineralization, multifocal, grade 1","Mineralization","NON-NEOPLASTIC",NA,NA,NA,"PEYER'S PATCH",NA,NA,NA,NA,NA,NA,"PATHOLOGIST","MILD",NA,"2011-01-09T11:38:00",30
"PDS2014","MI","PDS2014-0002",81,NA,NA,NA,"MIEXAM","Microscopic Examination",NA,"Cyst(s), focal, grade 1","Cyst(s)","NON-NEOPLASTIC",NA,NA,NA,"GLAND, PITUITARY",NA,NA,NA,NA,NA,NA,"PATHOLOGIST","MILD",NA,"2011-01-09T11:38:00",30
"PDS2014","MI","PDS2014-0002",82,NA,NA,NA,"MIEXAM","Microscopic Examination",NA,"NORMAL","NORMAL",NA,NA,NA,NA,"GLAND, PROSTATE",NA,NA,NA,NA,NA,NA,"PATHOLOGIST",NA,NA,"2011-01-09T11:38:00",30
"PDS2014","MI","PDS2014-0002",83,NA,NA,NA,"MIEXAM","Microscopic Examination",NA,"NORMAL","NORMAL",NA,NA,NA,NA,"GLAND, SALIVARY, SUBLINGUAL",NA,NA,NA,NA,NA,NA,"PATHOLOGIST",NA,NA,"2011-01-09T11:38:00",30
"PDS2014","MI","PDS2014-0002",84,NA,NA,NA,"MIEXAM","Microscopic Examination",NA,"NORMAL","NORMAL",NA,NA,NA,NA,"GLAND, SALIVARY, SUBMANDIBULAR",NA,NA,NA,NA,NA,NA,"PATHOLOGIST",NA,NA,"2011-01-09T11:38:00",30
"PDS2014","MI","PDS2014-0002",85,NA,NA,NA,"MIEXAM","Microscopic Examination",NA,"NORMAL","NORMAL",NA,NA,NA,NA,"GLAND, SALIVARY, PAROTID",NA,NA,NA,NA,NA,NA,"PATHOLOGIST",NA,NA,"2011-01-09T11:38:00",30
"PDS2014","MI","PDS2014-0002",86,NA,NA,NA,"MIEXAM","Microscopic Examination",NA,"NORMAL","NORMAL",NA,NA,NA,NA,"GLAND, SEMINAL VESICLE",NA,NA,NA,NA,NA,NA,"PATHOLOGIST",NA,NA,"2011-01-09T11:38:00",30
"PDS2014","MI","PDS2014-0002",87,NA,NA,NA,"MIEXAM","Microscopic Examination",NA,"NORMAL","NORMAL",NA,NA,NA,NA,"MUSCLE, QUADRICEPS FEMORIS",NA,NA,NA,NA,NA,NA,"PATHOLOGIST",NA,NA,"2011-01-09T11:38:00",30
"PDS2014","MI","PDS2014-0002",88,NA,NA,NA,"MIEXAM","Microscopic Examination",NA,"NORMAL","NORMAL",NA,NA,NA,NA,"SKIN",NA,NA,NA,NA,NA,NA,"PATHOLOGIST",NA,NA,"2011-01-09T11:38:00",30
"PDS2014","MI","PDS2014-0002",89,NA,NA,NA,"MIEXAM","Microscopic Examination",NA,"NORMAL","NORMAL",NA,NA,NA,NA,"SMALL INTESTINE, DUODENUM",NA,NA,NA,NA,NA,NA,"PATHOLOGIST",NA,NA,"2011-01-09T11:38:00",30
"PDS2014","MI","PDS2014-0002",90,NA,NA,NA,"MIEXAM","Microscopic Examination",NA,"NORMAL","NORMAL",NA,NA,NA,NA,"SMALL INTESTINE, ILEUM",NA,NA,NA,NA,NA,NA,"PATHOLOGIST",NA,NA,"2011-01-09T11:38:00",30
"PDS2014","MI","PDS2014-0002",91,NA,NA,NA,"MIEXAM","Microscopic Examination",NA,"NORMAL","NORMAL",NA,NA,NA,NA,"SMALL INTESTINE, JEJUNUM",NA,NA,NA,NA,NA,NA,"PATHOLOGIST",NA,NA,"2011-01-09T11:38:00",30
"PDS2014","MI","PDS2014-0002",92,NA,NA,NA,"MIEXAM","Microscopic Examination",NA,"NORMAL","NORMAL",NA,NA,NA,NA,"SPINAL CORD, CERVICAL",NA,NA,NA,NA,NA,NA,"PATHOLOGIST",NA,NA,"2011-01-09T11:38:00",30
"PDS2014","MI","PDS2014-0002",93,NA,NA,NA,"MIEXAM","Microscopic Examination",NA,"NORMAL","NORMAL",NA,NA,NA,NA,"SPINAL CORD, LUMBAR",NA,NA,NA,NA,NA,NA,"PATHOLOGIST",NA,NA,"2011-01-09T11:38:00",30
"PDS2014","MI","PDS2014-0002",94,NA,NA,NA,"MIEXAM","Microscopic Examination",NA,"NORMAL","NORMAL",NA,NA,NA,NA,"SPINAL CORD, THORACIC",NA,NA,NA,NA,NA,NA,"PATHOLOGIST",NA,NA,"2011-01-09T11:38:00",30
"PDS2014","MI","PDS2014-0002",95,NA,NA,NA,"MIEXAM","Microscopic Examination",NA,"NORMAL","NORMAL",NA,NA,NA,NA,"SPLEEN",NA,NA,NA,NA,NA,NA,"PATHOLOGIST",NA,NA,"2011-01-09T11:38:00",30
"PDS2014","MI","PDS2014-0002",96,NA,NA,NA,"MIEXAM","Microscopic Examination",NA,"NORMAL","NORMAL",NA,NA,NA,NA,"STOMACH",NA,NA,NA,NA,NA,NA,"PATHOLOGIST",NA,NA,"2011-01-09T11:38:00",30
"PDS2014","MI","PDS2014-0002",97,NA,NA,NA,"MIEXAM","Microscopic Examination",NA,"NORMAL","NORMAL",NA,NA,NA,NA,"TESTIS",NA,NA,NA,NA,NA,NA,"PATHOLOGIST",NA,NA,"2011-01-09T11:38:00",30
"PDS2014","MI","PDS2014-0002",98,NA,NA,NA,"MIEXAM","Microscopic Examination",NA,"NORMAL","NORMAL",NA,NA,NA,NA,"THYMUS",NA,NA,NA,NA,NA,NA,"PATHOLOGIST",NA,NA,"2011-01-09T11:38:00",30
"PDS2014","MI","PDS2014-0002",99,NA,NA,NA,"MIEXAM","Microscopic Examination",NA,"NORMAL","NORMAL",NA,NA,NA,NA,"GLAND, THYROID",NA,NA,NA,NA,NA,NA,"PATHOLOGIST",NA,NA,"2011-01-09T11:38:00",30
"PDS2014","MI","PDS2014-0002",100,NA,NA,NA,"MIEXAM","Microscopic Examination",NA,"NORMAL","NORMAL",NA,NA,NA,NA,"TONGUE",NA,NA,NA,NA,NA,NA,"PATHOLOGIST",NA,NA,"2011-01-09T11:38:00",30
"PDS2014","MI","PDS2014-0002",101,NA,NA,NA,"MIEXAM","Microscopic Examination",NA,"NORMAL","NORMAL",NA,NA,NA,NA,"TRACHEA",NA,NA,NA,NA,NA,NA,"PATHOLOGIST",NA,NA,"2011-01-09T11:38:00",30
"PDS2014","MI","PDS2014-0002",102,NA,NA,NA,"MIEXAM","Microscopic Examination",NA,"NORMAL","NORMAL",NA,NA,NA,NA,"URETER",NA,NA,NA,NA,NA,NA,"PATHOLOGIST",NA,NA,"2011-01-09T11:38:00",30
"PDS2014","MI","PDS2014-0002",103,NA,NA,NA,"MIEXAM","Microscopic Examination",NA,"NORMAL","NORMAL",NA,NA,NA,NA,"URINARY BLADDER",NA,NA,NA,NA,NA,NA,"PATHOLOGIST",NA,NA,"2011-01-09T11:38:00",30
"PDS2014","MI","PDS2014-0003",104,NA,NA,NA,"MIEXAM","Microscopic Examination",NA,"NORMAL","NORMAL",NA,NA,NA,NA,"GLAND, ADRENAL",NA,NA,NA,NA,NA,NA,"PATHOLOGIST",NA,NA,"2011-01-09T14:16:00",30
"PDS2014","MI","PDS2014-0003",105,NA,NA,NA,"MIEXAM","Microscopic Examination",NA,"NORMAL","NORMAL",NA,NA,NA,NA,"ARTERY, AORTA",NA,NA,NA,NA,NA,NA,"PATHOLOGIST",NA,NA,"2011-01-09T14:16:00",30
"PDS2014","MI","PDS2014-0003",106,NA,NA,NA,"MIEXAM","Microscopic Examination",NA,"Fat vacuoles, diffuse, grade 1","Fat vacuoles","NON-NEOPLASTIC",NA,NA,NA,"BONE MARROW, FEMUR",NA,NA,NA,NA,NA,NA,"PATHOLOGIST","MILD",NA,"2011-01-09T14:16:00",30
"PDS2014","MI","PDS2014-0003",107,NA,NA,NA,"MIEXAM","Microscopic Examination",NA,"NORMAL","NORMAL",NA,NA,NA,NA,"BONE MARROW, STERNUM",NA,NA,NA,NA,NA,NA,"PATHOLOGIST",NA,NA,"2011-01-09T14:16:00",30
"PDS2014","MI","PDS2014-0003",108,NA,NA,NA,"MIEXAM","Microscopic Examination",NA,"NORMAL","NORMAL",NA,NA,NA,NA,"BONE, STERNUM",NA,NA,NA,NA,NA,NA,"PATHOLOGIST",NA,NA,"2011-01-09T14:16:00",30
"PDS2014","MI","PDS2014-0003",109,NA,NA,NA,"MIEXAM","Microscopic Examination",NA,"NORMAL","NORMAL",NA,NA,NA,NA,"JOINT, STIFLE",NA,NA,NA,NA,NA,NA,"PATHOLOGIST",NA,NA,"2011-01-09T14:16:00",30
"PDS2014","MI","PDS2014-0003",110,NA,NA,NA,"MIEXAM","Microscopic Examination",NA,"NORMAL","NORMAL",NA,NA,NA,NA,"BRAIN",NA,NA,NA,NA,NA,NA,"PATHOLOGIST",NA,NA,"2011-01-09T14:16:00",30
"PDS2014","MI","PDS2014-0003",111,NA,NA,NA,"MIEXAM","Microscopic Examination",NA,"NORMAL","NORMAL",NA,NA,NA,NA,"GLAND, COAGULATING",NA,NA,NA,NA,NA,NA,"PATHOLOGIST",NA,NA,"2011-01-09T14:16:00",30
"PDS2014","MI","PDS2014-0003",112,NA,NA,NA,"MIEXAM","Microscopic Examination",NA,"NORMAL","NORMAL",NA,NA,NA,NA,"EPIDIDYMIS",NA,NA,NA,NA,NA,NA,"PATHOLOGIST",NA,NA,"2011-01-09T14:16:00",30
"PDS2014","MI","PDS2014-0003",113,NA,NA,NA,"MIEXAM","Microscopic Examination",NA,"NORMAL","NORMAL",NA,NA,NA,NA,"ESOPHAGUS",NA,NA,NA,NA,NA,NA,"PATHOLOGIST",NA,NA,"2011-01-09T14:16:00",30
"PDS2014","MI","PDS2014-0003",114,NA,NA,NA,"MIEXAM","Microscopic Examination",NA,"NORMAL","NORMAL",NA,NA,NA,NA,"EYE",NA,NA,NA,NA,NA,NA,"PATHOLOGIST",NA,NA,"2011-01-09T14:16:00",30
"PDS2014","MI","PDS2014-0003",115,NA,NA,NA,"MIEXAM","Microscopic Examination",NA,"NORMAL","NORMAL",NA,NA,NA,NA,"GLAND, HARDERIAN",NA,NA,NA,NA,NA,NA,"PATHOLOGIST",NA,NA,"2011-01-09T14:16:00",30
"PDS2014","MI","PDS2014-0003",116,NA,NA,NA,"MIEXAM","Microscopic Examination",NA,"NORMAL","NORMAL",NA,NA,NA,NA,"HEART",NA,NA,NA,NA,NA,NA,"PATHOLOGIST",NA,NA,"2011-01-09T14:16:00",30
"PDS2014","MI","PDS2014-0003",117,NA,NA,NA,"MIEXAM","Microscopic Examination",NA,"NORMAL","NORMAL",NA,NA,NA,NA,"KIDNEY",NA,NA,NA,NA,NA,NA,"PATHOLOGIST",NA,NA,"2011-01-09T14:16:00",30
"PDS2014","MI","PDS2014-0003",118,NA,NA,NA,"MIEXAM","Microscopic Examination",NA,"NORMAL","NORMAL",NA,NA,NA,NA,"LARGE INTESTINE, COLON",NA,NA,NA,NA,NA,NA,"PATHOLOGIST",NA,NA,"2011-01-09T14:16:00",30
"PDS2014","MI","PDS2014-0003",119,NA,NA,NA,"MIEXAM","Microscopic Examination",NA,"NORMAL","NORMAL",NA,NA,NA,NA,"LARGE INTESTINE, RECTUM",NA,NA,NA,NA,NA,NA,"PATHOLOGIST",NA,NA,"2011-01-09T14:16:00",30
"PDS2014","MI","PDS2014-0003",120,NA,NA,NA,"MIEXAM","Microscopic Examination",NA,"NORMAL","NORMAL",NA,NA,NA,NA,"LARGE INTESTINE, CECUM",NA,NA,NA,NA,NA,NA,"PATHOLOGIST",NA,NA,"2011-01-09T14:16:00",30
"PDS2014","MI","PDS2014-0003",121,NA,NA,NA,"MIEXAM","Microscopic Examination",NA,"NORMAL","NORMAL",NA,NA,NA,NA,"LARYNX",NA,NA,NA,NA,NA,NA,"PATHOLOGIST",NA,NA,"2011-01-09T14:16:00",30
"PDS2014","MI","PDS2014-0003",122,NA,NA,NA,"MIEXAM","Microscopic Examination",NA,"NORMAL","NORMAL",NA,NA,NA,NA,"LIVER",NA,NA,NA,NA,NA,NA,"PATHOLOGIST",NA,NA,"2011-01-09T14:16:00",30
"PDS2014","MI","PDS2014-0003",123,NA,NA,NA,"MIEXAM","Microscopic Examination",NA,"Infiltration granulocytic, perivascular, focal, grade 1","Infiltration granulocytic","NON-NEOPLASTIC",NA,NA,NA,"LUNG",NA,NA,NA,NA,NA,NA,"PATHOLOGIST","MILD",NA,"2011-01-09T14:16:00",30
"PDS2014","MI","PDS2014-0003",124,NA,NA,NA,"MIEXAM","Microscopic Examination",NA,"Inflammation chronic, multifocal, grade 1","Inflammation chronic","NON-NEOPLASTIC",NA,NA,NA,"LUNG",NA,NA,NA,NA,NA,NA,"PATHOLOGIST","MILD",NA,"2011-01-09T14:16:00",30
"PDS2014","MI","PDS2014-0003",125,NA,NA,NA,"MIEXAM","Microscopic Examination",NA,"Macrophages intra-alveolar focal/multifocal, grade 1","Macrophages intra-alveolar focal/multifocal","NON-NEOPLASTIC",NA,NA,NA,"LUNG",NA,NA,NA,NA,NA,NA,"PATHOLOGIST","MILD",NA,"2011-01-09T14:16:00",30
"PDS2014","MI","PDS2014-0003",126,NA,NA,NA,"MIEXAM","Microscopic Examination",NA,"NORMAL","NORMAL",NA,NA,NA,NA,"LYMPH NODE, MESENTERIC",NA,NA,NA,NA,NA,NA,"PATHOLOGIST",NA,NA,"2011-01-09T14:16:00",30
"PDS2014","MI","PDS2014-0003",127,NA,NA,NA,"MIEXAM","Microscopic Examination",NA,"NORMAL","NORMAL",NA,NA,NA,NA,"LYMPH NODE, POPLITEAL",NA,NA,NA,NA,NA,NA,"PATHOLOGIST",NA,NA,"2011-01-09T14:16:00",30
"PDS2014","MI","PDS2014-0003",128,NA,NA,NA,"MIEXAM","Microscopic Examination",NA,"NORMAL","NORMAL",NA,NA,NA,NA,"GLAND, MAMMARY",NA,NA,NA,NA,NA,NA,"PATHOLOGIST",NA,NA,"2011-01-09T14:16:00",30
"PDS2014","MI","PDS2014-0003",129,NA,NA,NA,"MIEXAM","Microscopic Examination",NA,"NORMAL","NORMAL",NA,NA,NA,NA,"NERVE, OPTIC",NA,NA,NA,NA,NA,NA,"PATHOLOGIST",NA,NA,"2011-01-09T14:16:00",30
"PDS2014","MI","PDS2014-0003",130,NA,NA,NA,"MIEXAM","Microscopic Examination",NA,"NORMAL","NORMAL",NA,NA,NA,NA,"PANCREAS",NA,NA,NA,NA,NA,NA,"PATHOLOGIST",NA,NA,"2011-01-09T14:16:00",30
"PDS2014","MI","PDS2014-0003",131,NA,NA,NA,"MIEXAM","Microscopic Examination",NA,"NORMAL","NORMAL",NA,NA,NA,NA,"GLAND, PARATHYROID",NA,NA,NA,NA,NA,NA,"PATHOLOGIST",NA,NA,"2011-01-09T14:16:00",30
"PDS2014","MI","PDS2014-0003",132,NA,NA,NA,"MIEXAM","Microscopic Examination",NA,"NORMAL","NORMAL",NA,NA,NA,NA,"NERVE, SCIATIC",NA,NA,NA,NA,NA,NA,"PATHOLOGIST",NA,NA,"2011-01-09T14:16:00",30
"PDS2014","MI","PDS2014-0003",133,NA,NA,NA,"MIEXAM","Microscopic Examination",NA,"Mineralization, multifocal, grade 1","Mineralization","NON-NEOPLASTIC",NA,NA,NA,"PEYER'S PATCH",NA,NA,NA,NA,NA,NA,"PATHOLOGIST","MILD",NA,"2011-01-09T14:16:00",30
"PDS2014","MI","PDS2014-0003",134,NA,NA,NA,"MIEXAM","Microscopic Examination",NA,"NORMAL","NORMAL",NA,NA,NA,NA,"GLAND, PITUITARY",NA,NA,NA,NA,NA,NA,"PATHOLOGIST",NA,NA,"2011-01-09T14:16:00",30
"PDS2014","MI","PDS2014-0003",135,NA,NA,NA,"MIEXAM","Microscopic Examination",NA,"Inflammation chronic, dorsolateral, grade 2","Inflammation chronic","NON-NEOPLASTIC",NA,NA,NA,"GLAND, PROSTATE",NA,NA,NA,NA,NA,NA,"PATHOLOGIST","MODERATE",NA,"2011-01-09T14:16:00",30
"PDS2014","MI","PDS2014-0003",136,NA,NA,NA,"MIEXAM","Microscopic Examination",NA,"NORMAL","NORMAL",NA,NA,NA,NA,"GLAND, SALIVARY, SUBLINGUAL",NA,NA,NA,NA,NA,NA,"PATHOLOGIST",NA,NA,"2011-01-09T14:16:00",30
"PDS2014","MI","PDS2014-0003",137,NA,NA,NA,"MIEXAM","Microscopic Examination",NA,"NORMAL","NORMAL",NA,NA,NA,NA,"GLAND, SALIVARY, SUBMANDIBULAR",NA,NA,NA,NA,NA,NA,"PATHOLOGIST",NA,NA,"2011-01-09T14:16:00",30
"PDS2014","MI","PDS2014-0003",138,NA,NA,NA,"MIEXAM","Microscopic Examination",NA,"NORMAL","NORMAL",NA,NA,NA,NA,"GLAND, SALIVARY, PAROTID",NA,NA,NA,NA,NA,NA,"PATHOLOGIST",NA,NA,"2011-01-09T14:16:00",30
"PDS2014","MI","PDS2014-0003",139,NA,NA,NA,"MIEXAM","Microscopic Examination",NA,"NORMAL","NORMAL",NA,NA,NA,NA,"GLAND, SEMINAL VESICLE",NA,NA,NA,NA,NA,NA,"PATHOLOGIST",NA,NA,"2011-01-09T14:16:00",30
"PDS2014","MI","PDS2014-0003",140,NA,NA,NA,"MIEXAM","Microscopic Examination",NA,"NORMAL","NORMAL",NA,NA,NA,NA,"MUSCLE, QUADRICEPS FEMORIS",NA,NA,NA,NA,NA,NA,"PATHOLOGIST",NA,NA,"2011-01-09T14:16:00",30
"PDS2014","MI","PDS2014-0003",141,NA,NA,NA,"MIEXAM","Microscopic Examination",NA,"NORMAL","NORMAL",NA,NA,NA,NA,"SKIN",NA,NA,NA,NA,NA,NA,"PATHOLOGIST",NA,NA,"2011-01-09T14:16:00",30
"PDS2014","MI","PDS2014-0003",142,NA,NA,NA,"MIEXAM","Microscopic Examination",NA,"NORMAL","NORMAL",NA,NA,NA,NA,"SMALL INTESTINE, DUODENUM",NA,NA,NA,NA,NA,NA,"PATHOLOGIST",NA,NA,"2011-01-09T14:16:00",30
"PDS2014","MI","PDS2014-0003",143,NA,NA,NA,"MIEXAM","Microscopic Examination",NA,"NORMAL","NORMAL",NA,NA,NA,NA,"SMALL INTESTINE, ILEUM",NA,NA,NA,NA,NA,NA,"PATHOLOGIST",NA,NA,"2011-01-09T14:16:00",30
"PDS2014","MI","PDS2014-0003",144,NA,NA,NA,"MIEXAM","Microscopic Examination",NA,"NORMAL","NORMAL",NA,NA,NA,NA,"SMALL INTESTINE, JEJUNUM",NA,NA,NA,NA,NA,NA,"PATHOLOGIST",NA,NA,"2011-01-09T14:16:00",30
"PDS2014","MI","PDS2014-0003",145,NA,NA,NA,"MIEXAM","Microscopic Examination",NA,"NORMAL","NORMAL",NA,NA,NA,NA,"SPINAL CORD, CERVICAL",NA,NA,NA,NA,NA,NA,"PATHOLOGIST",NA,NA,"2011-01-09T14:16:00",30
"PDS2014","MI","PDS2014-0003",146,NA,NA,NA,"MIEXAM","Microscopic Examination",NA,"NORMAL","NORMAL",NA,NA,NA,NA,"SPINAL CORD, LUMBAR",NA,NA,NA,NA,NA,NA,"PATHOLOGIST",NA,NA,"2011-01-09T14:16:00",30
"PDS2014","MI","PDS2014-0003",147,NA,NA,NA,"MIEXAM","Microscopic Examination",NA,"NORMAL","NORMAL",NA,NA,NA,NA,"SPINAL CORD, THORACIC",NA,NA,NA,NA,NA,NA,"PATHOLOGIST",NA,NA,"2011-01-09T14:16:00",30
"PDS2014","MI","PDS2014-0003",148,NA,NA,NA,"MIEXAM","Microscopic Examination",NA,"Congestion, red pulp, diffuse, grade 1","Congestion","NON-NEOPLASTIC",NA,NA,NA,"SPLEEN",NA,NA,NA,NA,NA,NA,"PATHOLOGIST","MILD",NA,"2011-01-09T14:16:00",30
"PDS2014","MI","PDS2014-0003",149,NA,NA,NA,"MIEXAM","Microscopic Examination",NA,"NORMAL","NORMAL",NA,NA,NA,NA,"STOMACH",NA,NA,NA,NA,NA,NA,"PATHOLOGIST",NA,NA,"2011-01-09T14:16:00",30
"PDS2014","MI","PDS2014-0003",150,NA,NA,NA,"MIEXAM","Microscopic Examination",NA,"NORMAL","NORMAL",NA,NA,NA,NA,"TESTIS",NA,NA,NA,NA,NA,NA,"PATHOLOGIST",NA,NA,"2011-01-09T14:16:00",30
"PDS2014","MI","PDS2014-0003",151,NA,NA,NA,"MIEXAM","Microscopic Examination",NA,"NORMAL","NORMAL",NA,NA,NA,NA,"THYMUS",NA,NA,NA,NA,NA,NA,"PATHOLOGIST",NA,NA,"2011-01-09T14:16:00",30
"PDS2014","MI","PDS2014-0003",152,NA,NA,NA,"MIEXAM","Microscopic Examination",NA,"NORMAL","NORMAL",NA,NA,NA,NA,"GLAND, THYROID",NA,NA,NA,NA,NA,NA,"PATHOLOGIST",NA,NA,"2011-01-09T14:16:00",30
"PDS2014","MI","PDS2014-0003",153,NA,NA,NA,"MIEXAM","Microscopic Examination",NA,"NORMAL","NORMAL",NA,NA,NA,NA,"TONGUE",NA,NA,NA,NA,NA,NA,"PATHOLOGIST",NA,NA,"2011-01-09T14:16:00",30
"PDS2014","MI","PDS2014-0003",154,NA,NA,NA,"MIEXAM","Microscopic Examination",NA,"NORMAL","NORMAL",NA,NA,NA,NA,"TRACHEA",NA,NA,NA,NA,NA,NA,"PATHOLOGIST",NA,NA,"2011-01-09T14:16:00",30
"PDS2014","MI","PDS2014-0003",155,NA,NA,NA,"MIEXAM","Microscopic Examination",NA,"NORMAL","NORMAL",NA,NA,NA,NA,"URETER",NA,NA,NA,NA,NA,NA,"PATHOLOGIST",NA,NA,"2011-01-09T14:16:00",30
"PDS2014","MI","PDS2014-0003",156,NA,NA,NA,"MIEXAM","Microscopic Examination",NA,"NORMAL","NORMAL",NA,NA,NA,NA,"URINARY BLADDER",NA,NA,NA,NA,NA,NA,"PATHOLOGIST",NA,NA,"2011-01-09T14:16:00",30
"PDS2014","MI","PDS2014-0004",157,NA,NA,NA,"MIEXAM","Microscopic Examination",NA,"NORMAL","NORMAL",NA,NA,NA,NA,"GLAND, ADRENAL",NA,NA,NA,NA,NA,NA,"PATHOLOGIST",NA,NA,"2011-01-09T11:11:00",30
"PDS2014","MI","PDS2014-0004",158,NA,NA,NA,"MIEXAM","Microscopic Examination",NA,"NORMAL","NORMAL",NA,NA,NA,NA,"ARTERY, AORTA",NA,NA,NA,NA,NA,NA,"PATHOLOGIST",NA,NA,"2011-01-09T11:11:00",30
"PDS2014","MI","PDS2014-0004",159,NA,NA,NA,"MIEXAM","Microscopic Examination",NA,"Fat vacuoles, diffuse, grade 1","Fat vacuoles","NON-NEOPLASTIC",NA,NA,NA,"BONE MARROW, FEMUR",NA,NA,NA,NA,NA,NA,"PATHOLOGIST","MILD",NA,"2011-01-09T11:11:00",30
"PDS2014","MI","PDS2014-0004",160,NA,NA,NA,"MIEXAM","Microscopic Examination",NA,"NORMAL","NORMAL",NA,NA,NA,NA,"BONE MARROW, STERNUM",NA,NA,NA,NA,NA,NA,"PATHOLOGIST",NA,NA,"2011-01-09T11:11:00",30
"PDS2014","MI","PDS2014-0004",161,NA,NA,NA,"MIEXAM","Microscopic Examination",NA,"NORMAL","NORMAL",NA,NA,NA,NA,"BONE, STERNUM",NA,NA,NA,NA,NA,NA,"PATHOLOGIST",NA,NA,"2011-01-09T11:11:00",30
"PDS2014","MI","PDS2014-0004",162,NA,NA,NA,"MIEXAM","Microscopic Examination",NA,"NORMAL","NORMAL",NA,NA,NA,NA,"JOINT, STIFLE",NA,NA,NA,NA,NA,NA,"PATHOLOGIST",NA,NA,"2011-01-09T11:11:00",30
"PDS2014","MI","PDS2014-0004",163,NA,NA,NA,"MIEXAM","Microscopic Examination",NA,"NORMAL","NORMAL",NA,NA,NA,NA,"BRAIN",NA,NA,NA,NA,NA,NA,"PATHOLOGIST",NA,NA,"2011-01-09T11:11:00",30
"PDS2014","MI","PDS2014-0004",164,NA,NA,NA,"MIEXAM","Microscopic Examination",NA,"NORMAL","NORMAL",NA,NA,NA,NA,"GLAND, COAGULATING",NA,NA,NA,NA,NA,NA,"PATHOLOGIST",NA,NA,"2011-01-09T11:11:00",30
"PDS2014","MI","PDS2014-0004",165,NA,NA,NA,"MIEXAM","Microscopic Examination",NA,"NORMAL","NORMAL",NA,NA,NA,NA,"EPIDIDYMIS",NA,NA,NA,NA,NA,NA,"PATHOLOGIST",NA,NA,"2011-01-09T11:11:00",30
"PDS2014","MI","PDS2014-0004",166,NA,NA,NA,"MIEXAM","Microscopic Examination",NA,"NORMAL","NORMAL",NA,NA,NA,NA,"ESOPHAGUS",NA,NA,NA,NA,NA,NA,"PATHOLOGIST",NA,NA,"2011-01-09T11:11:00",30
"PDS2014","MI","PDS2014-0004",167,NA,NA,NA,"MIEXAM","Microscopic Examination",NA,"Retinal fold(s), single, grade 1","Retinal fold(s)","NON-NEOPLASTIC",NA,NA,NA,"EYE",NA,NA,NA,NA,"UNILATERAL",NA,"PATHOLOGIST","MILD",NA,"2011-01-09T11:11:00",30
"PDS2014","MI","PDS2014-0004",168,NA,NA,NA,"MIEXAM","Microscopic Examination",NA,"NORMAL","NORMAL",NA,NA,NA,NA,"GLAND, HARDERIAN",NA,NA,NA,NA,NA,NA,"PATHOLOGIST",NA,NA,"2011-01-09T11:11:00",30
"PDS2014","MI","PDS2014-0004",169,NA,NA,NA,"MIEXAM","Microscopic Examination",NA,"Inflammation chronic, myocardium, focal, right ventricle, grade 1","Inflammation chronic","NON-NEOPLASTIC",NA,NA,NA,"HEART",NA,NA,NA,NA,NA,NA,"PATHOLOGIST","MILD",NA,"2011-01-09T11:11:00",30
"PDS2014","MI","PDS2014-0004",170,NA,NA,NA,"MIEXAM","Microscopic Examination",NA,"Basophilia tubule(s), cortex, focal/multifocal, grade 1","Basophilia tubule(s)","NON-NEOPLASTIC",NA,NA,NA,"KIDNEY",NA,NA,NA,NA,"BILATERAL",NA,"PATHOLOGIST","MILD",NA,"2011-01-09T11:11:00",30
"PDS2014","MI","PDS2014-0004",171,NA,NA,NA,"MIEXAM","Microscopic Examination",NA,"Cyst(s), medulla, grade 1","Cyst(s)","NON-NEOPLASTIC",NA,NA,NA,"KIDNEY",NA,NA,NA,NA,"UNILATERAL",NA,"PATHOLOGIST","MILD",NA,"2011-01-09T11:11:00",30
"PDS2014","MI","PDS2014-0004",172,NA,NA,NA,"MIEXAM","Microscopic Examination",NA,"Inflammation chronic, cortex, focal/multifocal, grade 1","Inflammation chronic","NON-NEOPLASTIC",NA,NA,NA,"KIDNEY",NA,NA,NA,NA,"BILATERAL",NA,"PATHOLOGIST","MILD",NA,"2011-01-09T11:11:00",30
"PDS2014","MI","PDS2014-0004",173,NA,NA,NA,"MIEXAM","Microscopic Examination",NA,"NORMAL","NORMAL",NA,NA,NA,NA,"LARGE INTESTINE, COLON",NA,NA,NA,NA,NA,NA,"PATHOLOGIST",NA,NA,"2011-01-09T11:11:00",30
"PDS2014","MI","PDS2014-0004",174,NA,NA,NA,"MIEXAM","Microscopic Examination",NA,"NORMAL","NORMAL",NA,NA,NA,NA,"LARGE INTESTINE, RECTUM",NA,NA,NA,NA,NA,NA,"PATHOLOGIST",NA,NA,"2011-01-09T11:11:00",30
"PDS2014","MI","PDS2014-0004",175,NA,NA,NA,"MIEXAM","Microscopic Examination",NA,"NORMAL","NORMAL",NA,NA,NA,NA,"LARGE INTESTINE, CECUM",NA,NA,NA,NA,NA,NA,"PATHOLOGIST",NA,NA,"2011-01-09T11:11:00",30
"PDS2014","MI","PDS2014-0004",176,NA,NA,NA,"MIEXAM","Microscopic Examination",NA,"NORMAL","NORMAL",NA,NA,NA,NA,"LARYNX",NA,NA,NA,NA,NA,NA,"PATHOLOGIST",NA,NA,"2011-01-09T11:11:00",30
"PDS2014","MI","PDS2014-0004",177,NA,NA,NA,"MIEXAM","Microscopic Examination",NA,"MPS-aggregates multifocal, grade 1","MPS-aggregates multifocal","NON-NEOPLASTIC",NA,NA,NA,"LIVER",NA,NA,NA,NA,NA,NA,"PATHOLOGIST","MILD",NA,"2011-01-09T11:11:00",30
"PDS2014","MI","PDS2014-0004",178,NA,NA,NA,"MIEXAM","Microscopic Examination",NA,"NORMAL","NORMAL",NA,NA,NA,NA,"LUNG",NA,NA,NA,NA,NA,NA,"PATHOLOGIST",NA,NA,"2011-01-09T11:11:00",30
"PDS2014","MI","PDS2014-0004",179,NA,NA,NA,"MIEXAM","Microscopic Examination",NA,"NORMAL","NORMAL",NA,NA,NA,NA,"LYMPH NODE, MESENTERIC",NA,NA,NA,NA,NA,NA,"PATHOLOGIST",NA,NA,"2011-01-09T11:11:00",30
"PDS2014","MI","PDS2014-0004",180,NA,NA,NA,"MIEXAM","Microscopic Examination",NA,"NORMAL","NORMAL",NA,NA,NA,NA,"LYMPH NODE, POPLITEAL",NA,NA,NA,NA,NA,NA,"PATHOLOGIST",NA,NA,"2011-01-09T11:11:00",30
"PDS2014","MI","PDS2014-0004",181,NA,NA,NA,"MIEXAM","Microscopic Examination",NA,"NORMAL","NORMAL",NA,NA,NA,NA,"GLAND, MAMMARY",NA,NA,NA,NA,NA,NA,"PATHOLOGIST",NA,NA,"2011-01-09T11:11:00",30
"PDS2014","MI","PDS2014-0004",182,NA,NA,NA,"MIEXAM","Microscopic Examination",NA,"NORMAL","NORMAL",NA,NA,NA,NA,"NERVE, OPTIC",NA,NA,NA,NA,NA,NA,"PATHOLOGIST",NA,NA,"2011-01-09T11:11:00",30
"PDS2014","MI","PDS2014-0004",183,NA,NA,NA,"MIEXAM","Microscopic Examination",NA,"NORMAL","NORMAL",NA,NA,NA,NA,"PANCREAS",NA,NA,NA,NA,NA,NA,"PATHOLOGIST",NA,NA,"2011-01-09T11:11:00",30
"PDS2014","MI","PDS2014-0004",184,NA,NA,NA,"MIEXAM","Microscopic Examination",NA,"NORMAL","NORMAL",NA,NA,NA,NA,"GLAND, PARATHYROID",NA,NA,NA,NA,NA,NA,"PATHOLOGIST",NA,NA,"2011-01-09T11:11:00",30
"PDS2014","MI","PDS2014-0004",185,NA,NA,NA,"MIEXAM","Microscopic Examination",NA,"NORMAL","NORMAL",NA,NA,NA,NA,"NERVE, SCIATIC",NA,NA,NA,NA,NA,NA,"PATHOLOGIST",NA,NA,"2011-01-09T11:11:00",30
"PDS2014","MI","PDS2014-0004",186,NA,NA,NA,"MIEXAM","Microscopic Examination",NA,"NORMAL","NORMAL",NA,NA,NA,NA,"PEYER'S PATCH",NA,NA,NA,NA,NA,NA,"PATHOLOGIST",NA,NA,"2011-01-09T11:11:00",30
"PDS2014","MI","PDS2014-0004",187,NA,NA,NA,"MIEXAM","Microscopic Examination",NA,"NORMAL","NORMAL",NA,NA,NA,NA,"GLAND, PITUITARY",NA,NA,NA,NA,NA,NA,"PATHOLOGIST",NA,NA,"2011-01-09T11:11:00",30
"PDS2014","MI","PDS2014-0004",188,NA,NA,NA,"MIEXAM","Microscopic Examination",NA,"NORMAL","NORMAL",NA,NA,NA,NA,"GLAND, PROSTATE",NA,NA,NA,NA,NA,NA,"PATHOLOGIST",NA,NA,"2011-01-09T11:11:00",30
"PDS2014","MI","PDS2014-0004",189,NA,NA,NA,"MIEXAM","Microscopic Examination",NA,"NORMAL","NORMAL",NA,NA,NA,NA,"GLAND, SALIVARY, SUBLINGUAL",NA,NA,NA,NA,NA,NA,"PATHOLOGIST",NA,NA,"2011-01-09T11:11:00",30
"PDS2014","MI","PDS2014-0004",190,NA,NA,NA,"MIEXAM","Microscopic Examination",NA,"NORMAL","NORMAL",NA,NA,NA,NA,"GLAND, SALIVARY, SUBMANDIBULAR",NA,NA,NA,NA,NA,NA,"PATHOLOGIST",NA,NA,"2011-01-09T11:11:00",30
"PDS2014","MI","PDS2014-0004",191,NA,NA,NA,"MIEXAM","Microscopic Examination",NA,"NORMAL","NORMAL",NA,NA,NA,NA,"GLAND, SALIVARY, PAROTID",NA,NA,NA,NA,NA,NA,"PATHOLOGIST",NA,NA,"2011-01-09T11:11:00",30
"PDS2014","MI","PDS2014-0004",192,NA,NA,NA,"MIEXAM","Microscopic Examination",NA,"NORMAL","NORMAL",NA,NA,NA,NA,"GLAND, SEMINAL VESICLE",NA,NA,NA,NA,NA,NA,"PATHOLOGIST",NA,NA,"2011-01-09T11:11:00",30
"PDS2014","MI","PDS2014-0004",193,NA,NA,NA,"MIEXAM","Microscopic Examination",NA,"NORMAL","NORMAL",NA,NA,NA,NA,"MUSCLE, QUADRICEPS FEMORIS",NA,NA,NA,NA,NA,NA,"PATHOLOGIST",NA,NA,"2011-01-09T11:11:00",30
"PDS2014","MI","PDS2014-0004",194,NA,NA,NA,"MIEXAM","Microscopic Examination",NA,"NORMAL","NORMAL",NA,NA,NA,NA,"SKIN",NA,NA,NA,NA,NA,NA,"PATHOLOGIST",NA,NA,"2011-01-09T11:11:00",30
"PDS2014","MI","PDS2014-0004",195,NA,NA,NA,"MIEXAM","Microscopic Examination",NA,"NORMAL","NORMAL",NA,NA,NA,NA,"SMALL INTESTINE, DUODENUM",NA,NA,NA,NA,NA,NA,"PATHOLOGIST",NA,NA,"2011-01-09T11:11:00",30
"PDS2014","MI","PDS2014-0004",196,NA,NA,NA,"MIEXAM","Microscopic Examination",NA,"NORMAL","NORMAL",NA,NA,NA,NA,"SMALL INTESTINE, ILEUM",NA,NA,NA,NA,NA,NA,"PATHOLOGIST",NA,NA,"2011-01-09T11:11:00",30
"PDS2014","MI","PDS2014-0004",197,NA,NA,NA,"MIEXAM","Microscopic Examination",NA,"NORMAL","NORMAL",NA,NA,NA,NA,"SMALL INTESTINE, JEJUNUM",NA,NA,NA,NA,NA,NA,"PATHOLOGIST",NA,NA,"2011-01-09T11:11:00",30
"PDS2014","MI","PDS2014-0004",198,NA,NA,NA,"MIEXAM","Microscopic Examination",NA,"NORMAL","NORMAL",NA,NA,NA,NA,"SPINAL CORD, CERVICAL",NA,NA,NA,NA,NA,NA,"PATHOLOGIST",NA,NA,"2011-01-09T11:11:00",30
"PDS2014","MI","PDS2014-0004",199,NA,NA,NA,"MIEXAM","Microscopic Examination",NA,"NORMAL","NORMAL",NA,NA,NA,NA,"SPINAL CORD, LUMBAR",NA,NA,NA,NA,NA,NA,"PATHOLOGIST",NA,NA,"2011-01-09T11:11:00",30
"PDS2014","MI","PDS2014-0004",200,NA,NA,NA,"MIEXAM","Microscopic Examination",NA,"NORMAL","NORMAL",NA,NA,NA,NA,"SPINAL CORD, THORACIC",NA,NA,NA,NA,NA,NA,"PATHOLOGIST",NA,NA,"2011-01-09T11:11:00",30
"PDS2014","MI","PDS2014-0004",201,NA,NA,NA,"MIEXAM","Microscopic Examination",NA,"NORMAL","NORMAL",NA,NA,NA,NA,"SPLEEN",NA,NA,NA,NA,NA,NA,"PATHOLOGIST",NA,NA,"2011-01-09T11:11:00",30
"PDS2014","MI","PDS2014-0004",202,NA,NA,NA,"MIEXAM","Microscopic Examination",NA,"NORMAL","NORMAL",NA,NA,NA,NA,"STOMACH",NA,NA,NA,NA,NA,NA,"PATHOLOGIST",NA,NA,"2011-01-09T11:11:00",30
"PDS2014","MI","PDS2014-0004",203,NA,NA,NA,"MIEXAM","Microscopic Examination",NA,"NORMAL","NORMAL",NA,NA,NA,NA,"TESTIS",NA,NA,NA,NA,NA,NA,"PATHOLOGIST",NA,NA,"2011-01-09T11:11:00",30
"PDS2014","MI","PDS2014-0004",204,NA,NA,NA,"MIEXAM","Microscopic Examination",NA,"NORMAL","NORMAL",NA,NA,NA,NA,"THYMUS",NA,NA,NA,NA,NA,NA,"PATHOLOGIST",NA,NA,"2011-01-09T11:11:00",30
"PDS2014","MI","PDS2014-0004",205,NA,NA,NA,"MIEXAM","Microscopic Examination",NA,"NORMAL","NORMAL",NA,NA,NA,NA,"GLAND, THYROID",NA,NA,NA,NA,NA,NA,"PATHOLOGIST",NA,NA,"2011-01-09T11:11:00",30
"PDS2014","MI","PDS2014-0004",206,NA,NA,NA,"MIEXAM","Microscopic Examination",NA,"NORMAL","NORMAL",NA,NA,NA,NA,"TONGUE",NA,NA,NA,NA,NA,NA,"PATHOLOGIST",NA,NA,"2011-01-09T11:11:00",30
"PDS2014","MI","PDS2014-0004",207,NA,NA,NA,"MIEXAM","Microscopic Examination",NA,"NORMAL","NORMAL",NA,NA,NA,NA,"TRACHEA",NA,NA,NA,NA,NA,NA,"PATHOLOGIST",NA,NA,"2011-01-09T11:11:00",30
"PDS2014","MI","PDS2014-0004",208,NA,NA,NA,"MIEXAM","Microscopic Examination",NA,"NORMAL","NORMAL",NA,NA,NA,NA,"URETER",NA,NA,NA,NA,NA,NA,"PATHOLOGIST",NA,NA,"2011-01-09T11:11:00",30
"PDS2014","MI","PDS2014-0004",209,NA,NA,NA,"MIEXAM","Microscopic Examination",NA,"NORMAL","NORMAL",NA,NA,NA,NA,"URINARY BLADDER",NA,NA,NA,NA,NA,NA,"PATHOLOGIST",NA,NA,"2011-01-09T11:11:00",30
"PDS2014","MI","PDS2014-0005",210,NA,NA,NA,"MIEXAM","Microscopic Examination",NA,"NORMAL","NORMAL",NA,NA,NA,NA,"GLAND, ADRENAL",NA,NA,NA,NA,NA,NA,"PATHOLOGIST",NA,NA,"2011-01-09T14:23:00",30
"PDS2014","MI","PDS2014-0005",211,NA,NA,NA,"MIEXAM","Microscopic Examination",NA,"NORMAL","NORMAL",NA,NA,NA,NA,"ARTERY, AORTA",NA,NA,NA,NA,NA,NA,"PATHOLOGIST",NA,NA,"2011-01-09T14:23:00",30
"PDS2014","MI","PDS2014-0005",212,NA,NA,NA,"MIEXAM","Microscopic Examination",NA,"Fat vacuoles, diffuse, grade 2","Fat vacuoles","NON-NEOPLASTIC",NA,NA,NA,"BONE MARROW, FEMUR",NA,NA,NA,NA,NA,NA,"PATHOLOGIST","MODERATE",NA,"2011-01-09T14:23:00",30
"PDS2014","MI","PDS2014-0005",213,NA,NA,NA,"MIEXAM","Microscopic Examination",NA,"NORMAL","NORMAL",NA,NA,NA,NA,"BONE MARROW, STERNUM",NA,NA,NA,NA,NA,NA,"PATHOLOGIST",NA,NA,"2011-01-09T14:23:00",30
"PDS2014","MI","PDS2014-0005",214,NA,NA,NA,"MIEXAM","Microscopic Examination",NA,"NORMAL","NORMAL",NA,NA,NA,NA,"BONE, STERNUM",NA,NA,NA,NA,NA,NA,"PATHOLOGIST",NA,NA,"2011-01-09T14:23:00",30
"PDS2014","MI","PDS2014-0005",215,NA,NA,NA,"MIEXAM","Microscopic Examination",NA,"NORMAL","NORMAL",NA,NA,NA,NA,"JOINT, STIFLE",NA,NA,NA,NA,NA,NA,"PATHOLOGIST",NA,NA,"2011-01-09T14:23:00",30
"PDS2014","MI","PDS2014-0005",216,NA,NA,NA,"MIEXAM","Microscopic Examination",NA,"NORMAL","NORMAL",NA,NA,NA,NA,"BRAIN",NA,NA,NA,NA,NA,NA,"PATHOLOGIST",NA,NA,"2011-01-09T14:23:00",30
"PDS2014","MI","PDS2014-0005",217,NA,NA,NA,"MIEXAM","Microscopic Examination",NA,"NORMAL","NORMAL",NA,NA,NA,NA,"GLAND, COAGULATING",NA,NA,NA,NA,NA,NA,"PATHOLOGIST",NA,NA,"2011-01-09T14:23:00",30
"PDS2014","MI","PDS2014-0005",218,NA,NA,NA,"MIEXAM","Microscopic Examination",NA,"NORMAL","NORMAL",NA,NA,NA,NA,"EPIDIDYMIS",NA,NA,NA,NA,NA,NA,"PATHOLOGIST",NA,NA,"2011-01-09T14:23:00",30
"PDS2014","MI","PDS2014-0005",219,NA,NA,NA,"MIEXAM","Microscopic Examination",NA,"NORMAL","NORMAL",NA,NA,NA,NA,"ESOPHAGUS",NA,NA,NA,NA,NA,NA,"PATHOLOGIST",NA,NA,"2011-01-09T14:23:00",30
"PDS2014","MI","PDS2014-0005",220,NA,NA,NA,"MIEXAM","Microscopic Examination",NA,"NORMAL","NORMAL",NA,NA,NA,NA,"EYE",NA,NA,NA,NA,NA,NA,"PATHOLOGIST",NA,NA,"2011-01-09T14:23:00",30
"PDS2014","MI","PDS2014-0005",221,NA,NA,NA,"MIEXAM","Microscopic Examination",NA,"NORMAL","NORMAL",NA,NA,NA,NA,"GLAND, HARDERIAN",NA,NA,NA,NA,NA,NA,"PATHOLOGIST",NA,NA,"2011-01-09T14:23:00",30
"PDS2014","MI","PDS2014-0005",222,NA,NA,NA,"MIEXAM","Microscopic Examination",NA,"NORMAL","NORMAL",NA,NA,NA,NA,"HEART",NA,NA,NA,NA,NA,NA,"PATHOLOGIST",NA,NA,"2011-01-09T14:23:00",30
"PDS2014","MI","PDS2014-0005",223,NA,NA,NA,"MIEXAM","Microscopic Examination",NA,"Basophilia tubule(s), cortex, focal/multifocal, grade 1","Basophilia tubule(s)","NON-NEOPLASTIC",NA,NA,NA,"KIDNEY",NA,NA,NA,NA,"UNILATERAL",NA,"PATHOLOGIST","MILD",NA,"2011-01-09T14:23:00",30
"PDS2014","MI","PDS2014-0005",224,NA,NA,NA,"MIEXAM","Microscopic Examination",NA,"NORMAL","NORMAL",NA,NA,NA,NA,"LARGE INTESTINE, COLON",NA,NA,NA,NA,NA,NA,"PATHOLOGIST",NA,NA,"2011-01-09T14:23:00",30
"PDS2014","MI","PDS2014-0005",225,NA,NA,NA,"MIEXAM","Microscopic Examination",NA,"NORMAL","NORMAL",NA,NA,NA,NA,"LARGE INTESTINE, RECTUM",NA,NA,NA,NA,NA,NA,"PATHOLOGIST",NA,NA,"2011-01-09T14:23:00",30
"PDS2014","MI","PDS2014-0005",226,NA,NA,NA,"MIEXAM","Microscopic Examination",NA,"NORMAL","NORMAL",NA,NA,NA,NA,"LARGE INTESTINE, CECUM",NA,NA,NA,NA,NA,NA,"PATHOLOGIST",NA,NA,"2011-01-09T14:23:00",30
"PDS2014","MI","PDS2014-0005",227,NA,NA,NA,"MIEXAM","Microscopic Examination",NA,"NORMAL","NORMAL",NA,NA,NA,NA,"LARYNX",NA,NA,NA,NA,NA,NA,"PATHOLOGIST",NA,NA,"2011-01-09T14:23:00",30
"PDS2014","MI","PDS2014-0005",228,NA,NA,NA,"MIEXAM","Microscopic Examination",NA,"MPS-aggregates multifocal, grade 1","MPS-aggregates multifocal","NON-NEOPLASTIC",NA,NA,NA,"LIVER",NA,NA,NA,NA,NA,NA,"PATHOLOGIST","MILD",NA,"2011-01-09T14:23:00",30
"PDS2014","MI","PDS2014-0005",229,NA,NA,NA,"MIEXAM","Microscopic Examination",NA,"Infiltration granulocytic, perivascular, focal, grade 1","Infiltration granulocytic","NON-NEOPLASTIC",NA,NA,NA,"LUNG",NA,NA,NA,NA,NA,NA,"PATHOLOGIST","MILD",NA,"2011-01-09T14:23:00",30
"PDS2014","MI","PDS2014-0005",230,NA,NA,NA,"MIEXAM","Microscopic Examination",NA,"NORMAL","NORMAL",NA,NA,NA,NA,"LYMPH NODE, MESENTERIC",NA,NA,NA,NA,NA,NA,"PATHOLOGIST",NA,NA,"2011-01-09T14:23:00",30
"PDS2014","MI","PDS2014-0005",231,NA,NA,NA,"MIEXAM","Microscopic Examination",NA,"NORMAL","NORMAL",NA,NA,NA,NA,"LYMPH NODE, POPLITEAL",NA,NA,NA,NA,NA,NA,"PATHOLOGIST",NA,NA,"2011-01-09T14:23:00",30
"PDS2014","MI","PDS2014-0005",232,NA,NA,NA,"MIEXAM","Microscopic Examination",NA,"NORMAL","NORMAL",NA,NA,NA,NA,"GLAND, MAMMARY",NA,NA,NA,NA,NA,NA,"PATHOLOGIST",NA,NA,"2011-01-09T14:23:00",30
"PDS2014","MI","PDS2014-0005",233,NA,NA,NA,"MIEXAM","Microscopic Examination",NA,"NORMAL","NORMAL",NA,NA,NA,NA,"NERVE, OPTIC",NA,NA,NA,NA,NA,NA,"PATHOLOGIST",NA,NA,"2011-01-09T14:23:00",30
"PDS2014","MI","PDS2014-0005",234,NA,NA,NA,"MIEXAM","Microscopic Examination",NA,"NORMAL","NORMAL",NA,NA,NA,NA,"PANCREAS",NA,NA,NA,NA,NA,NA,"PATHOLOGIST",NA,NA,"2011-01-09T14:23:00",30
"PDS2014","MI","PDS2014-0005",235,NA,NA,NA,"MIEXAM","Microscopic Examination",NA,"NORMAL","NORMAL",NA,NA,NA,NA,"GLAND, PARATHYROID",NA,NA,NA,NA,NA,NA,"PATHOLOGIST",NA,NA,"2011-01-09T14:23:00",30
"PDS2014","MI","PDS2014-0005",236,NA,NA,NA,"MIEXAM","Microscopic Examination",NA,"NORMAL","NORMAL",NA,NA,NA,NA,"NERVE, SCIATIC",NA,NA,NA,NA,NA,NA,"PATHOLOGIST",NA,NA,"2011-01-09T14:23:00",30
"PDS2014","MI","PDS2014-0005",237,NA,NA,NA,"MIEXAM","Microscopic Examination",NA,"Mineralization, focal, grade 1","Mineralization","NON-NEOPLASTIC",NA,NA,NA,"PEYER'S PATCH",NA,NA,NA,NA,NA,NA,"PATHOLOGIST","MILD",NA,"2011-01-09T14:23:00",30
"PDS2014","MI","PDS2014-0005",238,NA,NA,NA,"MIEXAM","Microscopic Examination",NA,"NORMAL","NORMAL",NA,NA,NA,NA,"GLAND, PITUITARY",NA,NA,NA,NA,NA,NA,"PATHOLOGIST",NA,NA,"2011-01-09T14:23:00",30
"PDS2014","MI","PDS2014-0005",239,NA,NA,NA,"MIEXAM","Microscopic Examination",NA,"NORMAL","NORMAL",NA,NA,NA,NA,"GLAND, PROSTATE",NA,NA,NA,NA,NA,NA,"PATHOLOGIST",NA,NA,"2011-01-09T14:23:00",30
"PDS2014","MI","PDS2014-0005",240,NA,NA,NA,"MIEXAM","Microscopic Examination",NA,"NORMAL","NORMAL",NA,NA,NA,NA,"GLAND, SALIVARY, SUBLINGUAL",NA,NA,NA,NA,NA,NA,"PATHOLOGIST",NA,NA,"2011-01-09T14:23:00",30
"PDS2014","MI","PDS2014-0005",241,NA,NA,NA,"MIEXAM","Microscopic Examination",NA,"NORMAL","NORMAL",NA,NA,NA,NA,"GLAND, SALIVARY, SUBMANDIBULAR",NA,NA,NA,NA,NA,NA,"PATHOLOGIST",NA,NA,"2011-01-09T14:23:00",30
"PDS2014","MI","PDS2014-0005",242,NA,NA,NA,"MIEXAM","Microscopic Examination",NA,"NORMAL","NORMAL",NA,NA,NA,NA,"GLAND, SALIVARY, PAROTID",NA,NA,NA,NA,NA,NA,"PATHOLOGIST",NA,NA,"2011-01-09T14:23:00",30
"PDS2014","MI","PDS2014-0005",243,NA,NA,NA,"MIEXAM","Microscopic Examination",NA,"NORMAL","NORMAL",NA,NA,NA,NA,"GLAND, SEMINAL VESICLE",NA,NA,NA,NA,NA,NA,"PATHOLOGIST",NA,NA,"2011-01-09T14:23:00",30
"PDS2014","MI","PDS2014-0005",244,NA,NA,NA,"MIEXAM","Microscopic Examination",NA,"NORMAL","NORMAL",NA,NA,NA,NA,"MUSCLE, QUADRICEPS FEMORIS",NA,NA,NA,NA,NA,NA,"PATHOLOGIST",NA,NA,"2011-01-09T14:23:00",30
"PDS2014","MI","PDS2014-0005",245,NA,NA,NA,"MIEXAM","Microscopic Examination",NA,"NORMAL","NORMAL",NA,NA,NA,NA,"SKIN",NA,NA,NA,NA,NA,NA,"PATHOLOGIST",NA,NA,"2011-01-09T14:23:00",30
"PDS2014","MI","PDS2014-0005",246,NA,NA,NA,"MIEXAM","Microscopic Examination",NA,"NORMAL","NORMAL",NA,NA,NA,NA,"SMALL INTESTINE, DUODENUM",NA,NA,NA,NA,NA,NA,"PATHOLOGIST",NA,NA,"2011-01-09T14:23:00",30
"PDS2014","MI","PDS2014-0005",247,NA,NA,NA,"MIEXAM","Microscopic Examination",NA,"NORMAL","NORMAL",NA,NA,NA,NA,"SMALL INTESTINE, ILEUM",NA,NA,NA,NA,NA,NA,"PATHOLOGIST",NA,NA,"2011-01-09T14:23:00",30
"PDS2014","MI","PDS2014-0005",248,NA,NA,NA,"MIEXAM","Microscopic Examination",NA,"NORMAL","NORMAL",NA,NA,NA,NA,"SMALL INTESTINE, JEJUNUM",NA,NA,NA,NA,NA,NA,"PATHOLOGIST",NA,NA,"2011-01-09T14:23:00",30
"PDS2014","MI","PDS2014-0005",249,NA,NA,NA,"MIEXAM","Microscopic Examination",NA,"NORMAL","NORMAL",NA,NA,NA,NA,"SPINAL CORD, CERVICAL",NA,NA,NA,NA,NA,NA,"PATHOLOGIST",NA,NA,"2011-01-09T14:23:00",30
"PDS2014","MI","PDS2014-0005",250,NA,NA,NA,"MIEXAM","Microscopic Examination",NA,"NORMAL","NORMAL",NA,NA,NA,NA,"SPINAL CORD, LUMBAR",NA,NA,NA,NA,NA,NA,"PATHOLOGIST",NA,NA,"2011-01-09T14:23:00",30
"PDS2014","MI","PDS2014-0005",251,NA,NA,NA,"MIEXAM","Microscopic Examination",NA,"NORMAL","NORMAL",NA,NA,NA,NA,"SPINAL CORD, THORACIC",NA,NA,NA,NA,NA,NA,"PATHOLOGIST",NA,NA,"2011-01-09T14:23:00",30
"PDS2014","MI","PDS2014-0005",252,NA,NA,NA,"MIEXAM","Microscopic Examination",NA,"NORMAL","NORMAL",NA,NA,NA,NA,"SPLEEN",NA,NA,NA,NA,NA,NA,"PATHOLOGIST",NA,NA,"2011-01-09T14:23:00",30
"PDS2014","MI","PDS2014-0005",253,NA,NA,NA,"MIEXAM","Microscopic Examination",NA,"NORMAL","NORMAL",NA,NA,NA,NA,"STOMACH",NA,NA,NA,NA,NA,NA,"PATHOLOGIST",NA,NA,"2011-01-09T14:23:00",30
"PDS2014","MI","PDS2014-0005",254,NA,NA,NA,"MIEXAM","Microscopic Examination",NA,"NORMAL","NORMAL",NA,NA,NA,NA,"TESTIS",NA,NA,NA,NA,NA,NA,"PATHOLOGIST",NA,NA,"2011-01-09T14:23:00",30
"PDS2014","MI","PDS2014-0005",255,NA,NA,NA,"MIEXAM","Microscopic Examination",NA,"NORMAL","NORMAL",NA,NA,NA,NA,"THYMUS",NA,NA,NA,NA,NA,NA,"PATHOLOGIST",NA,NA,"2011-01-09T14:23:00",30
"PDS2014","MI","PDS2014-0005",256,NA,NA,NA,"MIEXAM","Microscopic Examination",NA,"NORMAL","NORMAL",NA,NA,NA,NA,"GLAND, THYROID",NA,NA,NA,NA,NA,NA,"PATHOLOGIST",NA,NA,"2011-01-09T14:23:00",30
"PDS2014","MI","PDS2014-0005",257,NA,NA,NA,"MIEXAM","Microscopic Examination",NA,"NORMAL","NORMAL",NA,NA,NA,NA,"TONGUE",NA,NA,NA,NA,NA,NA,"PATHOLOGIST",NA,NA,"2011-01-09T14:23:00",30
"PDS2014","MI","PDS2014-0005",258,NA,NA,NA,"MIEXAM","Microscopic Examination",NA,"NORMAL","NORMAL",NA,NA,NA,NA,"TRACHEA",NA,NA,NA,NA,NA,NA,"PATHOLOGIST",NA,NA,"2011-01-09T14:23:00",30
"PDS2014","MI","PDS2014-0005",259,NA,NA,NA,"MIEXAM","Microscopic Examination",NA,"NORMAL","NORMAL",NA,NA,NA,NA,"URETER",NA,NA,NA,NA,NA,NA,"PATHOLOGIST",NA,NA,"2011-01-09T14:23:00",30
"PDS2014","MI","PDS2014-0005",260,NA,NA,NA,"MIEXAM","Microscopic Examination",NA,"NORMAL","NORMAL",NA,NA,NA,NA,"URINARY BLADDER",NA,NA,NA,NA,NA,NA,"PATHOLOGIST",NA,NA,"2011-01-09T14:23:00",30
"PDS2014","MI","PDS2014-0006",261,NA,NA,NA,"MIEXAM","Microscopic Examination",NA,"Vacuolization, cortex, diffuse, grade 1","Vacuolization","NON-NEOPLASTIC",NA,NA,NA,"GLAND, ADRENAL",NA,NA,NA,NA,"BILATERAL",NA,"PATHOLOGIST","MILD",NA,"2011-01-10T10:30:00",31
"PDS2014","MI","PDS2014-0006",262,NA,NA,NA,"MIEXAM","Microscopic Examination",NA,"NORMAL","NORMAL",NA,NA,NA,NA,"ARTERY, AORTA",NA,NA,NA,NA,NA,NA,"PATHOLOGIST",NA,NA,"2011-01-10T10:30:00",31
"PDS2014","MI","PDS2014-0006",263,NA,NA,NA,"MIEXAM","Microscopic Examination",NA,"Fat vacuoles, diffuse, grade 2","Fat vacuoles","NON-NEOPLASTIC",NA,NA,NA,"BONE MARROW, FEMUR",NA,NA,NA,NA,NA,NA,"PATHOLOGIST","MODERATE",NA,"2011-01-10T10:30:00",31
"PDS2014","MI","PDS2014-0006",264,NA,NA,NA,"MIEXAM","Microscopic Examination",NA,"NORMAL","NORMAL",NA,NA,NA,NA,"BONE MARROW, STERNUM",NA,NA,NA,NA,NA,NA,"PATHOLOGIST",NA,NA,"2011-01-10T10:30:00",31
"PDS2014","MI","PDS2014-0006",265,NA,NA,NA,"MIEXAM","Microscopic Examination",NA,"NORMAL","NORMAL",NA,NA,NA,NA,"BONE, STERNUM",NA,NA,NA,NA,NA,NA,"PATHOLOGIST",NA,NA,"2011-01-10T10:30:00",31
"PDS2014","MI","PDS2014-0006",266,NA,NA,NA,"MIEXAM","Microscopic Examination",NA,"NORMAL","NORMAL",NA,NA,NA,NA,"JOINT, STIFLE",NA,NA,NA,NA,NA,NA,"PATHOLOGIST",NA,NA,"2011-01-10T10:30:00",31
"PDS2014","MI","PDS2014-0006",267,NA,NA,NA,"MIEXAM","Microscopic Examination",NA,"NORMAL","NORMAL",NA,NA,NA,NA,"BRAIN",NA,NA,NA,NA,NA,NA,"PATHOLOGIST",NA,NA,"2011-01-10T10:30:00",31
"PDS2014","MI","PDS2014-0006",268,NA,NA,NA,"MIEXAM","Microscopic Examination",NA,"NORMAL","NORMAL",NA,NA,NA,NA,"GLAND, COAGULATING",NA,NA,NA,NA,NA,NA,"PATHOLOGIST",NA,NA,"2011-01-10T10:30:00",31
"PDS2014","MI","PDS2014-0006",269,NA,NA,NA,"MIEXAM","Microscopic Examination",NA,"NORMAL","NORMAL",NA,NA,NA,NA,"EPIDIDYMIS",NA,NA,NA,NA,NA,NA,"PATHOLOGIST",NA,NA,"2011-01-10T10:30:00",31
"PDS2014","MI","PDS2014-0006",270,NA,NA,NA,"MIEXAM","Microscopic Examination",NA,"NORMAL","NORMAL",NA,NA,NA,NA,"ESOPHAGUS",NA,NA,NA,NA,NA,NA,"PATHOLOGIST",NA,NA,"2011-01-10T10:30:00",31
"PDS2014","MI","PDS2014-0006",271,NA,NA,NA,"MIEXAM","Microscopic Examination",NA,"NORMAL","NORMAL",NA,NA,NA,NA,"EYE",NA,NA,NA,NA,NA,NA,"PATHOLOGIST",NA,NA,"2011-01-10T10:30:00",31
"PDS2014","MI","PDS2014-0006",272,NA,NA,NA,"MIEXAM","Microscopic Examination",NA,"NORMAL","NORMAL",NA,NA,NA,NA,"GLAND, HARDERIAN",NA,NA,NA,NA,NA,NA,"PATHOLOGIST",NA,NA,"2011-01-10T10:30:00",31
"PDS2014","MI","PDS2014-0006",273,NA,NA,NA,"MIEXAM","Microscopic Examination",NA,"Inflammation chronic, myocardium, focal, left ventricle, grade 1","Inflammation chronic","NON-NEOPLASTIC",NA,NA,NA,"HEART",NA,NA,NA,NA,NA,NA,"PATHOLOGIST","MILD",NA,"2011-01-10T10:30:00",31
"PDS2014","MI","PDS2014-0006",274,NA,NA,NA,"MIEXAM","Microscopic Examination",NA,"Basophilia tubule(s), cortex, focal/multifocal, grade 1","Basophilia tubule(s)","NON-NEOPLASTIC",NA,NA,NA,"KIDNEY",NA,NA,NA,NA,"UNILATERAL",NA,"PATHOLOGIST","MILD",NA,"2011-01-10T10:30:00",31
"PDS2014","MI","PDS2014-0006",275,NA,NA,NA,"MIEXAM","Microscopic Examination",NA,"NORMAL","NORMAL",NA,NA,NA,NA,"LARGE INTESTINE, COLON",NA,NA,NA,NA,NA,NA,"PATHOLOGIST",NA,NA,"2011-01-10T10:30:00",31
"PDS2014","MI","PDS2014-0006",276,NA,NA,NA,"MIEXAM","Microscopic Examination",NA,"NORMAL","NORMAL",NA,NA,NA,NA,"LARGE INTESTINE, RECTUM",NA,NA,NA,NA,NA,NA,"PATHOLOGIST",NA,NA,"2011-01-10T10:30:00",31
"PDS2014","MI","PDS2014-0006",277,NA,NA,NA,"MIEXAM","Microscopic Examination",NA,"NORMAL","NORMAL",NA,NA,NA,NA,"LARGE INTESTINE, CECUM",NA,NA,NA,NA,NA,NA,"PATHOLOGIST",NA,NA,"2011-01-10T10:30:00",31
"PDS2014","MI","PDS2014-0006",278,NA,NA,NA,"MIEXAM","Microscopic Examination",NA,"NORMAL","NORMAL",NA,NA,NA,NA,"LARYNX",NA,NA,NA,NA,NA,NA,"PATHOLOGIST",NA,NA,"2011-01-10T10:30:00",31
"PDS2014","MI","PDS2014-0006",279,NA,NA,NA,"MIEXAM","Microscopic Examination",NA,"MPS-aggregates multifocal, grade 1","MPS-aggregates multifocal","NON-NEOPLASTIC",NA,NA,NA,"LIVER",NA,NA,NA,NA,NA,NA,"PATHOLOGIST","MILD",NA,"2011-01-10T10:30:00",31
"PDS2014","MI","PDS2014-0006",280,NA,NA,NA,"MIEXAM","Microscopic Examination",NA,"NORMAL","NORMAL",NA,NA,NA,NA,"LUNG",NA,NA,NA,NA,NA,NA,"PATHOLOGIST",NA,NA,"2011-01-10T10:30:00",31
"PDS2014","MI","PDS2014-0006",281,NA,NA,NA,"MIEXAM","Microscopic Examination",NA,"NORMAL","NORMAL",NA,NA,NA,NA,"LYMPH NODE, MESENTERIC",NA,NA,NA,NA,NA,NA,"PATHOLOGIST",NA,NA,"2011-01-10T10:30:00",31
"PDS2014","MI","PDS2014-0006",282,NA,NA,NA,"MIEXAM","Microscopic Examination",NA,"NORMAL","NORMAL",NA,NA,NA,NA,"LYMPH NODE, POPLITEAL",NA,NA,NA,NA,NA,NA,"PATHOLOGIST",NA,NA,"2011-01-10T10:30:00",31
"PDS2014","MI","PDS2014-0006",283,NA,NA,NA,"MIEXAM","Microscopic Examination",NA,"NORMAL","NORMAL",NA,NA,NA,NA,"GLAND, MAMMARY",NA,NA,NA,NA,NA,NA,"PATHOLOGIST",NA,NA,"2011-01-10T10:30:00",31
"PDS2014","MI","PDS2014-0006",284,NA,NA,NA,"MIEXAM","Microscopic Examination",NA,"NORMAL","NORMAL",NA,NA,NA,NA,"NERVE, OPTIC",NA,NA,NA,NA,NA,NA,"PATHOLOGIST",NA,NA,"2011-01-10T10:30:00",31
"PDS2014","MI","PDS2014-0006",285,NA,NA,NA,"MIEXAM","Microscopic Examination",NA,"NORMAL","NORMAL",NA,NA,NA,NA,"PANCREAS",NA,NA,NA,NA,NA,NA,"PATHOLOGIST",NA,NA,"2011-01-10T10:30:00",31
"PDS2014","MI","PDS2014-0006",286,NA,NA,NA,"MIEXAM","Microscopic Examination",NA,"NORMAL","NORMAL",NA,NA,NA,NA,"GLAND, PARATHYROID",NA,NA,NA,NA,NA,NA,"PATHOLOGIST",NA,NA,"2011-01-10T10:30:00",31
"PDS2014","MI","PDS2014-0006",287,NA,NA,NA,"MIEXAM","Microscopic Examination",NA,"NORMAL","NORMAL",NA,NA,NA,NA,"NERVE, SCIATIC",NA,NA,NA,NA,NA,NA,"PATHOLOGIST",NA,NA,"2011-01-10T10:30:00",31
"PDS2014","MI","PDS2014-0006",288,NA,NA,NA,"MIEXAM","Microscopic Examination",NA,"Mineralization, multifocal, grade 1","Mineralization","NON-NEOPLASTIC",NA,NA,NA,"PEYER'S PATCH",NA,NA,NA,NA,NA,NA,"PATHOLOGIST","MILD",NA,"2011-01-10T10:30:00",31
"PDS2014","MI","PDS2014-0006",289,NA,NA,NA,"MIEXAM","Microscopic Examination",NA,"NORMAL","NORMAL",NA,NA,NA,NA,"GLAND, PITUITARY",NA,NA,NA,NA,NA,NA,"PATHOLOGIST",NA,NA,"2011-01-10T10:30:00",31
"PDS2014","MI","PDS2014-0006",290,NA,NA,NA,"MIEXAM","Microscopic Examination",NA,"Inflammation chronic, ventral, grade 2","Inflammation chronic","NON-NEOPLASTIC",NA,NA,NA,"GLAND, PROSTATE",NA,NA,NA,NA,NA,NA,"PATHOLOGIST","MODERATE",NA,"2011-01-10T10:30:00",31
"PDS2014","MI","PDS2014-0006",291,NA,NA,NA,"MIEXAM","Microscopic Examination",NA,"NORMAL","NORMAL",NA,NA,NA,NA,"GLAND, SALIVARY, SUBLINGUAL",NA,NA,NA,NA,NA,NA,"PATHOLOGIST",NA,NA,"2011-01-10T10:30:00",31
"PDS2014","MI","PDS2014-0006",292,NA,NA,NA,"MIEXAM","Microscopic Examination",NA,"NORMAL","NORMAL",NA,NA,NA,NA,"GLAND, SALIVARY, SUBMANDIBULAR",NA,NA,NA,NA,NA,NA,"PATHOLOGIST",NA,NA,"2011-01-10T10:30:00",31
"PDS2014","MI","PDS2014-0006",293,NA,NA,NA,"MIEXAM","Microscopic Examination",NA,"NORMAL","NORMAL",NA,NA,NA,NA,"GLAND, SALIVARY, PAROTID",NA,NA,NA,NA,NA,NA,"PATHOLOGIST",NA,NA,"2011-01-10T10:30:00",31
"PDS2014","MI","PDS2014-0006",294,NA,NA,NA,"MIEXAM","Microscopic Examination",NA,"NORMAL","NORMAL",NA,NA,NA,NA,"GLAND, SEMINAL VESICLE",NA,NA,NA,NA,NA,NA,"PATHOLOGIST",NA,NA,"2011-01-10T10:30:00",31
"PDS2014","MI","PDS2014-0006",295,NA,NA,NA,"MIEXAM","Microscopic Examination",NA,"NORMAL","NORMAL",NA,NA,NA,NA,"MUSCLE, QUADRICEPS FEMORIS",NA,NA,NA,NA,NA,NA,"PATHOLOGIST",NA,NA,"2011-01-10T10:30:00",31
"PDS2014","MI","PDS2014-0006",296,NA,NA,NA,"MIEXAM","Microscopic Examination",NA,"NORMAL","NORMAL",NA,NA,NA,NA,"SKIN",NA,NA,NA,NA,NA,NA,"PATHOLOGIST",NA,NA,"2011-01-10T10:30:00",31
"PDS2014","MI","PDS2014-0006",297,NA,NA,NA,"MIEXAM","Microscopic Examination",NA,"NORMAL","NORMAL",NA,NA,NA,NA,"SMALL INTESTINE, DUODENUM",NA,NA,NA,NA,NA,NA,"PATHOLOGIST",NA,NA,"2011-01-10T10:30:00",31
"PDS2014","MI","PDS2014-0006",298,NA,NA,NA,"MIEXAM","Microscopic Examination",NA,"NORMAL","NORMAL",NA,NA,NA,NA,"SMALL INTESTINE, ILEUM",NA,NA,NA,NA,NA,NA,"PATHOLOGIST",NA,NA,"2011-01-10T10:30:00",31
"PDS2014","MI","PDS2014-0006",299,NA,NA,NA,"MIEXAM","Microscopic Examination",NA,"NORMAL","NORMAL",NA,NA,NA,NA,"SMALL INTESTINE, JEJUNUM",NA,NA,NA,NA,NA,NA,"PATHOLOGIST",NA,NA,"2011-01-10T10:30:00",31
"PDS2014","MI","PDS2014-0006",300,NA,NA,NA,"MIEXAM","Microscopic Examination",NA,"NORMAL","NORMAL",NA,NA,NA,NA,"SPINAL CORD, CERVICAL",NA,NA,NA,NA,NA,NA,"PATHOLOGIST",NA,NA,"2011-01-10T10:30:00",31
"PDS2014","MI","PDS2014-0006",301,NA,NA,NA,"MIEXAM","Microscopic Examination",NA,"NORMAL","NORMAL",NA,NA,NA,NA,"SPINAL CORD, LUMBAR",NA,NA,NA,NA,NA,NA,"PATHOLOGIST",NA,NA,"2011-01-10T10:30:00",31
"PDS2014","MI","PDS2014-0006",302,NA,NA,NA,"MIEXAM","Microscopic Examination",NA,"NORMAL","NORMAL",NA,NA,NA,NA,"SPINAL CORD, THORACIC",NA,NA,NA,NA,NA,NA,"PATHOLOGIST",NA,NA,"2011-01-10T10:30:00",31
"PDS2014","MI","PDS2014-0006",303,NA,NA,NA,"MIEXAM","Microscopic Examination",NA,"NORMAL","NORMAL",NA,NA,NA,NA,"SPLEEN",NA,NA,NA,NA,NA,NA,"PATHOLOGIST",NA,NA,"2011-01-10T10:30:00",31
"PDS2014","MI","PDS2014-0006",304,NA,NA,NA,"MIEXAM","Microscopic Examination",NA,"NORMAL","NORMAL",NA,NA,NA,NA,"STOMACH",NA,NA,NA,NA,NA,NA,"PATHOLOGIST",NA,NA,"2011-01-10T10:30:00",31
"PDS2014","MI","PDS2014-0006",305,NA,NA,NA,"MIEXAM","Microscopic Examination",NA,"Inflammation-skin, focal, necrotizing, grade 2","Inflammation-skin","NON-NEOPLASTIC",NA,NA,NA,"SUBCUTIS",NA,NA,NA,NA,NA,NA,"PATHOLOGIST","MODERATE",NA,"2011-01-10T10:30:00",31
"PDS2014","MI","PDS2014-0006",306,NA,NA,NA,"MIEXAM","Microscopic Examination",NA,"NORMAL","NORMAL",NA,NA,NA,NA,"TESTIS",NA,NA,NA,NA,NA,NA,"PATHOLOGIST",NA,NA,"2011-01-10T10:30:00",31
"PDS2014","MI","PDS2014-0006",307,NA,NA,NA,"MIEXAM","Microscopic Examination",NA,"NORMAL","NORMAL",NA,NA,NA,NA,"THYMUS",NA,NA,NA,NA,NA,NA,"PATHOLOGIST",NA,NA,"2011-01-10T10:30:00",31
"PDS2014","MI","PDS2014-0006",308,NA,NA,NA,"MIEXAM","Microscopic Examination",NA,"NORMAL","NORMAL",NA,NA,NA,NA,"GLAND, THYROID",NA,NA,NA,NA,NA,NA,"PATHOLOGIST",NA,NA,"2011-01-10T10:30:00",31
"PDS2014","MI","PDS2014-0006",309,NA,NA,NA,"MIEXAM","Microscopic Examination",NA,"NORMAL","NORMAL",NA,NA,NA,NA,"TONGUE",NA,NA,NA,NA,NA,NA,"PATHOLOGIST",NA,NA,"2011-01-10T10:30:00",31
"PDS2014","MI","PDS2014-0006",310,NA,NA,NA,"MIEXAM","Microscopic Examination",NA,"NORMAL","NORMAL",NA,NA,NA,NA,"TRACHEA",NA,NA,NA,NA,NA,NA,"PATHOLOGIST",NA,NA,"2011-01-10T10:30:00",31
"PDS2014","MI","PDS2014-0006",311,NA,NA,NA,"MIEXAM","Microscopic Examination",NA,"NORMAL","NORMAL",NA,NA,NA,NA,"URETER",NA,NA,NA,NA,NA,NA,"PATHOLOGIST",NA,NA,"2011-01-10T10:30:00",31
"PDS2014","MI","PDS2014-0006",312,NA,NA,NA,"MIEXAM","Microscopic Examination",NA,"NORMAL","NORMAL",NA,NA,NA,NA,"URINARY BLADDER",NA,NA,NA,NA,NA,NA,"PATHOLOGIST",NA,NA,"2011-01-10T10:30:00",31
"PDS2014","MI","PDS2014-0007",313,NA,NA,NA,"MIEXAM","Microscopic Examination",NA,"NORMAL","NORMAL",NA,NA,NA,NA,"GLAND, ADRENAL",NA,NA,NA,NA,NA,NA,"PATHOLOGIST",NA,NA,"2011-01-10T13:46:00",31
"PDS2014","MI","PDS2014-0007",314,NA,NA,NA,"MIEXAM","Microscopic Examination",NA,"NORMAL","NORMAL",NA,NA,NA,NA,"ARTERY, AORTA",NA,NA,NA,NA,NA,NA,"PATHOLOGIST",NA,NA,"2011-01-10T13:46:00",31
"PDS2014","MI","PDS2014-0007",315,NA,NA,NA,"MIEXAM","Microscopic Examination",NA,"Fat vacuoles, diffuse, grade 1","Fat vacuoles","NON-NEOPLASTIC",NA,NA,NA,"BONE MARROW, FEMUR",NA,NA,NA,NA,NA,NA,"PATHOLOGIST","MILD",NA,"2011-01-10T13:46:00",31
"PDS2014","MI","PDS2014-0007",316,NA,NA,NA,"MIEXAM","Microscopic Examination",NA,"NORMAL","NORMAL",NA,NA,NA,NA,"BONE MARROW, STERNUM",NA,NA,NA,NA,NA,NA,"PATHOLOGIST",NA,NA,"2011-01-10T13:46:00",31
"PDS2014","MI","PDS2014-0007",317,NA,NA,NA,"MIEXAM","Microscopic Examination",NA,"NORMAL","NORMAL",NA,NA,NA,NA,"BONE, STERNUM",NA,NA,NA,NA,NA,NA,"PATHOLOGIST",NA,NA,"2011-01-10T13:46:00",31
"PDS2014","MI","PDS2014-0007",318,NA,NA,NA,"MIEXAM","Microscopic Examination",NA,"NORMAL","NORMAL",NA,NA,NA,NA,"JOINT, STIFLE",NA,NA,NA,NA,NA,NA,"PATHOLOGIST",NA,NA,"2011-01-10T13:46:00",31
"PDS2014","MI","PDS2014-0007",319,NA,NA,NA,"MIEXAM","Microscopic Examination",NA,"NORMAL","NORMAL",NA,NA,NA,NA,"BRAIN",NA,NA,NA,NA,NA,NA,"PATHOLOGIST",NA,NA,"2011-01-10T13:46:00",31
"PDS2014","MI","PDS2014-0007",320,NA,NA,NA,"MIEXAM","Microscopic Examination",NA,"NORMAL","NORMAL",NA,NA,NA,NA,"GLAND, COAGULATING",NA,NA,NA,NA,NA,NA,"PATHOLOGIST",NA,NA,"2011-01-10T13:46:00",31
"PDS2014","MI","PDS2014-0007",321,NA,NA,NA,"MIEXAM","Microscopic Examination",NA,"NORMAL","NORMAL",NA,NA,NA,NA,"EPIDIDYMIS",NA,NA,NA,NA,NA,NA,"PATHOLOGIST",NA,NA,"2011-01-10T13:46:00",31
"PDS2014","MI","PDS2014-0007",322,NA,NA,NA,"MIEXAM","Microscopic Examination",NA,"NORMAL","NORMAL",NA,NA,NA,NA,"ESOPHAGUS",NA,NA,NA,NA,NA,NA,"PATHOLOGIST",NA,NA,"2011-01-10T13:46:00",31
"PDS2014","MI","PDS2014-0007",323,NA,NA,NA,"MIEXAM","Microscopic Examination",NA,"NORMAL","NORMAL",NA,NA,NA,NA,"EYE",NA,NA,NA,NA,NA,NA,"PATHOLOGIST",NA,NA,"2011-01-10T13:46:00",31
"PDS2014","MI","PDS2014-0007",324,NA,NA,NA,"MIEXAM","Microscopic Examination",NA,"NORMAL","NORMAL",NA,NA,NA,NA,"GLAND, HARDERIAN",NA,NA,NA,NA,NA,NA,"PATHOLOGIST",NA,NA,"2011-01-10T13:46:00",31
"PDS2014","MI","PDS2014-0007",325,NA,NA,NA,"MIEXAM","Microscopic Examination",NA,"NORMAL","NORMAL",NA,NA,NA,NA,"HEART",NA,NA,NA,NA,NA,NA,"PATHOLOGIST",NA,NA,"2011-01-10T13:46:00",31
"PDS2014","MI","PDS2014-0007",326,NA,NA,NA,"MIEXAM","Microscopic Examination",NA,"Basophilia tubule(s), cortex, focal/multifocal, grade 1","Basophilia tubule(s)","NON-NEOPLASTIC",NA,NA,NA,"KIDNEY",NA,NA,NA,NA,"BILATERAL",NA,"PATHOLOGIST","MILD",NA,"2011-01-10T13:46:00",31
"PDS2014","MI","PDS2014-0007",327,NA,NA,NA,"MIEXAM","Microscopic Examination",NA,"NORMAL","NORMAL",NA,NA,NA,NA,"LARGE INTESTINE, COLON",NA,NA,NA,NA,NA,NA,"PATHOLOGIST",NA,NA,"2011-01-10T13:46:00",31
"PDS2014","MI","PDS2014-0007",328,NA,NA,NA,"MIEXAM","Microscopic Examination",NA,"NORMAL","NORMAL",NA,NA,NA,NA,"LARGE INTESTINE, RECTUM",NA,NA,NA,NA,NA,NA,"PATHOLOGIST",NA,NA,"2011-01-10T13:46:00",31
"PDS2014","MI","PDS2014-0007",329,NA,NA,NA,"MIEXAM","Microscopic Examination",NA,"NORMAL","NORMAL",NA,NA,NA,NA,"LARGE INTESTINE, CECUM",NA,NA,NA,NA,NA,NA,"PATHOLOGIST",NA,NA,"2011-01-10T13:46:00",31
"PDS2014","MI","PDS2014-0007",330,NA,NA,NA,"MIEXAM","Microscopic Examination",NA,"NORMAL","NORMAL",NA,NA,NA,NA,"LARYNX",NA,NA,NA,NA,NA,NA,"PATHOLOGIST",NA,NA,"2011-01-10T13:46:00",31
"PDS2014","MI","PDS2014-0007",331,NA,NA,NA,"MIEXAM","Microscopic Examination",NA,"MPS-aggregates multifocal, grade 1","MPS-aggregates multifocal","NON-NEOPLASTIC",NA,NA,NA,"LIVER",NA,NA,NA,NA,NA,NA,"PATHOLOGIST","MILD",NA,"2011-01-10T13:46:00",31
"PDS2014","MI","PDS2014-0007",332,NA,NA,NA,"MIEXAM","Microscopic Examination",NA,"Infiltration granulocytic, perivascular, focal, grade 1","Infiltration granulocytic","NON-NEOPLASTIC",NA,NA,NA,"LUNG",NA,NA,NA,NA,NA,NA,"PATHOLOGIST","MILD",NA,"2011-01-10T13:46:00",31
"PDS2014","MI","PDS2014-0007",333,NA,NA,NA,"MIEXAM","Microscopic Examination",NA,"NORMAL","NORMAL",NA,NA,NA,NA,"LYMPH NODE, MESENTERIC",NA,NA,NA,NA,NA,NA,"PATHOLOGIST",NA,NA,"2011-01-10T13:46:00",31
"PDS2014","MI","PDS2014-0007",334,NA,NA,NA,"MIEXAM","Microscopic Examination",NA,"NORMAL","NORMAL",NA,NA,NA,NA,"LYMPH NODE, POPLITEAL",NA,NA,NA,NA,NA,NA,"PATHOLOGIST",NA,NA,"2011-01-10T13:46:00",31
"PDS2014","MI","PDS2014-0007",335,NA,NA,NA,"MIEXAM","Microscopic Examination",NA,"NORMAL","NORMAL",NA,NA,NA,NA,"GLAND, MAMMARY",NA,NA,NA,NA,NA,NA,"PATHOLOGIST",NA,NA,"2011-01-10T13:46:00",31
"PDS2014","MI","PDS2014-0007",336,NA,NA,NA,"MIEXAM","Microscopic Examination",NA,"NORMAL","NORMAL",NA,NA,NA,NA,"NERVE, OPTIC",NA,NA,NA,NA,NA,NA,"PATHOLOGIST",NA,NA,"2011-01-10T13:46:00",31
"PDS2014","MI","PDS2014-0007",337,NA,NA,NA,"MIEXAM","Microscopic Examination",NA,"NORMAL","NORMAL",NA,NA,NA,NA,"PANCREAS",NA,NA,NA,NA,NA,NA,"PATHOLOGIST",NA,NA,"2011-01-10T13:46:00",31
"PDS2014","MI","PDS2014-0007",338,NA,NA,NA,"MIEXAM","Microscopic Examination",NA,"NORMAL","NORMAL",NA,NA,NA,NA,"GLAND, PARATHYROID",NA,NA,NA,NA,NA,NA,"PATHOLOGIST",NA,NA,"2011-01-10T13:46:00",31
"PDS2014","MI","PDS2014-0007",339,NA,NA,NA,"MIEXAM","Microscopic Examination",NA,"NORMAL","NORMAL",NA,NA,NA,NA,"NERVE, SCIATIC",NA,NA,NA,NA,NA,NA,"PATHOLOGIST",NA,NA,"2011-01-10T13:46:00",31
"PDS2014","MI","PDS2014-0007",340,NA,NA,NA,"MIEXAM","Microscopic Examination",NA,"Mineralization, focal, grade 1","Mineralization","NON-NEOPLASTIC",NA,NA,NA,"PEYER'S PATCH",NA,NA,NA,NA,NA,NA,"PATHOLOGIST","MILD",NA,"2011-01-10T13:46:00",31
"PDS2014","MI","PDS2014-0007",341,NA,NA,NA,"MIEXAM","Microscopic Examination",NA,"NORMAL","NORMAL",NA,NA,NA,NA,"GLAND, PITUITARY",NA,NA,NA,NA,NA,NA,"PATHOLOGIST",NA,NA,"2011-01-10T13:46:00",31
"PDS2014","MI","PDS2014-0007",342,NA,NA,NA,"MIEXAM","Microscopic Examination",NA,"Inflammation acute, dorsolateral, focal, grade 1","Inflammation acute","NON-NEOPLASTIC",NA,NA,NA,"GLAND, PROSTATE",NA,NA,NA,NA,NA,NA,"PATHOLOGIST","MILD",NA,"2011-01-10T13:46:00",31
"PDS2014","MI","PDS2014-0007",343,NA,NA,NA,"MIEXAM","Microscopic Examination",NA,"Inflammation chronic, ventral, focal, grade 1","Inflammation chronic","NON-NEOPLASTIC",NA,NA,NA,"GLAND, PROSTATE",NA,NA,NA,NA,NA,NA,"PATHOLOGIST","MILD",NA,"2011-01-10T13:46:00",31
"PDS2014","MI","PDS2014-0007",344,NA,NA,NA,"MIEXAM","Microscopic Examination",NA,"NORMAL","NORMAL",NA,NA,NA,NA,"GLAND, SALIVARY, SUBLINGUAL",NA,NA,NA,NA,NA,NA,"PATHOLOGIST",NA,NA,"2011-01-10T13:46:00",31
"PDS2014","MI","PDS2014-0007",345,NA,NA,NA,"MIEXAM","Microscopic Examination",NA,"NORMAL","NORMAL",NA,NA,NA,NA,"GLAND, SALIVARY, SUBMANDIBULAR",NA,NA,NA,NA,NA,NA,"PATHOLOGIST",NA,NA,"2011-01-10T13:46:00",31
"PDS2014","MI","PDS2014-0007",346,NA,NA,NA,"MIEXAM","Microscopic Examination",NA,"NORMAL","NORMAL",NA,NA,NA,NA,"GLAND, SALIVARY, PAROTID",NA,NA,NA,NA,NA,NA,"PATHOLOGIST",NA,NA,"2011-01-10T13:46:00",31
"PDS2014","MI","PDS2014-0007",347,NA,NA,NA,"MIEXAM","Microscopic Examination",NA,"NORMAL","NORMAL",NA,NA,NA,NA,"GLAND, SEMINAL VESICLE",NA,NA,NA,NA,NA,NA,"PATHOLOGIST",NA,NA,"2011-01-10T13:46:00",31
"PDS2014","MI","PDS2014-0007",348,NA,NA,NA,"MIEXAM","Microscopic Examination",NA,"NORMAL","NORMAL",NA,NA,NA,NA,"MUSCLE, QUADRICEPS FEMORIS",NA,NA,NA,NA,NA,NA,"PATHOLOGIST",NA,NA,"2011-01-10T13:46:00",31
"PDS2014","MI","PDS2014-0007",349,NA,NA,NA,"MIEXAM","Microscopic Examination",NA,"NORMAL","NORMAL",NA,NA,NA,NA,"SKIN",NA,NA,NA,NA,NA,NA,"PATHOLOGIST",NA,NA,"2011-01-10T13:46:00",31
"PDS2014","MI","PDS2014-0007",350,NA,NA,NA,"MIEXAM","Microscopic Examination",NA,"NORMAL","NORMAL",NA,NA,NA,NA,"SMALL INTESTINE, DUODENUM",NA,NA,NA,NA,NA,NA,"PATHOLOGIST",NA,NA,"2011-01-10T13:46:00",31
"PDS2014","MI","PDS2014-0007",351,NA,NA,NA,"MIEXAM","Microscopic Examination",NA,"NORMAL","NORMAL",NA,NA,NA,NA,"SMALL INTESTINE, ILEUM",NA,NA,NA,NA,NA,NA,"PATHOLOGIST",NA,NA,"2011-01-10T13:46:00",31
"PDS2014","MI","PDS2014-0007",352,NA,NA,NA,"MIEXAM","Microscopic Examination",NA,"NORMAL","NORMAL",NA,NA,NA,NA,"SMALL INTESTINE, JEJUNUM",NA,NA,NA,NA,NA,NA,"PATHOLOGIST",NA,NA,"2011-01-10T13:46:00",31
"PDS2014","MI","PDS2014-0007",353,NA,NA,NA,"MIEXAM","Microscopic Examination",NA,"NORMAL","NORMAL",NA,NA,NA,NA,"SPINAL CORD, CERVICAL",NA,NA,NA,NA,NA,NA,"PATHOLOGIST",NA,NA,"2011-01-10T13:46:00",31
"PDS2014","MI","PDS2014-0007",354,NA,NA,NA,"MIEXAM","Microscopic Examination",NA,"NORMAL","NORMAL",NA,NA,NA,NA,"SPINAL CORD, LUMBAR",NA,NA,NA,NA,NA,NA,"PATHOLOGIST",NA,NA,"2011-01-10T13:46:00",31
"PDS2014","MI","PDS2014-0007",355,NA,NA,NA,"MIEXAM","Microscopic Examination",NA,"NORMAL","NORMAL",NA,NA,NA,NA,"SPINAL CORD, THORACIC",NA,NA,NA,NA,NA,NA,"PATHOLOGIST",NA,NA,"2011-01-10T13:46:00",31
"PDS2014","MI","PDS2014-0007",356,NA,NA,NA,"MIEXAM","Microscopic Examination",NA,"Congestion, red pulp, diffuse, grade 1","Congestion","NON-NEOPLASTIC",NA,NA,NA,"SPLEEN",NA,NA,NA,NA,NA,NA,"PATHOLOGIST","MILD",NA,"2011-01-10T13:46:00",31
"PDS2014","MI","PDS2014-0007",357,NA,NA,NA,"MIEXAM","Microscopic Examination",NA,"NORMAL","NORMAL",NA,NA,NA,NA,"STOMACH",NA,NA,NA,NA,NA,NA,"PATHOLOGIST",NA,NA,"2011-01-10T13:46:00",31
"PDS2014","MI","PDS2014-0007",358,NA,NA,NA,"MIEXAM","Microscopic Examination",NA,"NORMAL","NORMAL",NA,NA,NA,NA,"TESTIS",NA,NA,NA,NA,NA,NA,"PATHOLOGIST",NA,NA,"2011-01-10T13:46:00",31
"PDS2014","MI","PDS2014-0007",359,NA,NA,NA,"MIEXAM","Microscopic Examination",NA,"NORMAL","NORMAL",NA,NA,NA,NA,"THYMUS",NA,NA,NA,NA,NA,NA,"PATHOLOGIST",NA,NA,"2011-01-10T13:46:00",31
"PDS2014","MI","PDS2014-0007",360,NA,NA,NA,"MIEXAM","Microscopic Examination",NA,"NORMAL","NORMAL",NA,NA,NA,NA,"GLAND, THYROID",NA,NA,NA,NA,NA,NA,"PATHOLOGIST",NA,NA,"2011-01-10T13:46:00",31
"PDS2014","MI","PDS2014-0007",361,NA,NA,NA,"MIEXAM","Microscopic Examination",NA,"NORMAL","NORMAL",NA,NA,NA,NA,"TONGUE",NA,NA,NA,NA,NA,NA,"PATHOLOGIST",NA,NA,"2011-01-10T13:46:00",31
"PDS2014","MI","PDS2014-0007",362,NA,NA,NA,"MIEXAM","Microscopic Examination",NA,"NORMAL","NORMAL",NA,NA,NA,NA,"TRACHEA",NA,NA,NA,NA,NA,NA,"PATHOLOGIST",NA,NA,"2011-01-10T13:46:00",31
"PDS2014","MI","PDS2014-0007",363,NA,NA,NA,"MIEXAM","Microscopic Examination",NA,"NORMAL","NORMAL",NA,NA,NA,NA,"URETER",NA,NA,NA,NA,NA,NA,"PATHOLOGIST",NA,NA,"2011-01-10T13:46:00",31
"PDS2014","MI","PDS2014-0007",364,NA,NA,NA,"MIEXAM","Microscopic Examination",NA,"NORMAL","NORMAL",NA,NA,NA,NA,"URINARY BLADDER",NA,NA,NA,NA,NA,NA,"PATHOLOGIST",NA,NA,"2011-01-10T13:46:00",31
"PDS2014","MI","PDS2014-0008",365,NA,NA,NA,"MIEXAM","Microscopic Examination",NA,"NORMAL","NORMAL",NA,NA,NA,NA,"GLAND, ADRENAL",NA,NA,NA,NA,NA,NA,"PATHOLOGIST",NA,NA,"2011-01-10T10:28:00",31
"PDS2014","MI","PDS2014-0008",366,NA,NA,NA,"MIEXAM","Microscopic Examination",NA,"NORMAL","NORMAL",NA,NA,NA,NA,"ARTERY, AORTA",NA,NA,NA,NA,NA,NA,"PATHOLOGIST",NA,NA,"2011-01-10T10:28:00",31
"PDS2014","MI","PDS2014-0008",367,NA,NA,NA,"MIEXAM","Microscopic Examination",NA,"Fat vacuoles, diffuse, grade 1","Fat vacuoles","NON-NEOPLASTIC",NA,NA,NA,"BONE MARROW, FEMUR",NA,NA,NA,NA,NA,NA,"PATHOLOGIST","MILD",NA,"2011-01-10T10:28:00",31
"PDS2014","MI","PDS2014-0008",368,NA,NA,NA,"MIEXAM","Microscopic Examination",NA,"NORMAL","NORMAL",NA,NA,NA,NA,"BONE MARROW, STERNUM",NA,NA,NA,NA,NA,NA,"PATHOLOGIST",NA,NA,"2011-01-10T10:28:00",31
"PDS2014","MI","PDS2014-0008",369,NA,NA,NA,"MIEXAM","Microscopic Examination",NA,"NORMAL","NORMAL",NA,NA,NA,NA,"BONE, STERNUM",NA,NA,NA,NA,NA,NA,"PATHOLOGIST",NA,NA,"2011-01-10T10:28:00",31
"PDS2014","MI","PDS2014-0008",370,NA,NA,NA,"MIEXAM","Microscopic Examination",NA,"NORMAL","NORMAL",NA,NA,NA,NA,"JOINT, STIFLE",NA,NA,NA,NA,NA,NA,"PATHOLOGIST",NA,NA,"2011-01-10T10:28:00",31
"PDS2014","MI","PDS2014-0008",371,NA,NA,NA,"MIEXAM","Microscopic Examination",NA,"NORMAL","NORMAL",NA,NA,NA,NA,"BRAIN",NA,NA,NA,NA,NA,NA,"PATHOLOGIST",NA,NA,"2011-01-10T10:28:00",31
"PDS2014","MI","PDS2014-0008",372,NA,NA,NA,"MIEXAM","Microscopic Examination",NA,"NORMAL","NORMAL",NA,NA,NA,NA,"GLAND, COAGULATING",NA,NA,NA,NA,NA,NA,"PATHOLOGIST",NA,NA,"2011-01-10T10:28:00",31
"PDS2014","MI","PDS2014-0008",373,NA,NA,NA,"MIEXAM","Microscopic Examination",NA,"NORMAL","NORMAL",NA,NA,NA,NA,"EPIDIDYMIS",NA,NA,NA,NA,NA,NA,"PATHOLOGIST",NA,NA,"2011-01-10T10:28:00",31
"PDS2014","MI","PDS2014-0008",374,NA,NA,NA,"MIEXAM","Microscopic Examination",NA,"NORMAL","NORMAL",NA,NA,NA,NA,"ESOPHAGUS",NA,NA,NA,NA,NA,NA,"PATHOLOGIST",NA,NA,"2011-01-10T10:28:00",31
"PDS2014","MI","PDS2014-0008",375,NA,NA,NA,"MIEXAM","Microscopic Examination",NA,"NORMAL","NORMAL",NA,NA,NA,NA,"EYE",NA,NA,NA,NA,NA,NA,"PATHOLOGIST",NA,NA,"2011-01-10T10:28:00",31
"PDS2014","MI","PDS2014-0008",376,NA,NA,NA,"MIEXAM","Microscopic Examination",NA,"NORMAL","NORMAL",NA,NA,NA,NA,"GLAND, HARDERIAN",NA,NA,NA,NA,NA,NA,"PATHOLOGIST",NA,NA,"2011-01-10T10:28:00",31
"PDS2014","MI","PDS2014-0008",377,NA,NA,NA,"MIEXAM","Microscopic Examination",NA,"Inflammation chronic, myocardium, focal, left ventricle, grade 1","Inflammation chronic","NON-NEOPLASTIC",NA,NA,NA,"HEART",NA,NA,NA,NA,NA,NA,"PATHOLOGIST","MILD",NA,"2011-01-10T10:28:00",31
"PDS2014","MI","PDS2014-0008",378,NA,NA,NA,"MIEXAM","Microscopic Examination",NA,"Basophilia tubule(s), cortex, focal/multifocal, grade 1","Basophilia tubule(s)","NON-NEOPLASTIC",NA,NA,NA,"KIDNEY",NA,NA,NA,NA,"UNILATERAL",NA,"PATHOLOGIST","MILD",NA,"2011-01-10T10:28:00",31
"PDS2014","MI","PDS2014-0008",379,NA,NA,NA,"MIEXAM","Microscopic Examination",NA,"NORMAL","NORMAL",NA,NA,NA,NA,"LARGE INTESTINE, COLON",NA,NA,NA,NA,NA,NA,"PATHOLOGIST",NA,NA,"2011-01-10T10:28:00",31
"PDS2014","MI","PDS2014-0008",380,NA,NA,NA,"MIEXAM","Microscopic Examination",NA,"NORMAL","NORMAL",NA,NA,NA,NA,"LARGE INTESTINE, RECTUM",NA,NA,NA,NA,NA,NA,"PATHOLOGIST",NA,NA,"2011-01-10T10:28:00",31
"PDS2014","MI","PDS2014-0008",381,NA,NA,NA,"MIEXAM","Microscopic Examination",NA,"NORMAL","NORMAL",NA,NA,NA,NA,"LARGE INTESTINE, CECUM",NA,NA,NA,NA,NA,NA,"PATHOLOGIST",NA,NA,"2011-01-10T10:28:00",31
"PDS2014","MI","PDS2014-0008",382,NA,NA,NA,"MIEXAM","Microscopic Examination",NA,"NORMAL","NORMAL",NA,NA,NA,NA,"LARYNX",NA,NA,NA,NA,NA,NA,"PATHOLOGIST",NA,NA,"2011-01-10T10:28:00",31
"PDS2014","MI","PDS2014-0008",383,NA,NA,NA,"MIEXAM","Microscopic Examination",NA,"NORMAL","NORMAL",NA,NA,NA,NA,"LIVER",NA,NA,NA,NA,NA,NA,"PATHOLOGIST",NA,NA,"2011-01-10T10:28:00",31
"PDS2014","MI","PDS2014-0008",384,NA,NA,NA,"MIEXAM","Microscopic Examination",NA,"NORMAL","NORMAL",NA,NA,NA,NA,"LUNG",NA,NA,NA,NA,NA,NA,"PATHOLOGIST",NA,NA,"2011-01-10T10:28:00",31
"PDS2014","MI","PDS2014-0008",385,NA,NA,NA,"MIEXAM","Microscopic Examination",NA,"NORMAL","NORMAL",NA,NA,NA,NA,"LYMPH NODE, MESENTERIC",NA,NA,NA,NA,NA,NA,"PATHOLOGIST",NA,NA,"2011-01-10T10:28:00",31
"PDS2014","MI","PDS2014-0008",386,NA,NA,NA,"MIEXAM","Microscopic Examination",NA,"NORMAL","NORMAL",NA,NA,NA,NA,"LYMPH NODE, POPLITEAL",NA,NA,NA,NA,NA,NA,"PATHOLOGIST",NA,NA,"2011-01-10T10:28:00",31
"PDS2014","MI","PDS2014-0008",387,NA,NA,NA,"MIEXAM","Microscopic Examination",NA,"NORMAL","NORMAL",NA,NA,NA,NA,"GLAND, MAMMARY",NA,NA,NA,NA,NA,NA,"PATHOLOGIST",NA,NA,"2011-01-10T10:28:00",31
"PDS2014","MI","PDS2014-0008",388,NA,NA,NA,"MIEXAM","Microscopic Examination",NA,"NORMAL","NORMAL",NA,NA,NA,NA,"NERVE, OPTIC",NA,NA,NA,NA,NA,NA,"PATHOLOGIST",NA,NA,"2011-01-10T10:28:00",31
"PDS2014","MI","PDS2014-0008",389,NA,NA,NA,"MIEXAM","Microscopic Examination",NA,"NORMAL","NORMAL",NA,NA,NA,NA,"PANCREAS",NA,NA,NA,NA,NA,NA,"PATHOLOGIST",NA,NA,"2011-01-10T10:28:00",31
"PDS2014","MI","PDS2014-0008",390,NA,NA,NA,"MIEXAM","Microscopic Examination",NA,"NORMAL","NORMAL",NA,NA,NA,NA,"GLAND, PARATHYROID",NA,NA,NA,NA,NA,NA,"PATHOLOGIST",NA,NA,"2011-01-10T10:28:00",31
"PDS2014","MI","PDS2014-0008",391,NA,NA,NA,"MIEXAM","Microscopic Examination",NA,"NORMAL","NORMAL",NA,NA,NA,NA,"NERVE, SCIATIC",NA,NA,NA,NA,NA,NA,"PATHOLOGIST",NA,NA,"2011-01-10T10:28:00",31
"PDS2014","MI","PDS2014-0008",392,NA,NA,NA,"MIEXAM","Microscopic Examination",NA,"NORMAL","NORMAL",NA,NA,NA,NA,"PEYER'S PATCH",NA,NA,NA,NA,NA,NA,"PATHOLOGIST",NA,NA,"2011-01-10T10:28:00",31
"PDS2014","MI","PDS2014-0008",393,NA,NA,NA,"MIEXAM","Microscopic Examination",NA,"NORMAL","NORMAL",NA,NA,NA,NA,"GLAND, PITUITARY",NA,NA,NA,NA,NA,NA,"PATHOLOGIST",NA,NA,"2011-01-10T10:28:00",31
"PDS2014","MI","PDS2014-0008",394,NA,NA,NA,"MIEXAM","Microscopic Examination",NA,"NORMAL","NORMAL",NA,NA,NA,NA,"GLAND, PROSTATE",NA,NA,NA,NA,NA,NA,"PATHOLOGIST",NA,NA,"2011-01-10T10:28:00",31
"PDS2014","MI","PDS2014-0008",395,NA,NA,NA,"MIEXAM","Microscopic Examination",NA,"NORMAL","NORMAL",NA,NA,NA,NA,"GLAND, SALIVARY, SUBLINGUAL",NA,NA,NA,NA,NA,NA,"PATHOLOGIST",NA,NA,"2011-01-10T10:28:00",31
"PDS2014","MI","PDS2014-0008",396,NA,NA,NA,"MIEXAM","Microscopic Examination",NA,"NORMAL","NORMAL",NA,NA,NA,NA,"GLAND, SALIVARY, SUBMANDIBULAR",NA,NA,NA,NA,NA,NA,"PATHOLOGIST",NA,NA,"2011-01-10T10:28:00",31
"PDS2014","MI","PDS2014-0008",397,NA,NA,NA,"MIEXAM","Microscopic Examination",NA,"NORMAL","NORMAL",NA,NA,NA,NA,"GLAND, SALIVARY, PAROTID",NA,NA,NA,NA,NA,NA,"PATHOLOGIST",NA,NA,"2011-01-10T10:28:00",31
"PDS2014","MI","PDS2014-0008",398,NA,NA,NA,"MIEXAM","Microscopic Examination",NA,"NORMAL","NORMAL",NA,NA,NA,NA,"GLAND, SEMINAL VESICLE",NA,NA,NA,NA,NA,NA,"PATHOLOGIST",NA,NA,"2011-01-10T10:28:00",31
"PDS2014","MI","PDS2014-0008",399,NA,NA,NA,"MIEXAM","Microscopic Examination",NA,"NORMAL","NORMAL",NA,NA,NA,NA,"MUSCLE, QUADRICEPS FEMORIS",NA,NA,NA,NA,NA,NA,"PATHOLOGIST",NA,NA,"2011-01-10T10:28:00",31
"PDS2014","MI","PDS2014-0008",400,NA,NA,NA,"MIEXAM","Microscopic Examination",NA,"NORMAL","NORMAL",NA,NA,NA,NA,"SKIN",NA,NA,NA,NA,NA,NA,"PATHOLOGIST",NA,NA,"2011-01-10T10:28:00",31
"PDS2014","MI","PDS2014-0008",401,NA,NA,NA,"MIEXAM","Microscopic Examination",NA,"NORMAL","NORMAL",NA,NA,NA,NA,"SMALL INTESTINE, DUODENUM",NA,NA,NA,NA,NA,NA,"PATHOLOGIST",NA,NA,"2011-01-10T10:28:00",31
"PDS2014","MI","PDS2014-0008",402,NA,NA,NA,"MIEXAM","Microscopic Examination",NA,"NORMAL","NORMAL",NA,NA,NA,NA,"SMALL INTESTINE, ILEUM",NA,NA,NA,NA,NA,NA,"PATHOLOGIST",NA,NA,"2011-01-10T10:28:00",31
"PDS2014","MI","PDS2014-0008",403,NA,NA,NA,"MIEXAM","Microscopic Examination",NA,"NORMAL","NORMAL",NA,NA,NA,NA,"SMALL INTESTINE, JEJUNUM",NA,NA,NA,NA,NA,NA,"PATHOLOGIST",NA,NA,"2011-01-10T10:28:00",31
"PDS2014","MI","PDS2014-0008",404,NA,NA,NA,"MIEXAM","Microscopic Examination",NA,"NORMAL","NORMAL",NA,NA,NA,NA,"SPINAL CORD, CERVICAL",NA,NA,NA,NA,NA,NA,"PATHOLOGIST",NA,NA,"2011-01-10T10:28:00",31
"PDS2014","MI","PDS2014-0008",405,NA,NA,NA,"MIEXAM","Microscopic Examination",NA,"NORMAL","NORMAL",NA,NA,NA,NA,"SPINAL CORD, LUMBAR",NA,NA,NA,NA,NA,NA,"PATHOLOGIST",NA,NA,"2011-01-10T10:28:00",31
"PDS2014","MI","PDS2014-0008",406,NA,NA,NA,"MIEXAM","Microscopic Examination",NA,"NORMAL","NORMAL",NA,NA,NA,NA,"SPINAL CORD, THORACIC",NA,NA,NA,NA,NA,NA,"PATHOLOGIST",NA,NA,"2011-01-10T10:28:00",31
"PDS2014","MI","PDS2014-0008",407,NA,NA,NA,"MIEXAM","Microscopic Examination",NA,"NORMAL","NORMAL",NA,NA,NA,NA,"SPLEEN",NA,NA,NA,NA,NA,NA,"PATHOLOGIST",NA,NA,"2011-01-10T10:28:00",31
"PDS2014","MI","PDS2014-0008",408,NA,NA,NA,"MIEXAM","Microscopic Examination",NA,"NORMAL","NORMAL",NA,NA,NA,NA,"STOMACH",NA,NA,NA,NA,NA,NA,"PATHOLOGIST",NA,NA,"2011-01-10T10:28:00",31
"PDS2014","MI","PDS2014-0008",409,NA,NA,NA,"MIEXAM","Microscopic Examination",NA,"Hemorrhage, focal, + inflammatory infiltrate + congestion, grade 2","Hemorrhage","NON-NEOPLASTIC",NA,NA,NA,"SUBCUTIS",NA,NA,NA,NA,NA,NA,"PATHOLOGIST","MODERATE",NA,"2011-01-10T10:28:00",31
"PDS2014","MI","PDS2014-0008",410,NA,NA,NA,"MIEXAM","Microscopic Examination",NA,"NORMAL","NORMAL",NA,NA,NA,NA,"TESTIS",NA,NA,NA,NA,NA,NA,"PATHOLOGIST",NA,NA,"2011-01-10T10:28:00",31
"PDS2014","MI","PDS2014-0008",411,NA,NA,NA,"MIEXAM","Microscopic Examination",NA,"NORMAL","NORMAL",NA,NA,NA,NA,"THYMUS",NA,NA,NA,NA,NA,NA,"PATHOLOGIST",NA,NA,"2011-01-10T10:28:00",31
"PDS2014","MI","PDS2014-0008",412,NA,NA,NA,"MIEXAM","Microscopic Examination",NA,"Ectopic lymphoid tissue, focal, grade 1","Ectopic lymphoid tissue","NON-NEOPLASTIC",NA,NA,NA,"GLAND, THYROID",NA,NA,NA,NA,"BILATERAL",NA,"PATHOLOGIST","MILD",NA,"2011-01-10T10:28:00",31
"PDS2014","MI","PDS2014-0008",413,NA,NA,NA,"MIEXAM","Microscopic Examination",NA,"NORMAL","NORMAL",NA,NA,NA,NA,"TONGUE",NA,NA,NA,NA,NA,NA,"PATHOLOGIST",NA,NA,"2011-01-10T10:28:00",31
"PDS2014","MI","PDS2014-0008",414,NA,NA,NA,"MIEXAM","Microscopic Examination",NA,"NORMAL","NORMAL",NA,NA,NA,NA,"TRACHEA",NA,NA,NA,NA,NA,NA,"PATHOLOGIST",NA,NA,"2011-01-10T10:28:00",31
"PDS2014","MI","PDS2014-0008",415,NA,NA,NA,"MIEXAM","Microscopic Examination",NA,"NORMAL","NORMAL",NA,NA,NA,NA,"URETER",NA,NA,NA,NA,NA,NA,"PATHOLOGIST",NA,NA,"2011-01-10T10:28:00",31
"PDS2014","MI","PDS2014-0008",416,NA,NA,NA,"MIEXAM","Microscopic Examination",NA,"NORMAL","NORMAL",NA,NA,NA,NA,"URINARY BLADDER",NA,NA,NA,NA,NA,NA,"PATHOLOGIST",NA,NA,"2011-01-10T10:28:00",31
"PDS2014","MI","PDS2014-0009",417,NA,NA,NA,"MIEXAM","Microscopic Examination",NA,"NORMAL","NORMAL",NA,NA,NA,NA,"GLAND, ADRENAL",NA,NA,NA,NA,NA,NA,"PATHOLOGIST",NA,NA,"2011-01-10T13:47:00",31
"PDS2014","MI","PDS2014-0009",418,NA,NA,NA,"MIEXAM","Microscopic Examination",NA,"NORMAL","NORMAL",NA,NA,NA,NA,"ARTERY, AORTA",NA,NA,NA,NA,NA,NA,"PATHOLOGIST",NA,NA,"2011-01-10T13:47:00",31
"PDS2014","MI","PDS2014-0009",419,NA,NA,NA,"MIEXAM","Microscopic Examination",NA,"Fat vacuoles, diffuse, grade 1","Fat vacuoles","NON-NEOPLASTIC",NA,NA,NA,"BONE MARROW, FEMUR",NA,NA,NA,NA,NA,NA,"PATHOLOGIST","MILD",NA,"2011-01-10T13:47:00",31
"PDS2014","MI","PDS2014-0009",420,NA,NA,NA,"MIEXAM","Microscopic Examination",NA,"NORMAL","NORMAL",NA,NA,NA,NA,"BONE MARROW, STERNUM",NA,NA,NA,NA,NA,NA,"PATHOLOGIST",NA,NA,"2011-01-10T13:47:00",31
"PDS2014","MI","PDS2014-0009",421,NA,NA,NA,"MIEXAM","Microscopic Examination",NA,"NORMAL","NORMAL",NA,NA,NA,NA,"BONE, STERNUM",NA,NA,NA,NA,NA,NA,"PATHOLOGIST",NA,NA,"2011-01-10T13:47:00",31
"PDS2014","MI","PDS2014-0009",422,NA,NA,NA,"MIEXAM","Microscopic Examination",NA,"NORMAL","NORMAL",NA,NA,NA,NA,"JOINT, STIFLE",NA,NA,NA,NA,NA,NA,"PATHOLOGIST",NA,NA,"2011-01-10T13:47:00",31
"PDS2014","MI","PDS2014-0009",423,NA,NA,NA,"MIEXAM","Microscopic Examination",NA,"NORMAL","NORMAL",NA,NA,NA,NA,"BRAIN",NA,NA,NA,NA,NA,NA,"PATHOLOGIST",NA,NA,"2011-01-10T13:47:00",31
"PDS2014","MI","PDS2014-0009",424,NA,NA,NA,"MIEXAM","Microscopic Examination",NA,"NORMAL","NORMAL",NA,NA,NA,NA,"GLAND, COAGULATING",NA,NA,NA,NA,NA,NA,"PATHOLOGIST",NA,NA,"2011-01-10T13:47:00",31
"PDS2014","MI","PDS2014-0009",425,NA,NA,NA,"MIEXAM","Microscopic Examination",NA,"NORMAL","NORMAL",NA,NA,NA,NA,"EPIDIDYMIS",NA,NA,NA,NA,NA,NA,"PATHOLOGIST",NA,NA,"2011-01-10T13:47:00",31
"PDS2014","MI","PDS2014-0009",426,NA,NA,NA,"MIEXAM","Microscopic Examination",NA,"NORMAL","NORMAL",NA,NA,NA,NA,"ESOPHAGUS",NA,NA,NA,NA,NA,NA,"PATHOLOGIST",NA,NA,"2011-01-10T13:47:00",31
"PDS2014","MI","PDS2014-0009",427,NA,NA,NA,"MIEXAM","Microscopic Examination",NA,"NORMAL","NORMAL",NA,NA,NA,NA,"EYE",NA,NA,NA,NA,NA,NA,"PATHOLOGIST",NA,NA,"2011-01-10T13:47:00",31
"PDS2014","MI","PDS2014-0009",428,NA,NA,NA,"MIEXAM","Microscopic Examination",NA,"NORMAL","NORMAL",NA,NA,NA,NA,"GLAND, HARDERIAN",NA,NA,NA,NA,NA,NA,"PATHOLOGIST",NA,NA,"2011-01-10T13:47:00",31
"PDS2014","MI","PDS2014-0009",429,NA,NA,NA,"MIEXAM","Microscopic Examination",NA,"NORMAL","NORMAL",NA,NA,NA,NA,"HEART",NA,NA,NA,NA,NA,NA,"PATHOLOGIST",NA,NA,"2011-01-10T13:47:00",31
"PDS2014","MI","PDS2014-0009",430,NA,NA,NA,"MIEXAM","Microscopic Examination",NA,"Basophilia tubule(s), cortex, focal/multifocal, grade 1","Basophilia tubule(s)","NON-NEOPLASTIC",NA,NA,NA,"KIDNEY",NA,NA,NA,NA,"UNILATERAL",NA,"PATHOLOGIST","MILD",NA,"2011-01-10T13:47:00",31
"PDS2014","MI","PDS2014-0009",431,NA,NA,NA,"MIEXAM","Microscopic Examination",NA,"NORMAL","NORMAL",NA,NA,NA,NA,"LARGE INTESTINE, COLON",NA,NA,NA,NA,NA,NA,"PATHOLOGIST",NA,NA,"2011-01-10T13:47:00",31
"PDS2014","MI","PDS2014-0009",432,NA,NA,NA,"MIEXAM","Microscopic Examination",NA,"NORMAL","NORMAL",NA,NA,NA,NA,"LARGE INTESTINE, RECTUM",NA,NA,NA,NA,NA,NA,"PATHOLOGIST",NA,NA,"2011-01-10T13:47:00",31
"PDS2014","MI","PDS2014-0009",433,NA,NA,NA,"MIEXAM","Microscopic Examination",NA,"NORMAL","NORMAL",NA,NA,NA,NA,"LARGE INTESTINE, CECUM",NA,NA,NA,NA,NA,NA,"PATHOLOGIST",NA,NA,"2011-01-10T13:47:00",31
"PDS2014","MI","PDS2014-0009",434,NA,NA,NA,"MIEXAM","Microscopic Examination",NA,"NORMAL","NORMAL",NA,NA,NA,NA,"LARYNX",NA,NA,NA,NA,NA,NA,"PATHOLOGIST",NA,NA,"2011-01-10T13:47:00",31
"PDS2014","MI","PDS2014-0009",435,NA,NA,NA,"MIEXAM","Microscopic Examination",NA,"NORMAL","NORMAL",NA,NA,NA,NA,"LIVER",NA,NA,NA,NA,NA,NA,"PATHOLOGIST",NA,NA,"2011-01-10T13:47:00",31
"PDS2014","MI","PDS2014-0009",436,NA,NA,NA,"MIEXAM","Microscopic Examination",NA,"Macrophages intra-alveolar focal/multifocal, foamy, grade 2","Macrophages intra-alveolar focal/multifocal","NON-NEOPLASTIC",NA,NA,NA,"LUNG",NA,NA,NA,NA,NA,NA,"PATHOLOGIST","MODERATE",NA,"2011-01-10T13:47:00",31
"PDS2014","MI","PDS2014-0009",437,NA,NA,NA,"MIEXAM","Microscopic Examination",NA,"NORMAL","NORMAL",NA,NA,NA,NA,"LYMPH NODE, MESENTERIC",NA,NA,NA,NA,NA,NA,"PATHOLOGIST",NA,NA,"2011-01-10T13:47:00",31
"PDS2014","MI","PDS2014-0009",438,NA,NA,NA,"MIEXAM","Microscopic Examination",NA,"NORMAL","NORMAL",NA,NA,NA,NA,"LYMPH NODE, POPLITEAL",NA,NA,NA,NA,NA,NA,"PATHOLOGIST",NA,NA,"2011-01-10T13:47:00",31
"PDS2014","MI","PDS2014-0009",439,NA,NA,NA,"MIEXAM","Microscopic Examination",NA,"NORMAL","NORMAL",NA,NA,NA,NA,"GLAND, MAMMARY",NA,NA,NA,NA,NA,NA,"PATHOLOGIST",NA,NA,"2011-01-10T13:47:00",31
"PDS2014","MI","PDS2014-0009",440,NA,NA,NA,"MIEXAM","Microscopic Examination",NA,"NORMAL","NORMAL",NA,NA,NA,NA,"NERVE, OPTIC",NA,NA,NA,NA,NA,NA,"PATHOLOGIST",NA,NA,"2011-01-10T13:47:00",31
"PDS2014","MI","PDS2014-0009",441,NA,NA,NA,"MIEXAM","Microscopic Examination",NA,"NORMAL","NORMAL",NA,NA,NA,NA,"PANCREAS",NA,NA,NA,NA,NA,NA,"PATHOLOGIST",NA,NA,"2011-01-10T13:47:00",31
"PDS2014","MI","PDS2014-0009",442,NA,NA,NA,"MIEXAM","Microscopic Examination",NA,"NORMAL","NORMAL",NA,NA,NA,NA,"GLAND, PARATHYROID",NA,NA,NA,NA,NA,NA,"PATHOLOGIST",NA,NA,"2011-01-10T13:47:00",31
"PDS2014","MI","PDS2014-0009",443,NA,NA,NA,"MIEXAM","Microscopic Examination",NA,"NORMAL","NORMAL",NA,NA,NA,NA,"NERVE, SCIATIC",NA,NA,NA,NA,NA,NA,"PATHOLOGIST",NA,NA,"2011-01-10T13:47:00",31
"PDS2014","MI","PDS2014-0009",444,NA,NA,NA,"MIEXAM","Microscopic Examination",NA,"NORMAL","NORMAL",NA,NA,NA,NA,"PEYER'S PATCH",NA,NA,NA,NA,NA,NA,"PATHOLOGIST",NA,NA,"2011-01-10T13:47:00",31
"PDS2014","MI","PDS2014-0009",445,NA,NA,NA,"MIEXAM","Microscopic Examination",NA,"NORMAL","NORMAL",NA,NA,NA,NA,"GLAND, PITUITARY",NA,NA,NA,NA,NA,NA,"PATHOLOGIST",NA,NA,"2011-01-10T13:47:00",31
"PDS2014","MI","PDS2014-0009",446,NA,NA,NA,"MIEXAM","Microscopic Examination",NA,"Inflammation chronic, ventral, grade 1","Inflammation chronic","NON-NEOPLASTIC",NA,NA,NA,"GLAND, PROSTATE",NA,NA,NA,NA,NA,NA,"PATHOLOGIST","MILD",NA,"2011-01-10T13:47:00",31
"PDS2014","MI","PDS2014-0009",447,NA,NA,NA,"MIEXAM","Microscopic Examination",NA,"NORMAL","NORMAL",NA,NA,NA,NA,"GLAND, SALIVARY, SUBLINGUAL",NA,NA,NA,NA,NA,NA,"PATHOLOGIST",NA,NA,"2011-01-10T13:47:00",31
"PDS2014","MI","PDS2014-0009",448,NA,NA,NA,"MIEXAM","Microscopic Examination",NA,"NORMAL","NORMAL",NA,NA,NA,NA,"GLAND, SALIVARY, SUBMANDIBULAR",NA,NA,NA,NA,NA,NA,"PATHOLOGIST",NA,NA,"2011-01-10T13:47:00",31
"PDS2014","MI","PDS2014-0009",449,NA,NA,NA,"MIEXAM","Microscopic Examination",NA,"NORMAL","NORMAL",NA,NA,NA,NA,"GLAND, SALIVARY, PAROTID",NA,NA,NA,NA,NA,NA,"PATHOLOGIST",NA,NA,"2011-01-10T13:47:00",31
"PDS2014","MI","PDS2014-0009",450,NA,NA,NA,"MIEXAM","Microscopic Examination",NA,"NORMAL","NORMAL",NA,NA,NA,NA,"GLAND, SEMINAL VESICLE",NA,NA,NA,NA,NA,NA,"PATHOLOGIST",NA,NA,"2011-01-10T13:47:00",31
"PDS2014","MI","PDS2014-0009",451,NA,NA,NA,"MIEXAM","Microscopic Examination",NA,"NORMAL","NORMAL",NA,NA,NA,NA,"MUSCLE, QUADRICEPS FEMORIS",NA,NA,NA,NA,NA,NA,"PATHOLOGIST",NA,NA,"2011-01-10T13:47:00",31
"PDS2014","MI","PDS2014-0009",452,NA,NA,NA,"MIEXAM","Microscopic Examination",NA,"NORMAL","NORMAL",NA,NA,NA,NA,"SKIN",NA,NA,NA,NA,NA,NA,"PATHOLOGIST",NA,NA,"2011-01-10T13:47:00",31
"PDS2014","MI","PDS2014-0009",453,NA,NA,NA,"MIEXAM","Microscopic Examination",NA,"NORMAL","NORMAL",NA,NA,NA,NA,"SMALL INTESTINE, DUODENUM",NA,NA,NA,NA,NA,NA,"PATHOLOGIST",NA,NA,"2011-01-10T13:47:00",31
"PDS2014","MI","PDS2014-0009",454,NA,NA,NA,"MIEXAM","Microscopic Examination",NA,"NORMAL","NORMAL",NA,NA,NA,NA,"SMALL INTESTINE, ILEUM",NA,NA,NA,NA,NA,NA,"PATHOLOGIST",NA,NA,"2011-01-10T13:47:00",31
"PDS2014","MI","PDS2014-0009",455,NA,NA,NA,"MIEXAM","Microscopic Examination",NA,"NORMAL","NORMAL",NA,NA,NA,NA,"SMALL INTESTINE, JEJUNUM",NA,NA,NA,NA,NA,NA,"PATHOLOGIST",NA,NA,"2011-01-10T13:47:00",31
"PDS2014","MI","PDS2014-0009",456,NA,NA,NA,"MIEXAM","Microscopic Examination",NA,"NORMAL","NORMAL",NA,NA,NA,NA,"SPINAL CORD, CERVICAL",NA,NA,NA,NA,NA,NA,"PATHOLOGIST",NA,NA,"2011-01-10T13:47:00",31
"PDS2014","MI","PDS2014-0009",457,NA,NA,NA,"MIEXAM","Microscopic Examination",NA,NA,NA,NA,"NOT DONE","Tissue not present for histologic examination",NA,"SPINAL CORD, LUMBAR",NA,NA,NA,NA,NA,NA,"PATHOLOGIST",NA,NA,"2011-01-10T13:47:00",31
"PDS2014","MI","PDS2014-0009",458,NA,NA,NA,"MIEXAM","Microscopic Examination",NA,"NORMAL","NORMAL",NA,NA,NA,NA,"SPINAL CORD, THORACIC",NA,NA,NA,NA,NA,NA,"PATHOLOGIST",NA,NA,"2011-01-10T13:47:00",31
"PDS2014","MI","PDS2014-0009",459,NA,NA,NA,"MIEXAM","Microscopic Examination",NA,"Congestion, red pulp, diffuse, grade 1","Congestion","NON-NEOPLASTIC",NA,NA,NA,"SPLEEN",NA,NA,NA,NA,NA,NA,"PATHOLOGIST","MILD",NA,"2011-01-10T13:47:00",31
"PDS2014","MI","PDS2014-0009",460,NA,NA,NA,"MIEXAM","Microscopic Examination",NA,"Pigmentation, red pulp, diffuse, grade 1","Pigmentation","NON-NEOPLASTIC",NA,NA,NA,"SPLEEN",NA,NA,NA,NA,NA,NA,"PATHOLOGIST","MILD",NA,"2011-01-10T13:47:00",31
"PDS2014","MI","PDS2014-0009",461,NA,NA,NA,"MIEXAM","Microscopic Examination",NA,"NORMAL","NORMAL",NA,NA,NA,NA,"STOMACH",NA,NA,NA,NA,NA,NA,"PATHOLOGIST",NA,NA,"2011-01-10T13:47:00",31
"PDS2014","MI","PDS2014-0009",462,NA,NA,NA,"MIEXAM","Microscopic Examination",NA,"NORMAL","NORMAL",NA,NA,NA,NA,"TESTIS",NA,NA,NA,NA,NA,NA,"PATHOLOGIST",NA,NA,"2011-01-10T13:47:00",31
"PDS2014","MI","PDS2014-0009",463,NA,NA,NA,"MIEXAM","Microscopic Examination",NA,"NORMAL","NORMAL",NA,NA,NA,NA,"THYMUS",NA,NA,NA,NA,NA,NA,"PATHOLOGIST",NA,NA,"2011-01-10T13:47:00",31
"PDS2014","MI","PDS2014-0009",464,NA,NA,NA,"MIEXAM","Microscopic Examination",NA,"NORMAL","NORMAL",NA,NA,NA,NA,"GLAND, THYROID",NA,NA,NA,NA,NA,NA,"PATHOLOGIST",NA,NA,"2011-01-10T13:47:00",31
"PDS2014","MI","PDS2014-0009",465,NA,NA,NA,"MIEXAM","Microscopic Examination",NA,"NORMAL","NORMAL",NA,NA,NA,NA,"TONGUE",NA,NA,NA,NA,NA,NA,"PATHOLOGIST",NA,NA,"2011-01-10T13:47:00",31
"PDS2014","MI","PDS2014-0009",466,NA,NA,NA,"MIEXAM","Microscopic Examination",NA,"Dilatation gland(s), grade 1","Dilatation gland(s)","NON-NEOPLASTIC",NA,NA,NA,"TRACHEA",NA,NA,NA,NA,NA,NA,"PATHOLOGIST","MILD",NA,"2011-01-10T13:47:00",31
"PDS2014","MI","PDS2014-0009",467,NA,NA,NA,"MIEXAM","Microscopic Examination",NA,"NORMAL","NORMAL",NA,NA,NA,NA,"URETER",NA,NA,NA,NA,NA,NA,"PATHOLOGIST",NA,NA,"2011-01-10T13:47:00",31
"PDS2014","MI","PDS2014-0009",468,NA,NA,NA,"MIEXAM","Microscopic Examination",NA,"NORMAL","NORMAL",NA,NA,NA,NA,"URINARY BLADDER",NA,NA,NA,NA,NA,NA,"PATHOLOGIST",NA,NA,"2011-01-10T13:47:00",31
"PDS2014","MI","PDS2014-0010",469,NA,NA,NA,"MIEXAM","Microscopic Examination",NA,"NORMAL","NORMAL",NA,NA,NA,NA,"GLAND, ADRENAL",NA,NA,NA,NA,NA,NA,"PATHOLOGIST",NA,NA,"2011-01-10T12:14:00",31
"PDS2014","MI","PDS2014-0010",470,NA,NA,NA,"MIEXAM","Microscopic Examination",NA,"NORMAL","NORMAL",NA,NA,NA,NA,"ARTERY, AORTA",NA,NA,NA,NA,NA,NA,"PATHOLOGIST",NA,NA,"2011-01-10T12:14:00",31
"PDS2014","MI","PDS2014-0010",471,NA,NA,NA,"MIEXAM","Microscopic Examination",NA,"Fat vacuoles, diffuse, grade 1","Fat vacuoles","NON-NEOPLASTIC",NA,NA,NA,"BONE MARROW, FEMUR",NA,NA,NA,NA,NA,NA,"PATHOLOGIST","MILD",NA,"2011-01-10T12:14:00",31
"PDS2014","MI","PDS2014-0010",472,NA,NA,NA,"MIEXAM","Microscopic Examination",NA,"NORMAL","NORMAL",NA,NA,NA,NA,"BONE MARROW, STERNUM",NA,NA,NA,NA,NA,NA,"PATHOLOGIST",NA,NA,"2011-01-10T12:14:00",31
"PDS2014","MI","PDS2014-0010",473,NA,NA,NA,"MIEXAM","Microscopic Examination",NA,"NORMAL","NORMAL",NA,NA,NA,NA,"BONE, STERNUM",NA,NA,NA,NA,NA,NA,"PATHOLOGIST",NA,NA,"2011-01-10T12:14:00",31
"PDS2014","MI","PDS2014-0010",474,NA,NA,NA,"MIEXAM","Microscopic Examination",NA,"NORMAL","NORMAL",NA,NA,NA,NA,"JOINT, STIFLE",NA,NA,NA,NA,NA,NA,"PATHOLOGIST",NA,NA,"2011-01-10T12:14:00",31
"PDS2014","MI","PDS2014-0010",475,NA,NA,NA,"MIEXAM","Microscopic Examination",NA,"NORMAL","NORMAL",NA,NA,NA,NA,"BRAIN",NA,NA,NA,NA,NA,NA,"PATHOLOGIST",NA,NA,"2011-01-10T12:14:00",31
"PDS2014","MI","PDS2014-0010",476,NA,NA,NA,"MIEXAM","Microscopic Examination",NA,"NORMAL","NORMAL",NA,NA,NA,NA,"GLAND, COAGULATING",NA,NA,NA,NA,NA,NA,"PATHOLOGIST",NA,NA,"2011-01-10T12:14:00",31
"PDS2014","MI","PDS2014-0010",477,NA,NA,NA,"MIEXAM","Microscopic Examination",NA,"NORMAL","NORMAL",NA,NA,NA,NA,"EPIDIDYMIS",NA,NA,NA,NA,NA,NA,"PATHOLOGIST",NA,NA,"2011-01-10T12:14:00",31
"PDS2014","MI","PDS2014-0010",478,NA,NA,NA,"MIEXAM","Microscopic Examination",NA,"NORMAL","NORMAL",NA,NA,NA,NA,"ESOPHAGUS",NA,NA,NA,NA,NA,NA,"PATHOLOGIST",NA,NA,"2011-01-10T12:14:00",31
"PDS2014","MI","PDS2014-0010",479,NA,NA,NA,"MIEXAM","Microscopic Examination",NA,"NORMAL","NORMAL",NA,NA,NA,NA,"EYE",NA,NA,NA,NA,NA,NA,"PATHOLOGIST",NA,NA,"2011-01-10T12:14:00",31
"PDS2014","MI","PDS2014-0010",480,NA,NA,NA,"MIEXAM","Microscopic Examination",NA,"NORMAL","NORMAL",NA,NA,NA,NA,"GLAND, HARDERIAN",NA,NA,NA,NA,NA,NA,"PATHOLOGIST",NA,NA,"2011-01-10T12:14:00",31
"PDS2014","MI","PDS2014-0010",481,NA,NA,NA,"MIEXAM","Microscopic Examination",NA,"NORMAL","NORMAL",NA,NA,NA,NA,"HEART",NA,NA,NA,NA,NA,NA,"PATHOLOGIST",NA,NA,"2011-01-10T12:14:00",31
"PDS2014","MI","PDS2014-0010",482,NA,NA,NA,"MIEXAM","Microscopic Examination",NA,"Inflammation chronic, cortex, focal/multifocal, grade 1","Inflammation chronic","NON-NEOPLASTIC",NA,NA,NA,"KIDNEY",NA,NA,NA,NA,"UNILATERAL",NA,"PATHOLOGIST","MILD",NA,"2011-01-10T12:14:00",31
"PDS2014","MI","PDS2014-0010",483,NA,NA,NA,"MIEXAM","Microscopic Examination",NA,"NORMAL","NORMAL",NA,NA,NA,NA,"LARGE INTESTINE, COLON",NA,NA,NA,NA,NA,NA,"PATHOLOGIST",NA,NA,"2011-01-10T12:14:00",31
"PDS2014","MI","PDS2014-0010",484,NA,NA,NA,"MIEXAM","Microscopic Examination",NA,"NORMAL","NORMAL",NA,NA,NA,NA,"LARGE INTESTINE, RECTUM",NA,NA,NA,NA,NA,NA,"PATHOLOGIST",NA,NA,"2011-01-10T12:14:00",31
"PDS2014","MI","PDS2014-0010",485,NA,NA,NA,"MIEXAM","Microscopic Examination",NA,"NORMAL","NORMAL",NA,NA,NA,NA,"LARGE INTESTINE, CECUM",NA,NA,NA,NA,NA,NA,"PATHOLOGIST",NA,NA,"2011-01-10T12:14:00",31
"PDS2014","MI","PDS2014-0010",486,NA,NA,NA,"MIEXAM","Microscopic Examination",NA,"Inflammation chronic, grade 1","Inflammation chronic","NON-NEOPLASTIC",NA,NA,NA,"LARYNX",NA,NA,NA,NA,NA,NA,"PATHOLOGIST","MILD",NA,"2011-01-10T12:14:00",31
"PDS2014","MI","PDS2014-0010",487,NA,NA,NA,"MIEXAM","Microscopic Examination",NA,"NORMAL","NORMAL",NA,NA,NA,NA,"LIVER",NA,NA,NA,NA,NA,NA,"PATHOLOGIST",NA,NA,"2011-01-10T12:14:00",31
"PDS2014","MI","PDS2014-0010",488,NA,NA,NA,"MIEXAM","Microscopic Examination",NA,"NORMAL","NORMAL",NA,NA,NA,NA,"LUNG",NA,NA,NA,NA,NA,NA,"PATHOLOGIST",NA,NA,"2011-01-10T12:14:00",31
"PDS2014","MI","PDS2014-0010",489,NA,NA,NA,"MIEXAM","Microscopic Examination",NA,"NORMAL","NORMAL",NA,NA,NA,NA,"LYMPH NODE, MESENTERIC",NA,NA,NA,NA,NA,NA,"PATHOLOGIST",NA,NA,"2011-01-10T12:14:00",31
"PDS2014","MI","PDS2014-0010",490,NA,NA,NA,"MIEXAM","Microscopic Examination",NA,"NORMAL","NORMAL",NA,NA,NA,NA,"LYMPH NODE, POPLITEAL",NA,NA,NA,NA,NA,NA,"PATHOLOGIST",NA,NA,"2011-01-10T12:14:00",31
"PDS2014","MI","PDS2014-0010",491,NA,NA,NA,"MIEXAM","Microscopic Examination",NA,NA,NA,NA,"NOT DONE","Tissue not present for histologic examination",NA,"GLAND, MAMMARY",NA,NA,NA,NA,NA,NA,"PATHOLOGIST",NA,NA,"2011-01-10T12:14:00",31
"PDS2014","MI","PDS2014-0010",492,NA,NA,NA,"MIEXAM","Microscopic Examination",NA,"NORMAL","NORMAL",NA,NA,NA,NA,"NERVE, OPTIC",NA,NA,NA,NA,NA,NA,"PATHOLOGIST",NA,NA,"2011-01-10T12:14:00",31
"PDS2014","MI","PDS2014-0010",493,NA,NA,NA,"MIEXAM","Microscopic Examination",NA,"NORMAL","NORMAL",NA,NA,NA,NA,"PANCREAS",NA,NA,NA,NA,NA,NA,"PATHOLOGIST",NA,NA,"2011-01-10T12:14:00",31
"PDS2014","MI","PDS2014-0010",494,NA,NA,NA,"MIEXAM","Microscopic Examination",NA,"NORMAL","NORMAL",NA,NA,NA,NA,"GLAND, PARATHYROID",NA,NA,NA,NA,NA,NA,"PATHOLOGIST",NA,NA,"2011-01-10T12:14:00",31
"PDS2014","MI","PDS2014-0010",495,NA,NA,NA,"MIEXAM","Microscopic Examination",NA,"NORMAL","NORMAL",NA,NA,NA,NA,"NERVE, SCIATIC",NA,NA,NA,NA,NA,NA,"PATHOLOGIST",NA,NA,"2011-01-10T12:14:00",31
"PDS2014","MI","PDS2014-0010",496,NA,NA,NA,"MIEXAM","Microscopic Examination",NA,"Mineralization, multifocal, grade 1","Mineralization","NON-NEOPLASTIC",NA,NA,NA,"PEYER'S PATCH",NA,NA,NA,NA,NA,NA,"PATHOLOGIST","MILD",NA,"2011-01-10T12:14:00",31
"PDS2014","MI","PDS2014-0010",497,NA,NA,NA,"MIEXAM","Microscopic Examination",NA,"NORMAL","NORMAL",NA,NA,NA,NA,"GLAND, PITUITARY",NA,NA,NA,NA,NA,NA,"PATHOLOGIST",NA,NA,"2011-01-10T12:14:00",31
"PDS2014","MI","PDS2014-0010",498,NA,NA,NA,"MIEXAM","Microscopic Examination",NA,"NORMAL","NORMAL",NA,NA,NA,NA,"GLAND, PROSTATE",NA,NA,NA,NA,NA,NA,"PATHOLOGIST",NA,NA,"2011-01-10T12:14:00",31
"PDS2014","MI","PDS2014-0010",499,NA,NA,NA,"MIEXAM","Microscopic Examination",NA,"NORMAL","NORMAL",NA,NA,NA,NA,"GLAND, SALIVARY, SUBLINGUAL",NA,NA,NA,NA,NA,NA,"PATHOLOGIST",NA,NA,"2011-01-10T12:14:00",31
"PDS2014","MI","PDS2014-0010",500,NA,NA,NA,"MIEXAM","Microscopic Examination",NA,"NORMAL","NORMAL",NA,NA,NA,NA,"GLAND, SALIVARY, SUBMANDIBULAR",NA,NA,NA,NA,NA,NA,"PATHOLOGIST",NA,NA,"2011-01-10T12:14:00",31
"PDS2014","MI","PDS2014-0010",501,NA,NA,NA,"MIEXAM","Microscopic Examination",NA,"NORMAL","NORMAL",NA,NA,NA,NA,"GLAND, SALIVARY, PAROTID",NA,NA,NA,NA,NA,NA,"PATHOLOGIST",NA,NA,"2011-01-10T12:14:00",31
"PDS2014","MI","PDS2014-0010",502,NA,NA,NA,"MIEXAM","Microscopic Examination",NA,"NORMAL","NORMAL",NA,NA,NA,NA,"GLAND, SEMINAL VESICLE",NA,NA,NA,NA,NA,NA,"PATHOLOGIST",NA,NA,"2011-01-10T12:14:00",31
"PDS2014","MI","PDS2014-0010",503,NA,NA,NA,"MIEXAM","Microscopic Examination",NA,"NORMAL","NORMAL",NA,NA,NA,NA,"MUSCLE, QUADRICEPS FEMORIS",NA,NA,NA,NA,NA,NA,"PATHOLOGIST",NA,NA,"2011-01-10T12:14:00",31
"PDS2014","MI","PDS2014-0010",504,NA,NA,NA,"MIEXAM","Microscopic Examination",NA,"Inflammation acute, necrotizing, focal, ulcerating, grade 2","Inflammation acute","NON-NEOPLASTIC",NA,NA,NA,"SKIN",NA,NA,NA,NA,NA,NA,"PATHOLOGIST","MODERATE",NA,"2011-01-10T12:14:00",31
"PDS2014","MI","PDS2014-0010",505,NA,NA,NA,"MIEXAM","Microscopic Examination",NA,"NORMAL","NORMAL",NA,NA,NA,NA,"SMALL INTESTINE, DUODENUM",NA,NA,NA,NA,NA,NA,"PATHOLOGIST",NA,NA,"2011-01-10T12:14:00",31
"PDS2014","MI","PDS2014-0010",506,NA,NA,NA,"MIEXAM","Microscopic Examination",NA,"NORMAL","NORMAL",NA,NA,NA,NA,"SMALL INTESTINE, ILEUM",NA,NA,NA,NA,NA,NA,"PATHOLOGIST",NA,NA,"2011-01-10T12:14:00",31
"PDS2014","MI","PDS2014-0010",507,NA,NA,NA,"MIEXAM","Microscopic Examination",NA,"NORMAL","NORMAL",NA,NA,NA,NA,"SMALL INTESTINE, JEJUNUM",NA,NA,NA,NA,NA,NA,"PATHOLOGIST",NA,NA,"2011-01-10T12:14:00",31
"PDS2014","MI","PDS2014-0010",508,NA,NA,NA,"MIEXAM","Microscopic Examination",NA,"NORMAL","NORMAL",NA,NA,NA,NA,"SPINAL CORD, CERVICAL",NA,NA,NA,NA,NA,NA,"PATHOLOGIST",NA,NA,"2011-01-10T12:14:00",31
"PDS2014","MI","PDS2014-0010",509,NA,NA,NA,"MIEXAM","Microscopic Examination",NA,"NORMAL","NORMAL",NA,NA,NA,NA,"SPINAL CORD, LUMBAR",NA,NA,NA,NA,NA,NA,"PATHOLOGIST",NA,NA,"2011-01-10T12:14:00",31
"PDS2014","MI","PDS2014-0010",510,NA,NA,NA,"MIEXAM","Microscopic Examination",NA,"NORMAL","NORMAL",NA,NA,NA,NA,"SPINAL CORD, THORACIC",NA,NA,NA,NA,NA,NA,"PATHOLOGIST",NA,NA,"2011-01-10T12:14:00",31
"PDS2014","MI","PDS2014-0010",511,NA,NA,NA,"MIEXAM","Microscopic Examination",NA,"Congestion, red pulp, diffuse, grade 1","Congestion","NON-NEOPLASTIC",NA,NA,NA,"SPLEEN",NA,NA,NA,NA,NA,NA,"PATHOLOGIST","MILD",NA,"2011-01-10T12:14:00",31
"PDS2014","MI","PDS2014-0010",512,NA,NA,NA,"MIEXAM","Microscopic Examination",NA,"Pigmentation, red pulp, diffuse, grade 1","Pigmentation","NON-NEOPLASTIC",NA,NA,NA,"SPLEEN",NA,NA,NA,NA,NA,NA,"PATHOLOGIST","MILD",NA,"2011-01-10T12:14:00",31
"PDS2014","MI","PDS2014-0010",513,NA,NA,NA,"MIEXAM","Microscopic Examination",NA,"NORMAL","NORMAL",NA,NA,NA,NA,"STOMACH",NA,NA,NA,NA,NA,NA,"PATHOLOGIST",NA,NA,"2011-01-10T12:14:00",31
"PDS2014","MI","PDS2014-0010",514,NA,NA,NA,"MIEXAM","Microscopic Examination",NA,"NORMAL","NORMAL",NA,NA,NA,NA,"TESTIS",NA,NA,NA,NA,NA,NA,"PATHOLOGIST",NA,NA,"2011-01-10T12:14:00",31
"PDS2014","MI","PDS2014-0010",515,NA,NA,NA,"MIEXAM","Microscopic Examination",NA,"NORMAL","NORMAL",NA,NA,NA,NA,"THYMUS",NA,NA,NA,NA,NA,NA,"PATHOLOGIST",NA,NA,"2011-01-10T12:14:00",31
"PDS2014","MI","PDS2014-0010",516,NA,NA,NA,"MIEXAM","Microscopic Examination",NA,"NORMAL","NORMAL",NA,NA,NA,NA,"GLAND, THYROID",NA,NA,NA,NA,NA,NA,"PATHOLOGIST",NA,NA,"2011-01-10T12:14:00",31
"PDS2014","MI","PDS2014-0010",517,NA,NA,NA,"MIEXAM","Microscopic Examination",NA,"NORMAL","NORMAL",NA,NA,NA,NA,"TONGUE",NA,NA,NA,NA,NA,NA,"PATHOLOGIST",NA,NA,"2011-01-10T12:14:00",31
"PDS2014","MI","PDS2014-0010",518,NA,NA,NA,"MIEXAM","Microscopic Examination",NA,"NORMAL","NORMAL",NA,NA,NA,NA,"TRACHEA",NA,NA,NA,NA,NA,NA,"PATHOLOGIST",NA,NA,"2011-01-10T12:14:00",31
"PDS2014","MI","PDS2014-0010",519,NA,NA,NA,"MIEXAM","Microscopic Examination",NA,"NORMAL","NORMAL",NA,NA,NA,NA,"URETER",NA,NA,NA,NA,NA,NA,"PATHOLOGIST",NA,NA,"2011-01-10T12:14:00",31
"PDS2014","MI","PDS2014-0010",520,NA,NA,NA,"MIEXAM","Microscopic Examination",NA,"NORMAL","NORMAL",NA,NA,NA,NA,"URINARY BLADDER",NA,NA,NA,NA,NA,NA,"PATHOLOGIST",NA,NA,"2011-01-10T12:14:00",31
"PDS2014","MI","PDS2014-0011",521,NA,NA,NA,"MIEXAM","Microscopic Examination",NA,"NORMAL","NORMAL",NA,NA,NA,NA,"GLAND, ADRENAL",NA,NA,NA,NA,NA,NA,"PATHOLOGIST",NA,NA,"2011-02-06T08:59:00",58
"PDS2014","MI","PDS2014-0011",522,NA,NA,NA,"MIEXAM","Microscopic Examination",NA,"NORMAL","NORMAL",NA,NA,NA,NA,"BONE MARROW, STERNUM",NA,NA,NA,NA,NA,NA,"PATHOLOGIST",NA,NA,"2011-02-06T08:59:00",58
"PDS2014","MI","PDS2014-0011",523,NA,NA,NA,"MIEXAM","Microscopic Examination",NA,"NORMAL","NORMAL",NA,NA,NA,NA,"BONE, STERNUM",NA,NA,NA,NA,NA,NA,"PATHOLOGIST",NA,NA,"2011-02-06T08:59:00",58
"PDS2014","MI","PDS2014-0011",524,NA,NA,NA,"MIEXAM","Microscopic Examination",NA,"Inflammation chronic, triade, focal, grade 1","Inflammation chronic","NON-NEOPLASTIC",NA,NA,NA,"LIVER",NA,NA,NA,NA,NA,NA,"PATHOLOGIST","MILD",NA,"2011-02-06T08:59:00",58
"PDS2014","MI","PDS2014-0011",525,NA,NA,NA,"MIEXAM","Microscopic Examination",NA,"MPS-aggregates multifocal, grade 1","MPS-aggregates multifocal","NON-NEOPLASTIC",NA,NA,NA,"LIVER",NA,NA,NA,NA,NA,NA,"PATHOLOGIST","MILD",NA,"2011-02-06T08:59:00",58
"PDS2014","MI","PDS2014-0011",526,NA,NA,NA,"MIEXAM","Microscopic Examination",NA,"NORMAL","NORMAL",NA,NA,NA,NA,"GLAND, THYROID",NA,NA,NA,NA,NA,NA,"PATHOLOGIST",NA,NA,"2011-02-06T08:59:00",58
"PDS2014","MI","PDS2014-0012",527,NA,NA,NA,"MIEXAM","Microscopic Examination",NA,"NORMAL","NORMAL",NA,NA,NA,NA,"GLAND, ADRENAL",NA,NA,NA,NA,NA,NA,"PATHOLOGIST",NA,NA,"2011-02-06T09:45:00",58
"PDS2014","MI","PDS2014-0012",528,NA,NA,NA,"MIEXAM","Microscopic Examination",NA,"NORMAL","NORMAL",NA,NA,NA,NA,"BONE MARROW, STERNUM",NA,NA,NA,NA,NA,NA,"PATHOLOGIST",NA,NA,"2011-02-06T09:45:00",58
"PDS2014","MI","PDS2014-0012",529,NA,NA,NA,"MIEXAM","Microscopic Examination",NA,"NORMAL","NORMAL",NA,NA,NA,NA,"BONE, STERNUM",NA,NA,NA,NA,NA,NA,"PATHOLOGIST",NA,NA,"2011-02-06T09:45:00",58
"PDS2014","MI","PDS2014-0012",530,NA,NA,NA,"MIEXAM","Microscopic Examination",NA,"MPS-aggregates multifocal, grade 2","MPS-aggregates multifocal","NON-NEOPLASTIC",NA,NA,NA,"LIVER",NA,NA,NA,NA,NA,NA,"PATHOLOGIST","MODERATE",NA,"2011-02-06T09:45:00",58
"PDS2014","MI","PDS2014-0012",531,NA,NA,NA,"MIEXAM","Microscopic Examination",NA,"NORMAL","NORMAL",NA,NA,NA,NA,"GLAND, THYROID",NA,NA,NA,NA,NA,NA,"PATHOLOGIST",NA,NA,"2011-02-06T09:45:00",58
"PDS2014","MI","PDS2014-0013",532,NA,NA,NA,"MIEXAM","Microscopic Examination",NA,"NORMAL","NORMAL",NA,NA,NA,NA,"GLAND, ADRENAL",NA,NA,NA,NA,NA,NA,"PATHOLOGIST",NA,NA,"2011-02-06T11:06:00",58
"PDS2014","MI","PDS2014-0013",533,NA,NA,NA,"MIEXAM","Microscopic Examination",NA,"NORMAL","NORMAL",NA,NA,NA,NA,"BONE MARROW, STERNUM",NA,NA,NA,NA,NA,NA,"PATHOLOGIST",NA,NA,"2011-02-06T11:06:00",58
"PDS2014","MI","PDS2014-0013",534,NA,NA,NA,"MIEXAM","Microscopic Examination",NA,"NORMAL","NORMAL",NA,NA,NA,NA,"BONE, STERNUM",NA,NA,NA,NA,NA,NA,"PATHOLOGIST",NA,NA,"2011-02-06T11:06:00",58
"PDS2014","MI","PDS2014-0013",535,NA,NA,NA,"MIEXAM","Microscopic Examination",NA,"MPS-aggregates multifocal, grade 1","MPS-aggregates multifocal","NON-NEOPLASTIC",NA,NA,NA,"LIVER",NA,NA,NA,NA,NA,NA,"PATHOLOGIST","MILD",NA,"2011-02-06T11:06:00",58
"PDS2014","MI","PDS2014-0013",536,NA,NA,NA,"MIEXAM","Microscopic Examination",NA,"NORMAL","NORMAL",NA,NA,NA,NA,"GLAND, THYROID",NA,NA,NA,NA,NA,NA,"PATHOLOGIST",NA,NA,"2011-02-06T11:06:00",58
"PDS2014","MI","PDS2014-0014",537,NA,NA,NA,"MIEXAM","Microscopic Examination",NA,"NORMAL","NORMAL",NA,NA,NA,NA,"GLAND, ADRENAL",NA,NA,NA,NA,NA,NA,"PATHOLOGIST",NA,NA,"2011-02-06T09:27:00",58
"PDS2014","MI","PDS2014-0014",538,NA,NA,NA,"MIEXAM","Microscopic Examination",NA,"NORMAL","NORMAL",NA,NA,NA,NA,"BONE MARROW, STERNUM",NA,NA,NA,NA,NA,NA,"PATHOLOGIST",NA,NA,"2011-02-06T09:27:00",58
"PDS2014","MI","PDS2014-0014",539,NA,NA,NA,"MIEXAM","Microscopic Examination",NA,"NORMAL","NORMAL",NA,NA,NA,NA,"BONE, STERNUM",NA,NA,NA,NA,NA,NA,"PATHOLOGIST",NA,NA,"2011-02-06T09:27:00",58
"PDS2014","MI","PDS2014-0014",540,NA,NA,NA,"MIEXAM","Microscopic Examination",NA,"MPS-aggregates multifocal, grade 1","MPS-aggregates multifocal","NON-NEOPLASTIC",NA,NA,NA,"LIVER",NA,NA,NA,NA,NA,NA,"PATHOLOGIST","MILD",NA,"2011-02-06T09:27:00",58
"PDS2014","MI","PDS2014-0014",541,NA,NA,NA,"MIEXAM","Microscopic Examination",NA,"NORMAL","NORMAL",NA,NA,NA,NA,"GLAND, THYROID",NA,NA,NA,NA,NA,NA,"PATHOLOGIST",NA,NA,"2011-02-06T09:27:00",58
"PDS2014","MI","PDS2014-0015",542,NA,NA,NA,"MIEXAM","Microscopic Examination",NA,"Vacuolization, cortex, diffuse, grade 1","Vacuolization","NON-NEOPLASTIC",NA,NA,NA,"GLAND, ADRENAL",NA,NA,NA,NA,"BILATERAL",NA,"PATHOLOGIST","MILD",NA,"2011-02-06T11:35:00",58
"PDS2014","MI","PDS2014-0015",543,NA,NA,NA,"MIEXAM","Microscopic Examination",NA,"NORMAL","NORMAL",NA,NA,NA,NA,"BONE MARROW, STERNUM",NA,NA,NA,NA,NA,NA,"PATHOLOGIST",NA,NA,"2011-02-06T11:35:00",58
"PDS2014","MI","PDS2014-0015",544,NA,NA,NA,"MIEXAM","Microscopic Examination",NA,"NORMAL","NORMAL",NA,NA,NA,NA,"BONE, STERNUM",NA,NA,NA,NA,NA,NA,"PATHOLOGIST",NA,NA,"2011-02-06T11:35:00",58
"PDS2014","MI","PDS2014-0015",545,NA,NA,NA,"MIEXAM","Microscopic Examination",NA,"MPS-aggregates multifocal, grade 1","MPS-aggregates multifocal","NON-NEOPLASTIC",NA,NA,NA,"LIVER",NA,NA,NA,NA,NA,NA,"PATHOLOGIST","MILD",NA,"2011-02-06T11:35:00",58
"PDS2014","MI","PDS2014-0015",546,NA,NA,NA,"MIEXAM","Microscopic Examination",NA,"NORMAL","NORMAL",NA,NA,NA,NA,"GLAND, THYROID",NA,NA,NA,NA,NA,NA,"PATHOLOGIST",NA,NA,"2011-02-06T11:35:00",58
"PDS2014","MI","PDS2014-0021",547,NA,NA,NA,"MIEXAM","Microscopic Examination",NA,"NORMAL","NORMAL",NA,NA,NA,NA,"GLAND, ADRENAL",NA,NA,NA,NA,NA,NA,"PATHOLOGIST",NA,NA,"2011-01-09T10:08:00",30
"PDS2014","MI","PDS2014-0021",548,NA,NA,NA,"MIEXAM","Microscopic Examination",NA,"NORMAL","NORMAL",NA,NA,NA,NA,"BONE MARROW, STERNUM",NA,NA,NA,NA,NA,NA,"PATHOLOGIST",NA,NA,"2011-01-09T10:08:00",30
"PDS2014","MI","PDS2014-0021",549,NA,NA,NA,"MIEXAM","Microscopic Examination",NA,"NORMAL","NORMAL",NA,NA,NA,NA,"BONE, STERNUM",NA,NA,NA,NA,NA,NA,"PATHOLOGIST",NA,NA,"2011-01-09T10:08:00",30
"PDS2014","MI","PDS2014-0021",550,NA,NA,NA,"MIEXAM","Microscopic Examination",NA,"MPS-aggregates multifocal, grade 1","MPS-aggregates multifocal","NON-NEOPLASTIC",NA,NA,NA,"LIVER",NA,NA,NA,NA,NA,NA,"PATHOLOGIST","MILD",NA,"2011-01-09T10:08:00",30
"PDS2014","MI","PDS2014-0021",551,NA,NA,NA,"MIEXAM","Microscopic Examination",NA,"NORMAL","NORMAL",NA,NA,NA,NA,"GLAND, THYROID",NA,NA,NA,NA,NA,NA,"PATHOLOGIST",NA,NA,"2011-01-09T10:08:00",30
"PDS2014","MI","PDS2014-0022",552,NA,NA,NA,"MIEXAM","Microscopic Examination",NA,"NORMAL","NORMAL",NA,NA,NA,NA,"GLAND, ADRENAL",NA,NA,NA,NA,NA,NA,"PATHOLOGIST",NA,NA,"2011-01-09T11:50:00",30
"PDS2014","MI","PDS2014-0022",553,NA,NA,NA,"MIEXAM","Microscopic Examination",NA,"NORMAL","NORMAL",NA,NA,NA,NA,"BONE MARROW, STERNUM",NA,NA,NA,NA,NA,NA,"PATHOLOGIST",NA,NA,"2011-01-09T11:50:00",30
"PDS2014","MI","PDS2014-0022",554,NA,NA,NA,"MIEXAM","Microscopic Examination",NA,"NORMAL","NORMAL",NA,NA,NA,NA,"BONE, STERNUM",NA,NA,NA,NA,NA,NA,"PATHOLOGIST",NA,NA,"2011-01-09T11:50:00",30
"PDS2014","MI","PDS2014-0022",555,NA,NA,NA,"MIEXAM","Microscopic Examination",NA,"NORMAL","NORMAL",NA,NA,NA,NA,"LIVER",NA,NA,NA,NA,NA,NA,"PATHOLOGIST",NA,NA,"2011-01-09T11:50:00",30
"PDS2014","MI","PDS2014-0022",556,NA,NA,NA,"MIEXAM","Microscopic Examination",NA,"NORMAL","NORMAL",NA,NA,NA,NA,"GLAND, THYROID",NA,NA,NA,NA,NA,NA,"PATHOLOGIST",NA,NA,"2011-01-09T11:50:00",30
"PDS2014","MI","PDS2014-0023",557,NA,NA,NA,"MIEXAM","Microscopic Examination",NA,"NORMAL","NORMAL",NA,NA,NA,NA,"GLAND, ADRENAL",NA,NA,NA,NA,NA,NA,"PATHOLOGIST",NA,NA,"2011-01-09T14:28:00",30
"PDS2014","MI","PDS2014-0023",558,NA,NA,NA,"MIEXAM","Microscopic Examination",NA,"NORMAL","NORMAL",NA,NA,NA,NA,"BONE MARROW, STERNUM",NA,NA,NA,NA,NA,NA,"PATHOLOGIST",NA,NA,"2011-01-09T14:28:00",30
"PDS2014","MI","PDS2014-0023",559,NA,NA,NA,"MIEXAM","Microscopic Examination",NA,"NORMAL","NORMAL",NA,NA,NA,NA,"BONE, STERNUM",NA,NA,NA,NA,NA,NA,"PATHOLOGIST",NA,NA,"2011-01-09T14:28:00",30
"PDS2014","MI","PDS2014-0023",560,NA,NA,NA,"MIEXAM","Microscopic Examination",NA,"MPS-aggregates multifocal, grade 1","MPS-aggregates multifocal","NON-NEOPLASTIC",NA,NA,NA,"LIVER",NA,NA,NA,NA,NA,NA,"PATHOLOGIST","MILD",NA,"2011-01-09T14:28:00",30
"PDS2014","MI","PDS2014-0023",561,NA,NA,NA,"MIEXAM","Microscopic Examination",NA,"NORMAL","NORMAL",NA,NA,NA,NA,"GLAND, THYROID",NA,NA,NA,NA,NA,NA,"PATHOLOGIST",NA,NA,"2011-01-09T14:28:00",30
"PDS2014","MI","PDS2014-0024",562,NA,NA,NA,"MIEXAM","Microscopic Examination",NA,"NORMAL","NORMAL",NA,NA,NA,NA,"GLAND, ADRENAL",NA,NA,NA,NA,NA,NA,"PATHOLOGIST",NA,NA,"2011-01-09T11:27:00",30
"PDS2014","MI","PDS2014-0024",563,NA,NA,NA,"MIEXAM","Microscopic Examination",NA,NA,NA,NA,"NOT DONE","Tissue not present for histologic examination",NA,"BONE MARROW, STERNUM",NA,NA,NA,NA,NA,NA,"PATHOLOGIST",NA,NA,"2011-01-09T11:27:00",30
"PDS2014","MI","PDS2014-0024",564,NA,NA,NA,"MIEXAM","Microscopic Examination",NA,NA,NA,NA,"NOT DONE","Tissue not present for histologic examination",NA,"BONE, STERNUM",NA,NA,NA,NA,NA,NA,"PATHOLOGIST",NA,NA,"2011-01-09T11:27:00",30
"PDS2014","MI","PDS2014-0024",565,NA,NA,NA,"MIEXAM","Microscopic Examination",NA,"NORMAL","NORMAL",NA,NA,NA,NA,"LIVER",NA,NA,NA,NA,NA,NA,"PATHOLOGIST",NA,NA,"2011-01-09T11:27:00",30
"PDS2014","MI","PDS2014-0024",566,NA,NA,NA,"MIEXAM","Microscopic Examination",NA,"NORMAL","NORMAL",NA,NA,NA,NA,"GLAND, THYROID",NA,NA,NA,NA,NA,NA,"PATHOLOGIST",NA,NA,"2011-01-09T11:27:00",30
"PDS2014","MI","PDS2014-0025",567,NA,NA,NA,"MIEXAM","Microscopic Examination",NA,"Vacuolization, cortex, diffuse, grade 1","Vacuolization","NON-NEOPLASTIC",NA,NA,NA,"GLAND, ADRENAL",NA,NA,NA,NA,"BILATERAL",NA,"PATHOLOGIST","MILD",NA,"2011-01-09T14:40:00",30
"PDS2014","MI","PDS2014-0025",568,NA,NA,NA,"MIEXAM","Microscopic Examination",NA,"NORMAL","NORMAL",NA,NA,NA,NA,"BONE MARROW, STERNUM",NA,NA,NA,NA,NA,NA,"PATHOLOGIST",NA,NA,"2011-01-09T14:40:00",30
"PDS2014","MI","PDS2014-0025",569,NA,NA,NA,"MIEXAM","Microscopic Examination",NA,"NORMAL","NORMAL",NA,NA,NA,NA,"BONE, STERNUM",NA,NA,NA,NA,NA,NA,"PATHOLOGIST",NA,NA,"2011-01-09T14:40:00",30
"PDS2014","MI","PDS2014-0025",570,NA,NA,NA,"MIEXAM","Microscopic Examination",NA,"MPS-aggregates multifocal, grade 1","MPS-aggregates multifocal","NON-NEOPLASTIC",NA,NA,NA,"LIVER",NA,NA,NA,NA,NA,NA,"PATHOLOGIST","MILD",NA,"2011-01-09T14:40:00",30
"PDS2014","MI","PDS2014-0025",571,NA,NA,NA,"MIEXAM","Microscopic Examination",NA,"NORMAL","NORMAL",NA,NA,NA,NA,"GLAND, THYROID",NA,NA,NA,NA,NA,NA,"PATHOLOGIST",NA,NA,"2011-01-09T14:40:00",30
"PDS2014","MI","PDS2014-0026",572,NA,NA,NA,"MIEXAM","Microscopic Examination",NA,"NORMAL","NORMAL",NA,NA,NA,NA,"GLAND, ADRENAL",NA,NA,NA,NA,NA,NA,"PATHOLOGIST",NA,NA,"2011-01-10T10:41:00",31
"PDS2014","MI","PDS2014-0026",573,NA,NA,NA,"MIEXAM","Microscopic Examination",NA,"NORMAL","NORMAL",NA,NA,NA,NA,"BONE MARROW, STERNUM",NA,NA,NA,NA,NA,NA,"PATHOLOGIST",NA,NA,"2011-01-10T10:41:00",31
"PDS2014","MI","PDS2014-0026",574,NA,NA,NA,"MIEXAM","Microscopic Examination",NA,"NORMAL","NORMAL",NA,NA,NA,NA,"BONE, STERNUM",NA,NA,NA,NA,NA,NA,"PATHOLOGIST",NA,NA,"2011-01-10T10:41:00",31
"PDS2014","MI","PDS2014-0026",575,NA,NA,NA,"MIEXAM","Microscopic Examination",NA,"MPS-aggregates multifocal, grade 1","MPS-aggregates multifocal","NON-NEOPLASTIC",NA,NA,NA,"LIVER",NA,NA,NA,NA,NA,NA,"PATHOLOGIST","MILD",NA,"2011-01-10T10:41:00",31
"PDS2014","MI","PDS2014-0026",576,NA,NA,NA,"MIEXAM","Microscopic Examination",NA,"NORMAL","NORMAL",NA,NA,NA,NA,"GLAND, THYROID",NA,NA,NA,NA,NA,NA,"PATHOLOGIST",NA,NA,"2011-01-10T10:41:00",31
"PDS2014","MI","PDS2014-0027",577,NA,NA,NA,"MIEXAM","Microscopic Examination",NA,"NORMAL","NORMAL",NA,NA,NA,NA,"GLAND, ADRENAL",NA,NA,NA,NA,NA,NA,"PATHOLOGIST",NA,NA,"2011-01-10T13:58:00",31
"PDS2014","MI","PDS2014-0027",578,NA,NA,NA,"MIEXAM","Microscopic Examination",NA,"NORMAL","NORMAL",NA,NA,NA,NA,"BONE MARROW, STERNUM",NA,NA,NA,NA,NA,NA,"PATHOLOGIST",NA,NA,"2011-01-10T13:58:00",31
"PDS2014","MI","PDS2014-0027",579,NA,NA,NA,"MIEXAM","Microscopic Examination",NA,"NORMAL","NORMAL",NA,NA,NA,NA,"BONE, STERNUM",NA,NA,NA,NA,NA,NA,"PATHOLOGIST",NA,NA,"2011-01-10T13:58:00",31
"PDS2014","MI","PDS2014-0027",580,NA,NA,NA,"MIEXAM","Microscopic Examination",NA,"NORMAL","NORMAL",NA,NA,NA,NA,"LIVER",NA,NA,NA,NA,NA,NA,"PATHOLOGIST",NA,NA,"2011-01-10T13:58:00",31
"PDS2014","MI","PDS2014-0027",581,NA,NA,NA,"MIEXAM","Microscopic Examination",NA,"NORMAL","NORMAL",NA,NA,NA,NA,"GLAND, THYROID",NA,NA,NA,NA,NA,NA,"PATHOLOGIST",NA,NA,"2011-01-10T13:58:00",31
"PDS2014","MI","PDS2014-0028",582,NA,NA,NA,"MIEXAM","Microscopic Examination",NA,"NORMAL","NORMAL",NA,NA,NA,NA,"GLAND, ADRENAL",NA,NA,NA,NA,NA,NA,"PATHOLOGIST",NA,NA,"2011-01-10T10:42:00",31
"PDS2014","MI","PDS2014-0028",583,NA,NA,NA,"MIEXAM","Microscopic Examination",NA,"NORMAL","NORMAL",NA,NA,NA,NA,"BONE MARROW, STERNUM",NA,NA,NA,NA,NA,NA,"PATHOLOGIST",NA,NA,"2011-01-10T10:42:00",31
"PDS2014","MI","PDS2014-0028",584,NA,NA,NA,"MIEXAM","Microscopic Examination",NA,"NORMAL","NORMAL",NA,NA,NA,NA,"BONE, STERNUM",NA,NA,NA,NA,NA,NA,"PATHOLOGIST",NA,NA,"2011-01-10T10:42:00",31
"PDS2014","MI","PDS2014-0028",585,NA,NA,NA,"MIEXAM","Microscopic Examination",NA,"NORMAL","NORMAL",NA,NA,NA,NA,"LIVER",NA,NA,NA,NA,NA,NA,"PATHOLOGIST",NA,NA,"2011-01-10T10:42:00",31
"PDS2014","MI","PDS2014-0028",586,NA,NA,NA,"MIEXAM","Microscopic Examination",NA,"NORMAL","NORMAL",NA,NA,NA,NA,"GLAND, THYROID",NA,NA,NA,NA,NA,NA,"PATHOLOGIST",NA,NA,"2011-01-10T10:42:00",31
"PDS2014","MI","PDS2014-0029",587,NA,NA,NA,"MIEXAM","Microscopic Examination",NA,"NORMAL","NORMAL",NA,NA,NA,NA,"GLAND, ADRENAL",NA,NA,NA,NA,NA,NA,"PATHOLOGIST",NA,NA,"2011-01-10T13:58:00",31
"PDS2014","MI","PDS2014-0029",588,NA,NA,NA,"MIEXAM","Microscopic Examination",NA,"NORMAL","NORMAL",NA,NA,NA,NA,"BONE MARROW, STERNUM",NA,NA,NA,NA,NA,NA,"PATHOLOGIST",NA,NA,"2011-01-10T13:58:00",31
"PDS2014","MI","PDS2014-0029",589,NA,NA,NA,"MIEXAM","Microscopic Examination",NA,"NORMAL","NORMAL",NA,NA,NA,NA,"BONE, STERNUM",NA,NA,NA,NA,NA,NA,"PATHOLOGIST",NA,NA,"2011-01-10T13:58:00",31
"PDS2014","MI","PDS2014-0029",590,NA,NA,NA,"MIEXAM","Microscopic Examination",NA,"NORMAL","NORMAL",NA,NA,NA,NA,"LIVER",NA,NA,NA,NA,NA,NA,"PATHOLOGIST",NA,NA,"2011-01-10T13:58:00",31
"PDS2014","MI","PDS2014-0029",591,NA,NA,NA,"MIEXAM","Microscopic Examination",NA,"NORMAL","NORMAL",NA,NA,NA,NA,"GLAND, THYROID",NA,NA,NA,NA,NA,NA,"PATHOLOGIST",NA,NA,"2011-01-10T13:58:00",31
"PDS2014","MI","PDS2014-0030",592,NA,NA,NA,"MIEXAM","Microscopic Examination",NA,"NORMAL","NORMAL",NA,NA,NA,NA,"GLAND, ADRENAL",NA,NA,NA,NA,NA,NA,"PATHOLOGIST",NA,NA,"2011-01-10T12:15:00",31
"PDS2014","MI","PDS2014-0030",593,NA,NA,NA,"MIEXAM","Microscopic Examination",NA,"NORMAL","NORMAL",NA,NA,NA,NA,"BONE MARROW, STERNUM",NA,NA,NA,NA,NA,NA,"PATHOLOGIST",NA,NA,"2011-01-10T12:15:00",31
"PDS2014","MI","PDS2014-0030",594,NA,NA,NA,"MIEXAM","Microscopic Examination",NA,"NORMAL","NORMAL",NA,NA,NA,NA,"BONE, STERNUM",NA,NA,NA,NA,NA,NA,"PATHOLOGIST",NA,NA,"2011-01-10T12:15:00",31
"PDS2014","MI","PDS2014-0030",595,NA,NA,NA,"MIEXAM","Microscopic Examination",NA,"MPS-aggregates multifocal, grade 2","MPS-aggregates multifocal","NON-NEOPLASTIC",NA,NA,NA,"LIVER",NA,NA,NA,NA,NA,NA,"PATHOLOGIST","MODERATE",NA,"2011-01-10T12:15:00",31
"PDS2014","MI","PDS2014-0030",596,NA,NA,NA,"MIEXAM","Microscopic Examination",NA,"NORMAL","NORMAL",NA,NA,NA,NA,"GLAND, THYROID",NA,NA,NA,NA,NA,NA,"PATHOLOGIST",NA,NA,"2011-01-10T12:15:00",31
"PDS2014","MI","PDS2014-0041",597,NA,NA,NA,"MIEXAM","Microscopic Examination",NA,"NORMAL","NORMAL",NA,NA,NA,NA,"GLAND, ADRENAL",NA,NA,NA,NA,NA,NA,"PATHOLOGIST",NA,NA,"2011-01-09T10:18:00",30
"PDS2014","MI","PDS2014-0041",598,NA,NA,NA,"MIEXAM","Microscopic Examination",NA,"NORMAL","NORMAL",NA,NA,NA,NA,"BONE MARROW, STERNUM",NA,NA,NA,NA,NA,NA,"PATHOLOGIST",NA,NA,"2011-01-09T10:18:00",30
"PDS2014","MI","PDS2014-0041",599,NA,NA,NA,"MIEXAM","Microscopic Examination",NA,"NORMAL","NORMAL",NA,NA,NA,NA,"BONE, STERNUM",NA,NA,NA,NA,NA,NA,"PATHOLOGIST",NA,NA,"2011-01-09T10:18:00",30
"PDS2014","MI","PDS2014-0041",600,NA,NA,NA,"MIEXAM","Microscopic Examination",NA,"MPS-aggregates multifocal, grade 1","MPS-aggregates multifocal","NON-NEOPLASTIC",NA,NA,NA,"LIVER",NA,NA,NA,NA,NA,NA,"PATHOLOGIST","MILD",NA,"2011-01-09T10:18:00",30
"PDS2014","MI","PDS2014-0041",601,NA,NA,NA,"MIEXAM","Microscopic Examination",NA,"NORMAL","NORMAL",NA,NA,NA,NA,"GLAND, THYROID",NA,NA,NA,NA,NA,NA,"PATHOLOGIST",NA,NA,"2011-01-09T10:18:00",30
"PDS2014","MI","PDS2014-0042",602,NA,NA,NA,"MIEXAM","Microscopic Examination",NA,"NORMAL","NORMAL",NA,NA,NA,NA,"GLAND, ADRENAL",NA,NA,NA,NA,NA,NA,"PATHOLOGIST",NA,NA,"2011-01-09T12:02:00",30
"PDS2014","MI","PDS2014-0042",603,NA,NA,NA,"MIEXAM","Microscopic Examination",NA,"NORMAL","NORMAL",NA,NA,NA,NA,"BONE MARROW, STERNUM",NA,NA,NA,NA,NA,NA,"PATHOLOGIST",NA,NA,"2011-01-09T12:02:00",30
"PDS2014","MI","PDS2014-0042",604,NA,NA,NA,"MIEXAM","Microscopic Examination",NA,"NORMAL","NORMAL",NA,NA,NA,NA,"BONE, STERNUM",NA,NA,NA,NA,NA,NA,"PATHOLOGIST",NA,NA,"2011-01-09T12:02:00",30
"PDS2014","MI","PDS2014-0042",605,NA,NA,NA,"MIEXAM","Microscopic Examination",NA,"MPS-aggregates multifocal, grade 2","MPS-aggregates multifocal","NON-NEOPLASTIC",NA,NA,NA,"LIVER",NA,NA,NA,NA,NA,NA,"PATHOLOGIST","MODERATE",NA,"2011-01-09T12:02:00",30
"PDS2014","MI","PDS2014-0042",606,NA,NA,NA,"MIEXAM","Microscopic Examination",NA,"NORMAL","NORMAL",NA,NA,NA,NA,"GLAND, THYROID",NA,NA,NA,NA,NA,NA,"PATHOLOGIST",NA,NA,"2011-01-09T12:02:00",30
"PDS2014","MI","PDS2014-0043",607,NA,NA,NA,"MIEXAM","Microscopic Examination",NA,"NORMAL","NORMAL",NA,NA,NA,NA,"GLAND, ADRENAL",NA,NA,NA,NA,NA,NA,"PATHOLOGIST",NA,NA,"2011-01-09T14:39:00",30
"PDS2014","MI","PDS2014-0043",608,NA,NA,NA,"MIEXAM","Microscopic Examination",NA,"NORMAL","NORMAL",NA,NA,NA,NA,"BONE MARROW, STERNUM",NA,NA,NA,NA,NA,NA,"PATHOLOGIST",NA,NA,"2011-01-09T14:39:00",30
"PDS2014","MI","PDS2014-0043",609,NA,NA,NA,"MIEXAM","Microscopic Examination",NA,"NORMAL","NORMAL",NA,NA,NA,NA,"BONE, STERNUM",NA,NA,NA,NA,NA,NA,"PATHOLOGIST",NA,NA,"2011-01-09T14:39:00",30
"PDS2014","MI","PDS2014-0043",610,NA,NA,NA,"MIEXAM","Microscopic Examination",NA,"Chronic progressive nephropathy, cystic, grade 2","Chronic progressive nephropathy","NON-NEOPLASTIC",NA,NA,NA,"KIDNEY",NA,NA,NA,NA,"UNILATERAL",NA,"PATHOLOGIST","MODERATE",NA,"2011-01-09T14:39:00",30
"PDS2014","MI","PDS2014-0043",611,NA,NA,NA,"MIEXAM","Microscopic Examination",NA,"NORMAL","NORMAL",NA,NA,NA,NA,"LIVER",NA,NA,NA,NA,NA,NA,"PATHOLOGIST",NA,NA,"2011-01-09T14:39:00",30
"PDS2014","MI","PDS2014-0043",612,NA,NA,NA,"MIEXAM","Microscopic Examination",NA,"NORMAL","NORMAL",NA,NA,NA,NA,"GLAND, THYROID",NA,NA,NA,NA,NA,NA,"PATHOLOGIST",NA,NA,"2011-01-09T14:39:00",30
"PDS2014","MI","PDS2014-0044",613,NA,NA,NA,"MIEXAM","Microscopic Examination",NA,"NORMAL","NORMAL",NA,NA,NA,NA,"GLAND, ADRENAL",NA,NA,NA,NA,NA,NA,"PATHOLOGIST",NA,NA,"2011-01-09T11:44:00",30
"PDS2014","MI","PDS2014-0044",614,NA,NA,NA,"MIEXAM","Microscopic Examination",NA,"NORMAL","NORMAL",NA,NA,NA,NA,"BONE MARROW, STERNUM",NA,NA,NA,NA,NA,NA,"PATHOLOGIST",NA,NA,"2011-01-09T11:44:00",30
"PDS2014","MI","PDS2014-0044",615,NA,NA,NA,"MIEXAM","Microscopic Examination",NA,"NORMAL","NORMAL",NA,NA,NA,NA,"BONE, STERNUM",NA,NA,NA,NA,NA,NA,"PATHOLOGIST",NA,NA,"2011-01-09T11:44:00",30
"PDS2014","MI","PDS2014-0044",616,NA,NA,NA,"MIEXAM","Microscopic Examination",NA,"MPS-aggregates multifocal, grade 1","MPS-aggregates multifocal","NON-NEOPLASTIC",NA,NA,NA,"LIVER",NA,NA,NA,NA,NA,NA,"PATHOLOGIST","MILD",NA,"2011-01-09T11:44:00",30
"PDS2014","MI","PDS2014-0044",617,NA,NA,NA,"MIEXAM","Microscopic Examination",NA,"Hypertrophy follicular cell(s), diffuse, grade 1","Hypertrophy follicular cell(s)","NON-NEOPLASTIC",NA,NA,NA,"GLAND, THYROID",NA,NA,NA,NA,"BILATERAL",NA,"PATHOLOGIST","MILD",NA,"2011-01-09T11:44:00",30
"PDS2014","MI","PDS2014-0045",618,NA,NA,NA,"MIEXAM","Microscopic Examination",NA,"NORMAL","NORMAL",NA,NA,NA,NA,"GLAND, ADRENAL",NA,NA,NA,NA,NA,NA,"PATHOLOGIST",NA,NA,"2011-01-09T14:56:00",30
"PDS2014","MI","PDS2014-0045",619,NA,NA,NA,"MIEXAM","Microscopic Examination",NA,"NORMAL","NORMAL",NA,NA,NA,NA,"BONE MARROW, STERNUM",NA,NA,NA,NA,NA,NA,"PATHOLOGIST",NA,NA,"2011-01-09T14:56:00",30
"PDS2014","MI","PDS2014-0045",620,NA,NA,NA,"MIEXAM","Microscopic Examination",NA,"NORMAL","NORMAL",NA,NA,NA,NA,"BONE, STERNUM",NA,NA,NA,NA,NA,NA,"PATHOLOGIST",NA,NA,"2011-01-09T14:56:00",30
"PDS2014","MI","PDS2014-0045",621,NA,NA,NA,"MIEXAM","Microscopic Examination",NA,"MPS-aggregates multifocal, grade 1","MPS-aggregates multifocal","NON-NEOPLASTIC",NA,NA,NA,"LIVER",NA,NA,NA,NA,NA,NA,"PATHOLOGIST","MILD",NA,"2011-01-09T14:56:00",30
"PDS2014","MI","PDS2014-0045",622,NA,NA,NA,"MIEXAM","Microscopic Examination",NA,"NORMAL","NORMAL",NA,NA,NA,NA,"GLAND, THYROID",NA,NA,NA,NA,NA,NA,"PATHOLOGIST",NA,NA,"2011-01-09T14:56:00",30
"PDS2014","MI","PDS2014-0046",623,NA,NA,NA,"MIEXAM","Microscopic Examination",NA,"NORMAL","NORMAL",NA,NA,NA,NA,"GLAND, ADRENAL",NA,NA,NA,NA,NA,NA,"PATHOLOGIST",NA,NA,"2011-01-10T10:53:00",31
"PDS2014","MI","PDS2014-0046",624,NA,NA,NA,"MIEXAM","Microscopic Examination",NA,"NORMAL","NORMAL",NA,NA,NA,NA,"BONE MARROW, STERNUM",NA,NA,NA,NA,NA,NA,"PATHOLOGIST",NA,NA,"2011-01-10T10:53:00",31
"PDS2014","MI","PDS2014-0046",625,NA,NA,NA,"MIEXAM","Microscopic Examination",NA,"NORMAL","NORMAL",NA,NA,NA,NA,"BONE, STERNUM",NA,NA,NA,NA,NA,NA,"PATHOLOGIST",NA,NA,"2011-01-10T10:53:00",31
"PDS2014","MI","PDS2014-0046",626,NA,NA,NA,"MIEXAM","Microscopic Examination",NA,"MPS-aggregates multifocal, grade 1","MPS-aggregates multifocal","NON-NEOPLASTIC",NA,NA,NA,"LIVER",NA,NA,NA,NA,NA,NA,"PATHOLOGIST","MILD",NA,"2011-01-10T10:53:00",31
"PDS2014","MI","PDS2014-0046",627,NA,NA,NA,"MIEXAM","Microscopic Examination",NA,"NORMAL","NORMAL",NA,NA,NA,NA,"GLAND, THYROID",NA,NA,NA,NA,NA,NA,"PATHOLOGIST",NA,NA,"2011-01-10T10:53:00",31
"PDS2014","MI","PDS2014-0047",628,NA,NA,NA,"MIEXAM","Microscopic Examination",NA,"NORMAL","NORMAL",NA,NA,NA,NA,"GLAND, ADRENAL",NA,NA,NA,NA,NA,NA,"PATHOLOGIST",NA,NA,"2011-01-10T14:09:00",31
"PDS2014","MI","PDS2014-0047",629,NA,NA,NA,"MIEXAM","Microscopic Examination",NA,"NORMAL","NORMAL",NA,NA,NA,NA,"BONE MARROW, STERNUM",NA,NA,NA,NA,NA,NA,"PATHOLOGIST",NA,NA,"2011-01-10T14:09:00",31
"PDS2014","MI","PDS2014-0047",630,NA,NA,NA,"MIEXAM","Microscopic Examination",NA,"NORMAL","NORMAL",NA,NA,NA,NA,"BONE, STERNUM",NA,NA,NA,NA,NA,NA,"PATHOLOGIST",NA,NA,"2011-01-10T14:09:00",31
"PDS2014","MI","PDS2014-0047",631,NA,NA,NA,"MIEXAM","Microscopic Examination",NA,"MPS-aggregates multifocal, grade 1","MPS-aggregates multifocal","NON-NEOPLASTIC",NA,NA,NA,"LIVER",NA,NA,NA,NA,NA,NA,"PATHOLOGIST","MILD",NA,"2011-01-10T14:09:00",31
"PDS2014","MI","PDS2014-0047",632,NA,NA,NA,"MIEXAM","Microscopic Examination",NA,"NORMAL","NORMAL",NA,NA,NA,NA,"GLAND, THYROID",NA,NA,NA,NA,NA,NA,"PATHOLOGIST",NA,NA,"2011-01-10T14:09:00",31
"PDS2014","MI","PDS2014-0048",633,NA,NA,NA,"MIEXAM","Microscopic Examination",NA,"Vacuolization, cortex, diffuse, grade 1","Vacuolization","NON-NEOPLASTIC",NA,NA,NA,"GLAND, ADRENAL",NA,NA,NA,NA,"BILATERAL",NA,"PATHOLOGIST","MILD",NA,"2011-01-10T10:55:00",31
"PDS2014","MI","PDS2014-0048",634,NA,NA,NA,"MIEXAM","Microscopic Examination",NA,"NORMAL","NORMAL",NA,NA,NA,NA,"BONE MARROW, STERNUM",NA,NA,NA,NA,NA,NA,"PATHOLOGIST",NA,NA,"2011-01-10T10:55:00",31
"PDS2014","MI","PDS2014-0048",635,NA,NA,NA,"MIEXAM","Microscopic Examination",NA,"NORMAL","NORMAL",NA,NA,NA,NA,"BONE, STERNUM",NA,NA,NA,NA,NA,NA,"PATHOLOGIST",NA,NA,"2011-01-10T10:55:00",31
"PDS2014","MI","PDS2014-0048",636,NA,NA,NA,"MIEXAM","Microscopic Examination",NA,"NORMAL","NORMAL",NA,NA,NA,NA,"LIVER",NA,NA,NA,NA,NA,NA,"PATHOLOGIST",NA,NA,"2011-01-10T10:55:00",31
"PDS2014","MI","PDS2014-0048",637,NA,NA,NA,"MIEXAM","Microscopic Examination",NA,"NORMAL","NORMAL",NA,NA,NA,NA,"GLAND, THYROID",NA,NA,NA,NA,NA,NA,"PATHOLOGIST",NA,NA,"2011-01-10T10:55:00",31
"PDS2014","MI","PDS2014-0049",638,NA,NA,NA,"MIEXAM","Microscopic Examination",NA,"NORMAL","NORMAL",NA,NA,NA,NA,"GLAND, ADRENAL",NA,NA,NA,NA,NA,NA,"PATHOLOGIST",NA,NA,"2011-01-10T14:07:00",31
"PDS2014","MI","PDS2014-0049",639,NA,NA,NA,"MIEXAM","Microscopic Examination",NA,"NORMAL","NORMAL",NA,NA,NA,NA,"BONE MARROW, STERNUM",NA,NA,NA,NA,NA,NA,"PATHOLOGIST",NA,NA,"2011-01-10T14:07:00",31
"PDS2014","MI","PDS2014-0049",640,NA,NA,NA,"MIEXAM","Microscopic Examination",NA,"NORMAL","NORMAL",NA,NA,NA,NA,"BONE, STERNUM",NA,NA,NA,NA,NA,NA,"PATHOLOGIST",NA,NA,"2011-01-10T14:07:00",31
"PDS2014","MI","PDS2014-0049",641,NA,NA,NA,"MIEXAM","Microscopic Examination",NA,"NORMAL","NORMAL",NA,NA,NA,NA,"LIVER",NA,NA,NA,NA,NA,NA,"PATHOLOGIST",NA,NA,"2011-01-10T14:07:00",31
"PDS2014","MI","PDS2014-0049",642,NA,NA,NA,"MIEXAM","Microscopic Examination",NA,"NORMAL","NORMAL",NA,NA,NA,NA,"GLAND, THYROID",NA,NA,NA,NA,NA,NA,"PATHOLOGIST",NA,NA,"2011-01-10T14:07:00",31
"PDS2014","MI","PDS2014-0050",643,NA,NA,NA,"MIEXAM","Microscopic Examination",NA,"NORMAL","NORMAL",NA,NA,NA,NA,"GLAND, ADRENAL",NA,NA,NA,NA,NA,NA,"PATHOLOGIST",NA,NA,"2011-01-10T12:27:00",31
"PDS2014","MI","PDS2014-0050",644,NA,NA,NA,"MIEXAM","Microscopic Examination",NA,"NORMAL","NORMAL",NA,NA,NA,NA,"BONE MARROW, STERNUM",NA,NA,NA,NA,NA,NA,"PATHOLOGIST",NA,NA,"2011-01-10T12:27:00",31
"PDS2014","MI","PDS2014-0050",645,NA,NA,NA,"MIEXAM","Microscopic Examination",NA,"NORMAL","NORMAL",NA,NA,NA,NA,"BONE, STERNUM",NA,NA,NA,NA,NA,NA,"PATHOLOGIST",NA,NA,"2011-01-10T12:27:00",31
"PDS2014","MI","PDS2014-0050",646,NA,NA,NA,"MIEXAM","Microscopic Examination",NA,"MPS-aggregates multifocal, grade 1","MPS-aggregates multifocal","NON-NEOPLASTIC",NA,NA,NA,"LIVER",NA,NA,NA,NA,NA,NA,"PATHOLOGIST","MILD",NA,"2011-01-10T12:27:00",31
"PDS2014","MI","PDS2014-0050",647,NA,NA,NA,"MIEXAM","Microscopic Examination",NA,"NORMAL","NORMAL",NA,NA,NA,NA,"GLAND, THYROID",NA,NA,NA,NA,NA,NA,"PATHOLOGIST",NA,NA,"2011-01-10T12:27:00",31
"PDS2014","MI","PDS2014-0061",648,NA,NA,NA,"MIEXAM","Microscopic Examination",NA,"Vacuolization, cortex, diffuse, grade 1","Vacuolization","NON-NEOPLASTIC",NA,NA,NA,"GLAND, ADRENAL",NA,NA,NA,NA,"BILATERAL",NA,"PATHOLOGIST","MILD",NA,"2011-01-09T10:39:00",30
"PDS2014","MI","PDS2014-0061",649,NA,NA,NA,"MIEXAM","Microscopic Examination",NA,"NORMAL","NORMAL",NA,NA,NA,NA,"ARTERY, AORTA",NA,NA,NA,NA,NA,NA,"PATHOLOGIST",NA,NA,"2011-01-09T10:39:00",30
"PDS2014","MI","PDS2014-0061",650,NA,NA,NA,"MIEXAM","Microscopic Examination",NA,"Hyperplasia diffuse, grade 1","Hyperplasia diffuse","NON-NEOPLASTIC",NA,NA,NA,"BONE MARROW, FEMUR",NA,NA,NA,NA,NA,NA,"PATHOLOGIST","MILD",NA,"2011-01-09T10:39:00",30
"PDS2014","MI","PDS2014-0061",651,NA,NA,NA,"MIEXAM","Microscopic Examination",NA,"Fat vacuoles, diffuse, grade 1","Fat vacuoles","NON-NEOPLASTIC",NA,NA,NA,"BONE MARROW, FEMUR",NA,NA,NA,NA,NA,NA,"PATHOLOGIST","MILD",NA,"2011-01-09T10:39:00",30
"PDS2014","MI","PDS2014-0061",652,NA,NA,NA,"MIEXAM","Microscopic Examination",NA,"Hyperplasia diffuse, grade 1","Hyperplasia diffuse","NON-NEOPLASTIC",NA,NA,NA,"BONE MARROW, STERNUM",NA,NA,NA,NA,NA,NA,"PATHOLOGIST","MILD",NA,"2011-01-09T10:39:00",30
"PDS2014","MI","PDS2014-0061",653,NA,NA,NA,"MIEXAM","Microscopic Examination",NA,"NORMAL","NORMAL",NA,NA,NA,NA,"BONE, STERNUM",NA,NA,NA,NA,NA,NA,"PATHOLOGIST",NA,NA,"2011-01-09T10:39:00",30
"PDS2014","MI","PDS2014-0061",654,NA,NA,NA,"MIEXAM","Microscopic Examination",NA,"NORMAL","NORMAL",NA,NA,NA,NA,"JOINT, STIFLE",NA,NA,NA,NA,NA,NA,"PATHOLOGIST",NA,NA,"2011-01-09T10:39:00",30
"PDS2014","MI","PDS2014-0061",655,NA,NA,NA,"MIEXAM","Microscopic Examination",NA,"NORMAL","NORMAL",NA,NA,NA,NA,"BRAIN",NA,NA,NA,NA,NA,NA,"PATHOLOGIST",NA,NA,"2011-01-09T10:39:00",30
"PDS2014","MI","PDS2014-0061",656,NA,NA,NA,"MIEXAM","Microscopic Examination",NA,"NORMAL","NORMAL",NA,NA,NA,NA,"GLAND, COAGULATING",NA,NA,NA,NA,NA,NA,"PATHOLOGIST",NA,NA,"2011-01-09T10:39:00",30
"PDS2014","MI","PDS2014-0061",657,NA,NA,NA,"MIEXAM","Microscopic Examination",NA,"NORMAL","NORMAL",NA,NA,NA,NA,"EPIDIDYMIS",NA,NA,NA,NA,NA,NA,"PATHOLOGIST",NA,NA,"2011-01-09T10:39:00",30
"PDS2014","MI","PDS2014-0061",658,NA,NA,NA,"MIEXAM","Microscopic Examination",NA,"NORMAL","NORMAL",NA,NA,NA,NA,"ESOPHAGUS",NA,NA,NA,NA,NA,NA,"PATHOLOGIST",NA,NA,"2011-01-09T10:39:00",30
"PDS2014","MI","PDS2014-0061",659,NA,NA,NA,"MIEXAM","Microscopic Examination",NA,"NORMAL","NORMAL",NA,NA,NA,NA,"EYE",NA,NA,NA,NA,NA,NA,"PATHOLOGIST",NA,NA,"2011-01-09T10:39:00",30
"PDS2014","MI","PDS2014-0061",660,NA,NA,NA,"MIEXAM","Microscopic Examination",NA,"NORMAL","NORMAL",NA,NA,NA,NA,"GLAND, HARDERIAN",NA,NA,NA,NA,NA,NA,"PATHOLOGIST",NA,NA,"2011-01-09T10:39:00",30
"PDS2014","MI","PDS2014-0061",661,NA,NA,NA,"MIEXAM","Microscopic Examination",NA,"NORMAL","NORMAL",NA,NA,NA,NA,"HEART",NA,NA,NA,NA,NA,NA,"PATHOLOGIST",NA,NA,"2011-01-09T10:39:00",30
"PDS2014","MI","PDS2014-0061",662,NA,NA,NA,"MIEXAM","Microscopic Examination",NA,"Basophilia tubule(s), cortex, focal/multifocal, grade 1","Basophilia tubule(s)","NON-NEOPLASTIC",NA,NA,NA,"KIDNEY",NA,NA,NA,NA,"BILATERAL",NA,"PATHOLOGIST","MILD",NA,"2011-01-09T10:39:00",30
"PDS2014","MI","PDS2014-0061",663,NA,NA,NA,"MIEXAM","Microscopic Examination",NA,"Inflammation chronic, cortex, focal/multifocal, grade 1","Inflammation chronic","NON-NEOPLASTIC",NA,NA,NA,"KIDNEY",NA,NA,NA,NA,"UNILATERAL",NA,"PATHOLOGIST","MILD",NA,"2011-01-09T10:39:00",30
"PDS2014","MI","PDS2014-0061",664,NA,NA,NA,"MIEXAM","Microscopic Examination",NA,"NORMAL","NORMAL",NA,NA,NA,NA,"LARGE INTESTINE, COLON",NA,NA,NA,NA,NA,NA,"PATHOLOGIST",NA,NA,"2011-01-09T10:39:00",30
"PDS2014","MI","PDS2014-0061",665,NA,NA,NA,"MIEXAM","Microscopic Examination",NA,"NORMAL","NORMAL",NA,NA,NA,NA,"LARGE INTESTINE, RECTUM",NA,NA,NA,NA,NA,NA,"PATHOLOGIST",NA,NA,"2011-01-09T10:39:00",30
"PDS2014","MI","PDS2014-0061",666,NA,NA,NA,"MIEXAM","Microscopic Examination",NA,"NORMAL","NORMAL",NA,NA,NA,NA,"LARGE INTESTINE, CECUM",NA,NA,NA,NA,NA,NA,"PATHOLOGIST",NA,NA,"2011-01-09T10:39:00",30
"PDS2014","MI","PDS2014-0061",667,NA,NA,NA,"MIEXAM","Microscopic Examination",NA,"Inflammation chronic, grade 1","Inflammation chronic","NON-NEOPLASTIC",NA,NA,NA,"LARYNX",NA,NA,NA,NA,NA,NA,"PATHOLOGIST","MILD",NA,"2011-01-09T10:39:00",30
"PDS2014","MI","PDS2014-0061",668,NA,NA,NA,"MIEXAM","Microscopic Examination",NA,"MPS-aggregates multifocal, grade 1","MPS-aggregates multifocal","NON-NEOPLASTIC",NA,NA,NA,"LIVER",NA,NA,NA,NA,NA,NA,"PATHOLOGIST","MILD",NA,"2011-01-09T10:39:00",30
"PDS2014","MI","PDS2014-0061",669,NA,NA,NA,"MIEXAM","Microscopic Examination",NA,"Macrophages intra-alveolar focal/multifocal, grade 1","Macrophages intra-alveolar focal/multifocal","NON-NEOPLASTIC",NA,NA,NA,"LUNG",NA,NA,NA,NA,NA,NA,"PATHOLOGIST","MILD",NA,"2011-01-09T10:39:00",30
"PDS2014","MI","PDS2014-0061",670,NA,NA,NA,"MIEXAM","Microscopic Examination",NA,"NORMAL","NORMAL",NA,NA,NA,NA,"LYMPH NODE, MESENTERIC",NA,NA,NA,NA,NA,NA,"PATHOLOGIST",NA,NA,"2011-01-09T10:39:00",30
"PDS2014","MI","PDS2014-0061",671,NA,NA,NA,"MIEXAM","Microscopic Examination",NA,"NORMAL","NORMAL",NA,NA,NA,NA,"LYMPH NODE, POPLITEAL",NA,NA,NA,NA,NA,NA,"PATHOLOGIST",NA,NA,"2011-01-09T10:39:00",30
"PDS2014","MI","PDS2014-0061",672,NA,NA,NA,"MIEXAM","Microscopic Examination",NA,"NORMAL","NORMAL",NA,NA,NA,NA,"GLAND, MAMMARY",NA,NA,NA,NA,NA,NA,"PATHOLOGIST",NA,NA,"2011-01-09T10:39:00",30
"PDS2014","MI","PDS2014-0061",673,NA,NA,NA,"MIEXAM","Microscopic Examination",NA,"NORMAL","NORMAL",NA,NA,NA,NA,"NERVE, OPTIC",NA,NA,NA,NA,NA,NA,"PATHOLOGIST",NA,NA,"2011-01-09T10:39:00",30
"PDS2014","MI","PDS2014-0061",674,NA,NA,NA,"MIEXAM","Microscopic Examination",NA,"NORMAL","NORMAL",NA,NA,NA,NA,"PANCREAS",NA,NA,NA,NA,NA,NA,"PATHOLOGIST",NA,NA,"2011-01-09T10:39:00",30
"PDS2014","MI","PDS2014-0061",675,NA,NA,NA,"MIEXAM","Microscopic Examination",NA,"NORMAL","NORMAL",NA,NA,NA,NA,"GLAND, PARATHYROID",NA,NA,NA,NA,NA,NA,"PATHOLOGIST",NA,NA,"2011-01-09T10:39:00",30
"PDS2014","MI","PDS2014-0061",676,NA,NA,NA,"MIEXAM","Microscopic Examination",NA,"NORMAL","NORMAL",NA,NA,NA,NA,"NERVE, SCIATIC",NA,NA,NA,NA,NA,NA,"PATHOLOGIST",NA,NA,"2011-01-09T10:39:00",30
"PDS2014","MI","PDS2014-0061",677,NA,NA,NA,"MIEXAM","Microscopic Examination",NA,"NORMAL","NORMAL",NA,NA,NA,NA,"PEYER'S PATCH",NA,NA,NA,NA,NA,NA,"PATHOLOGIST",NA,NA,"2011-01-09T10:39:00",30
"PDS2014","MI","PDS2014-0061",678,NA,NA,NA,"MIEXAM","Microscopic Examination",NA,"NORMAL","NORMAL",NA,NA,NA,NA,"GLAND, PITUITARY",NA,NA,NA,NA,NA,NA,"PATHOLOGIST",NA,NA,"2011-01-09T10:39:00",30
"PDS2014","MI","PDS2014-0061",679,NA,NA,NA,"MIEXAM","Microscopic Examination",NA,"Inflammation chronic, ventral, grade 1","Inflammation chronic","NON-NEOPLASTIC",NA,NA,NA,"GLAND, PROSTATE",NA,NA,NA,NA,NA,NA,"PATHOLOGIST","MILD",NA,"2011-01-09T10:39:00",30
"PDS2014","MI","PDS2014-0061",680,NA,NA,NA,"MIEXAM","Microscopic Examination",NA,"NORMAL","NORMAL",NA,NA,NA,NA,"GLAND, SALIVARY, SUBLINGUAL",NA,NA,NA,NA,NA,NA,"PATHOLOGIST",NA,NA,"2011-01-09T10:39:00",30
"PDS2014","MI","PDS2014-0061",681,NA,NA,NA,"MIEXAM","Microscopic Examination",NA,"NORMAL","NORMAL",NA,NA,NA,NA,"GLAND, SALIVARY, SUBMANDIBULAR",NA,NA,NA,NA,NA,NA,"PATHOLOGIST",NA,NA,"2011-01-09T10:39:00",30
"PDS2014","MI","PDS2014-0061",682,NA,NA,NA,"MIEXAM","Microscopic Examination",NA,"NORMAL","NORMAL",NA,NA,NA,NA,"GLAND, SALIVARY, PAROTID",NA,NA,NA,NA,NA,NA,"PATHOLOGIST",NA,NA,"2011-01-09T10:39:00",30
"PDS2014","MI","PDS2014-0061",683,NA,NA,NA,"MIEXAM","Microscopic Examination",NA,"NORMAL","NORMAL",NA,NA,NA,NA,"GLAND, SEMINAL VESICLE",NA,NA,NA,NA,NA,NA,"PATHOLOGIST",NA,NA,"2011-01-09T10:39:00",30
"PDS2014","MI","PDS2014-0061",684,NA,NA,NA,"MIEXAM","Microscopic Examination",NA,"NORMAL","NORMAL",NA,NA,NA,NA,"MUSCLE, QUADRICEPS FEMORIS",NA,NA,NA,NA,NA,NA,"PATHOLOGIST",NA,NA,"2011-01-09T10:39:00",30
"PDS2014","MI","PDS2014-0061",685,NA,NA,NA,"MIEXAM","Microscopic Examination",NA,"NORMAL","NORMAL",NA,NA,NA,NA,"SKIN",NA,NA,NA,NA,NA,NA,"PATHOLOGIST",NA,NA,"2011-01-09T10:39:00",30
"PDS2014","MI","PDS2014-0061",686,NA,NA,NA,"MIEXAM","Microscopic Examination",NA,"NORMAL","NORMAL",NA,NA,NA,NA,"SMALL INTESTINE, DUODENUM",NA,NA,NA,NA,NA,NA,"PATHOLOGIST",NA,NA,"2011-01-09T10:39:00",30
"PDS2014","MI","PDS2014-0061",687,NA,NA,NA,"MIEXAM","Microscopic Examination",NA,"NORMAL","NORMAL",NA,NA,NA,NA,"SMALL INTESTINE, ILEUM",NA,NA,NA,NA,NA,NA,"PATHOLOGIST",NA,NA,"2011-01-09T10:39:00",30
"PDS2014","MI","PDS2014-0061",688,NA,NA,NA,"MIEXAM","Microscopic Examination",NA,"NORMAL","NORMAL",NA,NA,NA,NA,"SMALL INTESTINE, JEJUNUM",NA,NA,NA,NA,NA,NA,"PATHOLOGIST",NA,NA,"2011-01-09T10:39:00",30
"PDS2014","MI","PDS2014-0061",689,NA,NA,NA,"MIEXAM","Microscopic Examination",NA,"NORMAL","NORMAL",NA,NA,NA,NA,"SPINAL CORD, CERVICAL",NA,NA,NA,NA,NA,NA,"PATHOLOGIST",NA,NA,"2011-01-09T10:39:00",30
"PDS2014","MI","PDS2014-0061",690,NA,NA,NA,"MIEXAM","Microscopic Examination",NA,"NORMAL","NORMAL",NA,NA,NA,NA,"SPINAL CORD, LUMBAR",NA,NA,NA,NA,NA,NA,"PATHOLOGIST",NA,NA,"2011-01-09T10:39:00",30
"PDS2014","MI","PDS2014-0061",691,NA,NA,NA,"MIEXAM","Microscopic Examination",NA,"NORMAL","NORMAL",NA,NA,NA,NA,"SPINAL CORD, THORACIC",NA,NA,NA,NA,NA,NA,"PATHOLOGIST",NA,NA,"2011-01-09T10:39:00",30
"PDS2014","MI","PDS2014-0061",692,NA,NA,NA,"MIEXAM","Microscopic Examination",NA,"Congestion, red pulp, diffuse, grade 1","Congestion","NON-NEOPLASTIC",NA,NA,NA,"SPLEEN",NA,NA,NA,NA,NA,NA,"PATHOLOGIST","MILD",NA,"2011-01-09T10:39:00",30
"PDS2014","MI","PDS2014-0061",693,NA,NA,NA,"MIEXAM","Microscopic Examination",NA,"NORMAL","NORMAL",NA,NA,NA,NA,"STOMACH",NA,NA,NA,NA,NA,NA,"PATHOLOGIST",NA,NA,"2011-01-09T10:39:00",30
"PDS2014","MI","PDS2014-0061",694,NA,NA,NA,"MIEXAM","Microscopic Examination",NA,"NORMAL","NORMAL",NA,NA,NA,NA,"TESTIS",NA,NA,NA,NA,NA,NA,"PATHOLOGIST",NA,NA,"2011-01-09T10:39:00",30
"PDS2014","MI","PDS2014-0061",695,NA,NA,NA,"MIEXAM","Microscopic Examination",NA,"NORMAL","NORMAL",NA,NA,NA,NA,"THYMUS",NA,NA,NA,NA,NA,NA,"PATHOLOGIST",NA,NA,"2011-01-09T10:39:00",30
"PDS2014","MI","PDS2014-0061",696,NA,NA,NA,"MIEXAM","Microscopic Examination",NA,"NORMAL","NORMAL",NA,NA,NA,NA,"GLAND, THYROID",NA,NA,NA,NA,NA,NA,"PATHOLOGIST",NA,NA,"2011-01-09T10:39:00",30
"PDS2014","MI","PDS2014-0061",697,NA,NA,NA,"MIEXAM","Microscopic Examination",NA,"NORMAL","NORMAL",NA,NA,NA,NA,"TONGUE",NA,NA,NA,NA,NA,NA,"PATHOLOGIST",NA,NA,"2011-01-09T10:39:00",30
"PDS2014","MI","PDS2014-0061",698,NA,NA,NA,"MIEXAM","Microscopic Examination",NA,"NORMAL","NORMAL",NA,NA,NA,NA,"TRACHEA",NA,NA,NA,NA,NA,NA,"PATHOLOGIST",NA,NA,"2011-01-09T10:39:00",30
"PDS2014","MI","PDS2014-0061",699,NA,NA,NA,"MIEXAM","Microscopic Examination",NA,"NORMAL","NORMAL",NA,NA,NA,NA,"URETER",NA,NA,NA,NA,NA,NA,"PATHOLOGIST",NA,NA,"2011-01-09T10:39:00",30
"PDS2014","MI","PDS2014-0061",700,NA,NA,NA,"MIEXAM","Microscopic Examination",NA,"NORMAL","NORMAL",NA,NA,NA,NA,"URINARY BLADDER",NA,NA,NA,NA,NA,NA,"PATHOLOGIST",NA,NA,"2011-01-09T10:39:00",30
"PDS2014","MI","PDS2014-0062",701,NA,NA,NA,"MIEXAM","Microscopic Examination",NA,"Vacuolization, cortex, diffuse, grade 1","Vacuolization","NON-NEOPLASTIC",NA,NA,NA,"GLAND, ADRENAL",NA,NA,NA,NA,"BILATERAL",NA,"PATHOLOGIST","MILD",NA,"2011-01-09T13:13:00",30
"PDS2014","MI","PDS2014-0062",702,NA,NA,NA,"MIEXAM","Microscopic Examination",NA,"NORMAL","NORMAL",NA,NA,NA,NA,"ARTERY, AORTA",NA,NA,NA,NA,NA,NA,"PATHOLOGIST",NA,NA,"2011-01-09T13:13:00",30
"PDS2014","MI","PDS2014-0062",703,NA,NA,NA,"MIEXAM","Microscopic Examination",NA,"Fat vacuoles, diffuse, grade 2","Fat vacuoles","NON-NEOPLASTIC",NA,NA,NA,"BONE MARROW, FEMUR",NA,NA,NA,NA,NA,NA,"PATHOLOGIST","MODERATE",NA,"2011-01-09T13:13:00",30
"PDS2014","MI","PDS2014-0062",704,NA,NA,NA,"MIEXAM","Microscopic Examination",NA,"NORMAL","NORMAL",NA,NA,NA,NA,"BONE MARROW, STERNUM",NA,NA,NA,NA,NA,NA,"PATHOLOGIST",NA,NA,"2011-01-09T13:13:00",30
"PDS2014","MI","PDS2014-0062",705,NA,NA,NA,"MIEXAM","Microscopic Examination",NA,"NORMAL","NORMAL",NA,NA,NA,NA,"BONE, STERNUM",NA,NA,NA,NA,NA,NA,"PATHOLOGIST",NA,NA,"2011-01-09T13:13:00",30
"PDS2014","MI","PDS2014-0062",706,NA,NA,NA,"MIEXAM","Microscopic Examination",NA,"NORMAL","NORMAL",NA,NA,NA,NA,"JOINT, STIFLE",NA,NA,NA,NA,NA,NA,"PATHOLOGIST",NA,NA,"2011-01-09T13:13:00",30
"PDS2014","MI","PDS2014-0062",707,NA,NA,NA,"MIEXAM","Microscopic Examination",NA,"NORMAL","NORMAL",NA,NA,NA,NA,"BRAIN",NA,NA,NA,NA,NA,NA,"PATHOLOGIST",NA,NA,"2011-01-09T13:13:00",30
"PDS2014","MI","PDS2014-0062",708,NA,NA,NA,"MIEXAM","Microscopic Examination",NA,"NORMAL","NORMAL",NA,NA,NA,NA,"GLAND, COAGULATING",NA,NA,NA,NA,NA,NA,"PATHOLOGIST",NA,NA,"2011-01-09T13:13:00",30
"PDS2014","MI","PDS2014-0062",709,NA,NA,NA,"MIEXAM","Microscopic Examination",NA,"NORMAL","NORMAL",NA,NA,NA,NA,"EPIDIDYMIS",NA,NA,NA,NA,NA,NA,"PATHOLOGIST",NA,NA,"2011-01-09T13:13:00",30
"PDS2014","MI","PDS2014-0062",710,NA,NA,NA,"MIEXAM","Microscopic Examination",NA,"NORMAL","NORMAL",NA,NA,NA,NA,"ESOPHAGUS",NA,NA,NA,NA,NA,NA,"PATHOLOGIST",NA,NA,"2011-01-09T13:13:00",30
"PDS2014","MI","PDS2014-0062",711,NA,NA,NA,"MIEXAM","Microscopic Examination",NA,"NORMAL","NORMAL",NA,NA,NA,NA,"EYE",NA,NA,NA,NA,NA,NA,"PATHOLOGIST",NA,NA,"2011-01-09T13:13:00",30
"PDS2014","MI","PDS2014-0062",712,NA,NA,NA,"MIEXAM","Microscopic Examination",NA,"NORMAL","NORMAL",NA,NA,NA,NA,"GLAND, HARDERIAN",NA,NA,NA,NA,NA,NA,"PATHOLOGIST",NA,NA,"2011-01-09T13:13:00",30
"PDS2014","MI","PDS2014-0062",713,NA,NA,NA,"MIEXAM","Microscopic Examination",NA,"NORMAL","NORMAL",NA,NA,NA,NA,"HEART",NA,NA,NA,NA,NA,NA,"PATHOLOGIST",NA,NA,"2011-01-09T13:13:00",30
"PDS2014","MI","PDS2014-0062",714,NA,NA,NA,"MIEXAM","Microscopic Examination",NA,"Necrosis, proximal tubule, focal, grade 2","Necrosis","NON-NEOPLASTIC",NA,NA,NA,"KIDNEY",NA,NA,NA,NA,"BILATERAL",NA,"PATHOLOGIST","MODERATE",NA,"2011-01-09T13:13:00",30
"PDS2014","MI","PDS2014-0062",715,NA,NA,NA,"MIEXAM","Microscopic Examination",NA,"NORMAL","NORMAL",NA,NA,NA,NA,"LARGE INTESTINE, COLON",NA,NA,NA,NA,NA,NA,"PATHOLOGIST",NA,NA,"2011-01-09T13:13:00",30
"PDS2014","MI","PDS2014-0062",716,NA,NA,NA,"MIEXAM","Microscopic Examination",NA,"NORMAL","NORMAL",NA,NA,NA,NA,"LARGE INTESTINE, RECTUM",NA,NA,NA,NA,NA,NA,"PATHOLOGIST",NA,NA,"2011-01-09T13:13:00",30
"PDS2014","MI","PDS2014-0062",717,NA,NA,NA,"MIEXAM","Microscopic Examination",NA,"NORMAL","NORMAL",NA,NA,NA,NA,"LARGE INTESTINE, CECUM",NA,NA,NA,NA,NA,NA,"PATHOLOGIST",NA,NA,"2011-01-09T13:13:00",30
"PDS2014","MI","PDS2014-0062",718,NA,NA,NA,"MIEXAM","Microscopic Examination",NA,"NORMAL","NORMAL",NA,NA,NA,NA,"LARYNX",NA,NA,NA,NA,NA,NA,"PATHOLOGIST",NA,NA,"2011-01-09T13:13:00",30
"PDS2014","MI","PDS2014-0062",719,NA,NA,NA,"MIEXAM","Microscopic Examination",NA,"Vacuolization, centrilobular, grade 2","Vacuolization","NON-NEOPLASTIC",NA,NA,NA,"LIVER",NA,NA,NA,NA,NA,NA,"PATHOLOGIST","MODERATE",NA,"2011-01-09T13:13:00",30
"PDS2014","MI","PDS2014-0062",720,NA,NA,NA,"MIEXAM","Microscopic Examination",NA,"Macrophages intra-alveolar focal/multifocal, grade 1","Macrophages intra-alveolar focal/multifocal","NON-NEOPLASTIC",NA,NA,NA,"LUNG",NA,NA,NA,NA,NA,NA,"PATHOLOGIST","MILD",NA,"2011-01-09T13:13:00",30
"PDS2014","MI","PDS2014-0062",721,NA,NA,NA,"MIEXAM","Microscopic Examination",NA,"NORMAL","NORMAL",NA,NA,NA,NA,"LYMPH NODE, MESENTERIC",NA,NA,NA,NA,NA,NA,"PATHOLOGIST",NA,NA,"2011-01-09T13:13:00",30
"PDS2014","MI","PDS2014-0062",722,NA,NA,NA,"MIEXAM","Microscopic Examination",NA,"NORMAL","NORMAL",NA,NA,NA,NA,"LYMPH NODE, POPLITEAL",NA,NA,NA,NA,NA,NA,"PATHOLOGIST",NA,NA,"2011-01-09T13:13:00",30
"PDS2014","MI","PDS2014-0062",723,NA,NA,NA,"MIEXAM","Microscopic Examination",NA,"NORMAL","NORMAL",NA,NA,NA,NA,"GLAND, MAMMARY",NA,NA,NA,NA,NA,NA,"PATHOLOGIST",NA,NA,"2011-01-09T13:13:00",30
"PDS2014","MI","PDS2014-0062",724,NA,NA,NA,"MIEXAM","Microscopic Examination",NA,"NORMAL","NORMAL",NA,NA,NA,NA,"NERVE, OPTIC",NA,NA,NA,NA,NA,NA,"PATHOLOGIST",NA,NA,"2011-01-09T13:13:00",30
"PDS2014","MI","PDS2014-0062",725,NA,NA,NA,"MIEXAM","Microscopic Examination",NA,"Inflammation, acute, grade 1","Inflammation","NON-NEOPLASTIC",NA,NA,NA,"PANCREAS",NA,NA,NA,NA,NA,NA,"PATHOLOGIST","MILD",NA,"2011-01-09T13:13:00",30
"PDS2014","MI","PDS2014-0062",726,NA,NA,NA,"MIEXAM","Microscopic Examination",NA,"NORMAL","NORMAL",NA,NA,NA,NA,"GLAND, PARATHYROID",NA,NA,NA,NA,NA,NA,"PATHOLOGIST",NA,NA,"2011-01-09T13:13:00",30
"PDS2014","MI","PDS2014-0062",727,NA,NA,NA,"MIEXAM","Microscopic Examination",NA,"NORMAL","NORMAL",NA,NA,NA,NA,"NERVE, SCIATIC",NA,NA,NA,NA,NA,NA,"PATHOLOGIST",NA,NA,"2011-01-09T13:13:00",30
"PDS2014","MI","PDS2014-0062",728,NA,NA,NA,"MIEXAM","Microscopic Examination",NA,"NORMAL","NORMAL",NA,NA,NA,NA,"PEYER'S PATCH",NA,NA,NA,NA,NA,NA,"PATHOLOGIST",NA,NA,"2011-01-09T13:13:00",30
"PDS2014","MI","PDS2014-0062",729,NA,NA,NA,"MIEXAM","Microscopic Examination",NA,"NORMAL","NORMAL",NA,NA,NA,NA,"GLAND, PITUITARY",NA,NA,NA,NA,NA,NA,"PATHOLOGIST",NA,NA,"2011-01-09T13:13:00",30
"PDS2014","MI","PDS2014-0062",730,NA,NA,NA,"MIEXAM","Microscopic Examination",NA,"Inflammation chronic, ventral + dorsolateral, grade 2","Inflammation chronic","NON-NEOPLASTIC",NA,NA,NA,"GLAND, PROSTATE",NA,NA,NA,NA,NA,NA,"PATHOLOGIST","MODERATE",NA,"2011-01-09T13:13:00",30
"PDS2014","MI","PDS2014-0062",731,NA,NA,NA,"MIEXAM","Microscopic Examination",NA,"NORMAL","NORMAL",NA,NA,NA,NA,"GLAND, SALIVARY, SUBLINGUAL",NA,NA,NA,NA,NA,NA,"PATHOLOGIST",NA,NA,"2011-01-09T13:13:00",30
"PDS2014","MI","PDS2014-0062",732,NA,NA,NA,"MIEXAM","Microscopic Examination",NA,"NORMAL","NORMAL",NA,NA,NA,NA,"GLAND, SALIVARY, SUBMANDIBULAR",NA,NA,NA,NA,NA,NA,"PATHOLOGIST",NA,NA,"2011-01-09T13:13:00",30
"PDS2014","MI","PDS2014-0062",733,NA,NA,NA,"MIEXAM","Microscopic Examination",NA,"NORMAL","NORMAL",NA,NA,NA,NA,"GLAND, SALIVARY, PAROTID",NA,NA,NA,NA,NA,NA,"PATHOLOGIST",NA,NA,"2011-01-09T13:13:00",30
"PDS2014","MI","PDS2014-0062",734,NA,NA,NA,"MIEXAM","Microscopic Examination",NA,"NORMAL","NORMAL",NA,NA,NA,NA,"GLAND, SEMINAL VESICLE",NA,NA,NA,NA,NA,NA,"PATHOLOGIST",NA,NA,"2011-01-09T13:13:00",30
"PDS2014","MI","PDS2014-0062",735,NA,NA,NA,"MIEXAM","Microscopic Examination",NA,"NORMAL","NORMAL",NA,NA,NA,NA,"MUSCLE, QUADRICEPS FEMORIS",NA,NA,NA,NA,NA,NA,"PATHOLOGIST",NA,NA,"2011-01-09T13:13:00",30
"PDS2014","MI","PDS2014-0062",736,NA,NA,NA,"MIEXAM","Microscopic Examination",NA,"NORMAL","NORMAL",NA,NA,NA,NA,"SKIN",NA,NA,NA,NA,NA,NA,"PATHOLOGIST",NA,NA,"2011-01-09T13:13:00",30
"PDS2014","MI","PDS2014-0062",737,NA,NA,NA,"MIEXAM","Microscopic Examination",NA,"NORMAL","NORMAL",NA,NA,NA,NA,"SMALL INTESTINE, DUODENUM",NA,NA,NA,NA,NA,NA,"PATHOLOGIST",NA,NA,"2011-01-09T13:13:00",30
"PDS2014","MI","PDS2014-0062",738,NA,NA,NA,"MIEXAM","Microscopic Examination",NA,"NORMAL","NORMAL",NA,NA,NA,NA,"SMALL INTESTINE, ILEUM",NA,NA,NA,NA,NA,NA,"PATHOLOGIST",NA,NA,"2011-01-09T13:13:00",30
"PDS2014","MI","PDS2014-0062",739,NA,NA,NA,"MIEXAM","Microscopic Examination",NA,"NORMAL","NORMAL",NA,NA,NA,NA,"SMALL INTESTINE, JEJUNUM",NA,NA,NA,NA,NA,NA,"PATHOLOGIST",NA,NA,"2011-01-09T13:13:00",30
"PDS2014","MI","PDS2014-0062",740,NA,NA,NA,"MIEXAM","Microscopic Examination",NA,"NORMAL","NORMAL",NA,NA,NA,NA,"SPINAL CORD, CERVICAL",NA,NA,NA,NA,NA,NA,"PATHOLOGIST",NA,NA,"2011-01-09T13:13:00",30
"PDS2014","MI","PDS2014-0062",741,NA,NA,NA,"MIEXAM","Microscopic Examination",NA,"NORMAL","NORMAL",NA,NA,NA,NA,"SPINAL CORD, LUMBAR",NA,NA,NA,NA,NA,NA,"PATHOLOGIST",NA,NA,"2011-01-09T13:13:00",30
"PDS2014","MI","PDS2014-0062",742,NA,NA,NA,"MIEXAM","Microscopic Examination",NA,"NORMAL","NORMAL",NA,NA,NA,NA,"SPINAL CORD, THORACIC",NA,NA,NA,NA,NA,NA,"PATHOLOGIST",NA,NA,"2011-01-09T13:13:00",30
"PDS2014","MI","PDS2014-0062",743,NA,NA,NA,"MIEXAM","Microscopic Examination",NA,"Congestion, red pulp, diffuse, grade 1","Congestion","NON-NEOPLASTIC",NA,NA,NA,"SPLEEN",NA,NA,NA,NA,NA,NA,"PATHOLOGIST","MILD",NA,"2011-01-09T13:13:00",30
"PDS2014","MI","PDS2014-0062",744,NA,NA,NA,"MIEXAM","Microscopic Examination",NA,"NORMAL","NORMAL",NA,NA,NA,NA,"STOMACH",NA,NA,NA,NA,NA,NA,"PATHOLOGIST",NA,NA,"2011-01-09T13:13:00",30
"PDS2014","MI","PDS2014-0062",745,NA,NA,NA,"MIEXAM","Microscopic Examination",NA,"NORMAL","NORMAL",NA,NA,NA,NA,"TESTIS",NA,NA,NA,NA,NA,NA,"PATHOLOGIST",NA,NA,"2011-01-09T13:13:00",30
"PDS2014","MI","PDS2014-0062",746,NA,NA,NA,"MIEXAM","Microscopic Examination",NA,"NORMAL","NORMAL",NA,NA,NA,NA,"THYMUS",NA,NA,NA,NA,NA,NA,"PATHOLOGIST",NA,NA,"2011-01-09T13:13:00",30
"PDS2014","MI","PDS2014-0062",747,NA,NA,NA,"MIEXAM","Microscopic Examination",NA,"Inflammation chronic, adventitia, focal, grade 1","Inflammation chronic","NON-NEOPLASTIC",NA,NA,NA,"GLAND, THYROID",NA,NA,NA,NA,"UNILATERAL",NA,"PATHOLOGIST","MILD",NA,"2011-01-09T13:13:00",30
"PDS2014","MI","PDS2014-0062",748,NA,NA,NA,"MIEXAM","Microscopic Examination",NA,"NORMAL","NORMAL",NA,NA,NA,NA,"TONGUE",NA,NA,NA,NA,NA,NA,"PATHOLOGIST",NA,NA,"2011-01-09T13:13:00",30
"PDS2014","MI","PDS2014-0062",749,NA,NA,NA,"MIEXAM","Microscopic Examination",NA,"NORMAL","NORMAL",NA,NA,NA,NA,"TRACHEA",NA,NA,NA,NA,NA,NA,"PATHOLOGIST",NA,NA,"2011-01-09T13:13:00",30
"PDS2014","MI","PDS2014-0062",750,NA,NA,NA,"MIEXAM","Microscopic Examination",NA,"NORMAL","NORMAL",NA,NA,NA,NA,"URETER",NA,NA,NA,NA,NA,NA,"PATHOLOGIST",NA,NA,"2011-01-09T13:13:00",30
"PDS2014","MI","PDS2014-0062",751,NA,NA,NA,"MIEXAM","Microscopic Examination",NA,"Inflammation chronic, focal/multifocal, grade 1","Inflammation chronic","NON-NEOPLASTIC",NA,NA,NA,"URINARY BLADDER",NA,NA,NA,NA,NA,NA,"PATHOLOGIST","MILD",NA,"2011-01-09T13:13:00",30
"PDS2014","MI","PDS2014-0063",752,NA,NA,NA,"MIEXAM","Microscopic Examination",NA,"Vacuolization, cortex, diffuse, grade 1","Vacuolization","NON-NEOPLASTIC",NA,NA,NA,"GLAND, ADRENAL",NA,NA,NA,NA,"BILATERAL",NA,"PATHOLOGIST","MILD",NA,"2011-01-09T14:52:00",30
"PDS2014","MI","PDS2014-0063",753,NA,NA,NA,"MIEXAM","Microscopic Examination",NA,"NORMAL","NORMAL",NA,NA,NA,NA,"ARTERY, AORTA",NA,NA,NA,NA,NA,NA,"PATHOLOGIST",NA,NA,"2011-01-09T14:52:00",30
"PDS2014","MI","PDS2014-0063",754,NA,NA,NA,"MIEXAM","Microscopic Examination",NA,"Fat vacuoles, diffuse, grade 1","Fat vacuoles","NON-NEOPLASTIC",NA,NA,NA,"BONE MARROW, FEMUR",NA,NA,NA,NA,NA,NA,"PATHOLOGIST","MILD",NA,"2011-01-09T14:52:00",30
"PDS2014","MI","PDS2014-0063",755,NA,NA,NA,"MIEXAM","Microscopic Examination",NA,"NORMAL","NORMAL",NA,NA,NA,NA,"BONE MARROW, STERNUM",NA,NA,NA,NA,NA,NA,"PATHOLOGIST",NA,NA,"2011-01-09T14:52:00",30
"PDS2014","MI","PDS2014-0063",756,NA,NA,NA,"MIEXAM","Microscopic Examination",NA,"NORMAL","NORMAL",NA,NA,NA,NA,"BONE, STERNUM",NA,NA,NA,NA,NA,NA,"PATHOLOGIST",NA,NA,"2011-01-09T14:52:00",30
"PDS2014","MI","PDS2014-0063",757,NA,NA,NA,"MIEXAM","Microscopic Examination",NA,"NORMAL","NORMAL",NA,NA,NA,NA,"JOINT, STIFLE",NA,NA,NA,NA,NA,NA,"PATHOLOGIST",NA,NA,"2011-01-09T14:52:00",30
"PDS2014","MI","PDS2014-0063",758,NA,NA,NA,"MIEXAM","Microscopic Examination",NA,"NORMAL","NORMAL",NA,NA,NA,NA,"BRAIN",NA,NA,NA,NA,NA,NA,"PATHOLOGIST",NA,NA,"2011-01-09T14:52:00",30
"PDS2014","MI","PDS2014-0063",759,NA,NA,NA,"MIEXAM","Microscopic Examination",NA,"NORMAL","NORMAL",NA,NA,NA,NA,"GLAND, COAGULATING",NA,NA,NA,NA,NA,NA,"PATHOLOGIST",NA,NA,"2011-01-09T14:52:00",30
"PDS2014","MI","PDS2014-0063",760,NA,NA,NA,"MIEXAM","Microscopic Examination",NA,"NORMAL","NORMAL",NA,NA,NA,NA,"EPIDIDYMIS",NA,NA,NA,NA,NA,NA,"PATHOLOGIST",NA,NA,"2011-01-09T14:52:00",30
"PDS2014","MI","PDS2014-0063",761,NA,NA,NA,"MIEXAM","Microscopic Examination",NA,"NORMAL","NORMAL",NA,NA,NA,NA,"ESOPHAGUS",NA,NA,NA,NA,NA,NA,"PATHOLOGIST",NA,NA,"2011-01-09T14:52:00",30
"PDS2014","MI","PDS2014-0063",762,NA,NA,NA,"MIEXAM","Microscopic Examination",NA,"NORMAL","NORMAL",NA,NA,NA,NA,"EYE",NA,NA,NA,NA,NA,NA,"PATHOLOGIST",NA,NA,"2011-01-09T14:52:00",30
"PDS2014","MI","PDS2014-0063",763,NA,NA,NA,"MIEXAM","Microscopic Examination",NA,"NORMAL","NORMAL",NA,NA,NA,NA,"GLAND, HARDERIAN",NA,NA,NA,NA,NA,NA,"PATHOLOGIST",NA,NA,"2011-01-09T14:52:00",30
"PDS2014","MI","PDS2014-0063",764,NA,NA,NA,"MIEXAM","Microscopic Examination",NA,"NORMAL","NORMAL",NA,NA,NA,NA,"HEART",NA,NA,NA,NA,NA,NA,"PATHOLOGIST",NA,NA,"2011-01-09T14:52:00",30
"PDS2014","MI","PDS2014-0063",765,NA,NA,NA,"MIEXAM","Microscopic Examination",NA,"Basophilia tubule(s), cortex, focal/multifocal, grade 1","Basophilia tubule(s)","NON-NEOPLASTIC",NA,NA,NA,"KIDNEY",NA,NA,NA,NA,"UNILATERAL",NA,"PATHOLOGIST","MILD",NA,"2011-01-09T14:52:00",30
"PDS2014","MI","PDS2014-0063",766,NA,NA,NA,"MIEXAM","Microscopic Examination",NA,"NORMAL","NORMAL",NA,NA,NA,NA,"LARGE INTESTINE, COLON",NA,NA,NA,NA,NA,NA,"PATHOLOGIST",NA,NA,"2011-01-09T14:52:00",30
"PDS2014","MI","PDS2014-0063",767,NA,NA,NA,"MIEXAM","Microscopic Examination",NA,"NORMAL","NORMAL",NA,NA,NA,NA,"LARGE INTESTINE, RECTUM",NA,NA,NA,NA,NA,NA,"PATHOLOGIST",NA,NA,"2011-01-09T14:52:00",30
"PDS2014","MI","PDS2014-0063",768,NA,NA,NA,"MIEXAM","Microscopic Examination",NA,"NORMAL","NORMAL",NA,NA,NA,NA,"LARGE INTESTINE, CECUM",NA,NA,NA,NA,NA,NA,"PATHOLOGIST",NA,NA,"2011-01-09T14:52:00",30
"PDS2014","MI","PDS2014-0063",769,NA,NA,NA,"MIEXAM","Microscopic Examination",NA,"NORMAL","NORMAL",NA,NA,NA,NA,"LARYNX",NA,NA,NA,NA,NA,NA,"PATHOLOGIST",NA,NA,"2011-01-09T14:52:00",30
"PDS2014","MI","PDS2014-0063",770,NA,NA,NA,"MIEXAM","Microscopic Examination",NA,"MPS-aggregates multifocal, grade 1","MPS-aggregates multifocal","NON-NEOPLASTIC",NA,NA,NA,"LIVER",NA,NA,NA,NA,NA,NA,"PATHOLOGIST","MILD",NA,"2011-01-09T14:52:00",30
"PDS2014","MI","PDS2014-0063",771,NA,NA,NA,"MIEXAM","Microscopic Examination",NA,"Inflammation chronic, focal, grade 1","Inflammation chronic","NON-NEOPLASTIC",NA,NA,NA,"LUNG",NA,NA,NA,NA,NA,NA,"PATHOLOGIST","MILD",NA,"2011-01-09T14:52:00",30
"PDS2014","MI","PDS2014-0063",772,NA,NA,NA,"MIEXAM","Microscopic Examination",NA,"Macrophages intra-alveolar focal/multifocal, grade 1","Macrophages intra-alveolar focal/multifocal","NON-NEOPLASTIC",NA,NA,NA,"LUNG",NA,NA,NA,NA,NA,NA,"PATHOLOGIST","MILD",NA,"2011-01-09T14:52:00",30
"PDS2014","MI","PDS2014-0063",773,NA,NA,NA,"MIEXAM","Microscopic Examination",NA,"Metaplasia, chondro-osseous, focal, grade 1","Metaplasia","NON-NEOPLASTIC",NA,NA,NA,"LUNG",NA,NA,NA,NA,NA,NA,"PATHOLOGIST","MILD",NA,"2011-01-09T14:52:00",30
"PDS2014","MI","PDS2014-0063",774,NA,NA,NA,"MIEXAM","Microscopic Examination",NA,"NORMAL","NORMAL",NA,NA,NA,NA,"LYMPH NODE, MESENTERIC",NA,NA,NA,NA,NA,NA,"PATHOLOGIST",NA,NA,"2011-01-09T14:52:00",30
"PDS2014","MI","PDS2014-0063",775,NA,NA,NA,"MIEXAM","Microscopic Examination",NA,"NORMAL","NORMAL",NA,NA,NA,NA,"LYMPH NODE, POPLITEAL",NA,NA,NA,NA,NA,NA,"PATHOLOGIST",NA,NA,"2011-01-09T14:52:00",30
"PDS2014","MI","PDS2014-0063",776,NA,NA,NA,"MIEXAM","Microscopic Examination",NA,"NORMAL","NORMAL",NA,NA,NA,NA,"GLAND, MAMMARY",NA,NA,NA,NA,NA,NA,"PATHOLOGIST",NA,NA,"2011-01-09T14:52:00",30
"PDS2014","MI","PDS2014-0063",777,NA,NA,NA,"MIEXAM","Microscopic Examination",NA,"NORMAL","NORMAL",NA,NA,NA,NA,"NERVE, OPTIC",NA,NA,NA,NA,NA,NA,"PATHOLOGIST",NA,NA,"2011-01-09T14:52:00",30
"PDS2014","MI","PDS2014-0063",778,NA,NA,NA,"MIEXAM","Microscopic Examination",NA,"NORMAL","NORMAL",NA,NA,NA,NA,"PANCREAS",NA,NA,NA,NA,NA,NA,"PATHOLOGIST",NA,NA,"2011-01-09T14:52:00",30
"PDS2014","MI","PDS2014-0063",779,NA,NA,NA,"MIEXAM","Microscopic Examination",NA,"NORMAL","NORMAL",NA,NA,NA,NA,"GLAND, PARATHYROID",NA,NA,NA,NA,NA,NA,"PATHOLOGIST",NA,NA,"2011-01-09T14:52:00",30
"PDS2014","MI","PDS2014-0063",780,NA,NA,NA,"MIEXAM","Microscopic Examination",NA,"NORMAL","NORMAL",NA,NA,NA,NA,"NERVE, SCIATIC",NA,NA,NA,NA,NA,NA,"PATHOLOGIST",NA,NA,"2011-01-09T14:52:00",30
"PDS2014","MI","PDS2014-0063",781,NA,NA,NA,"MIEXAM","Microscopic Examination",NA,"NORMAL","NORMAL",NA,NA,NA,NA,"PEYER'S PATCH",NA,NA,NA,NA,NA,NA,"PATHOLOGIST",NA,NA,"2011-01-09T14:52:00",30
"PDS2014","MI","PDS2014-0063",782,NA,NA,NA,"MIEXAM","Microscopic Examination",NA,"NORMAL","NORMAL",NA,NA,NA,NA,"GLAND, PITUITARY",NA,NA,NA,NA,NA,NA,"PATHOLOGIST",NA,NA,"2011-01-09T14:52:00",30
"PDS2014","MI","PDS2014-0063",783,NA,NA,NA,"MIEXAM","Microscopic Examination",NA,"Inflammation chronic, ventral, grade 1","Inflammation chronic","NON-NEOPLASTIC",NA,NA,NA,"GLAND, PROSTATE",NA,NA,NA,NA,NA,NA,"PATHOLOGIST","MILD",NA,"2011-01-09T14:52:00",30
"PDS2014","MI","PDS2014-0063",784,NA,NA,NA,"MIEXAM","Microscopic Examination",NA,"NORMAL","NORMAL",NA,NA,NA,NA,"GLAND, SALIVARY, SUBLINGUAL",NA,NA,NA,NA,NA,NA,"PATHOLOGIST",NA,NA,"2011-01-09T14:52:00",30
"PDS2014","MI","PDS2014-0063",785,NA,NA,NA,"MIEXAM","Microscopic Examination",NA,"NORMAL","NORMAL",NA,NA,NA,NA,"GLAND, SALIVARY, SUBMANDIBULAR",NA,NA,NA,NA,NA,NA,"PATHOLOGIST",NA,NA,"2011-01-09T14:52:00",30
"PDS2014","MI","PDS2014-0063",786,NA,NA,NA,"MIEXAM","Microscopic Examination",NA,"NORMAL","NORMAL",NA,NA,NA,NA,"GLAND, SALIVARY, PAROTID",NA,NA,NA,NA,NA,NA,"PATHOLOGIST",NA,NA,"2011-01-09T14:52:00",30
"PDS2014","MI","PDS2014-0063",787,NA,NA,NA,"MIEXAM","Microscopic Examination",NA,"NORMAL","NORMAL",NA,NA,NA,NA,"GLAND, SEMINAL VESICLE",NA,NA,NA,NA,NA,NA,"PATHOLOGIST",NA,NA,"2011-01-09T14:52:00",30
"PDS2014","MI","PDS2014-0063",788,NA,NA,NA,"MIEXAM","Microscopic Examination",NA,"NORMAL","NORMAL",NA,NA,NA,NA,"MUSCLE, QUADRICEPS FEMORIS",NA,NA,NA,NA,NA,NA,"PATHOLOGIST",NA,NA,"2011-01-09T14:52:00",30
"PDS2014","MI","PDS2014-0063",789,NA,NA,NA,"MIEXAM","Microscopic Examination",NA,"NORMAL","NORMAL",NA,NA,NA,NA,"SKIN",NA,NA,NA,NA,NA,NA,"PATHOLOGIST",NA,NA,"2011-01-09T14:52:00",30
"PDS2014","MI","PDS2014-0063",790,NA,NA,NA,"MIEXAM","Microscopic Examination",NA,"NORMAL","NORMAL",NA,NA,NA,NA,"SMALL INTESTINE, DUODENUM",NA,NA,NA,NA,NA,NA,"PATHOLOGIST",NA,NA,"2011-01-09T14:52:00",30
"PDS2014","MI","PDS2014-0063",791,NA,NA,NA,"MIEXAM","Microscopic Examination",NA,"NORMAL","NORMAL",NA,NA,NA,NA,"SMALL INTESTINE, ILEUM",NA,NA,NA,NA,NA,NA,"PATHOLOGIST",NA,NA,"2011-01-09T14:52:00",30
"PDS2014","MI","PDS2014-0063",792,NA,NA,NA,"MIEXAM","Microscopic Examination",NA,"NORMAL","NORMAL",NA,NA,NA,NA,"SMALL INTESTINE, JEJUNUM",NA,NA,NA,NA,NA,NA,"PATHOLOGIST",NA,NA,"2011-01-09T14:52:00",30
"PDS2014","MI","PDS2014-0063",793,NA,NA,NA,"MIEXAM","Microscopic Examination",NA,"NORMAL","NORMAL",NA,NA,NA,NA,"SPINAL CORD, CERVICAL",NA,NA,NA,NA,NA,NA,"PATHOLOGIST",NA,NA,"2011-01-09T14:52:00",30
"PDS2014","MI","PDS2014-0063",794,NA,NA,NA,"MIEXAM","Microscopic Examination",NA,"NORMAL","NORMAL",NA,NA,NA,NA,"SPINAL CORD, LUMBAR",NA,NA,NA,NA,NA,NA,"PATHOLOGIST",NA,NA,"2011-01-09T14:52:00",30
"PDS2014","MI","PDS2014-0063",795,NA,NA,NA,"MIEXAM","Microscopic Examination",NA,"NORMAL","NORMAL",NA,NA,NA,NA,"SPINAL CORD, THORACIC",NA,NA,NA,NA,NA,NA,"PATHOLOGIST",NA,NA,"2011-01-09T14:52:00",30
"PDS2014","MI","PDS2014-0063",796,NA,NA,NA,"MIEXAM","Microscopic Examination",NA,"Congestion, red pulp, diffuse, grade 1","Congestion","NON-NEOPLASTIC",NA,NA,NA,"SPLEEN",NA,NA,NA,NA,NA,NA,"PATHOLOGIST","MILD",NA,"2011-01-09T14:52:00",30
"PDS2014","MI","PDS2014-0063",797,NA,NA,NA,"MIEXAM","Microscopic Examination",NA,"NORMAL","NORMAL",NA,NA,NA,NA,"STOMACH",NA,NA,NA,NA,NA,NA,"PATHOLOGIST",NA,NA,"2011-01-09T14:52:00",30
"PDS2014","MI","PDS2014-0063",798,NA,NA,NA,"MIEXAM","Microscopic Examination",NA,"NORMAL","NORMAL",NA,NA,NA,NA,"TESTIS",NA,NA,NA,NA,NA,NA,"PATHOLOGIST",NA,NA,"2011-01-09T14:52:00",30
"PDS2014","MI","PDS2014-0063",799,NA,NA,NA,"MIEXAM","Microscopic Examination",NA,"NORMAL","NORMAL",NA,NA,NA,NA,"THYMUS",NA,NA,NA,NA,NA,NA,"PATHOLOGIST",NA,NA,"2011-01-09T14:52:00",30
"PDS2014","MI","PDS2014-0063",800,NA,NA,NA,"MIEXAM","Microscopic Examination",NA,"Ectopic lymphoid tissue, focus, grade 1","Ectopic lymphoid tissue","NON-NEOPLASTIC",NA,NA,NA,"GLAND, THYROID",NA,NA,NA,NA,"UNILATERAL",NA,"PATHOLOGIST","MILD",NA,"2011-01-09T14:52:00",30
"PDS2014","MI","PDS2014-0063",801,NA,NA,NA,"MIEXAM","Microscopic Examination",NA,"NORMAL","NORMAL",NA,NA,NA,NA,"TONGUE",NA,NA,NA,NA,NA,NA,"PATHOLOGIST",NA,NA,"2011-01-09T14:52:00",30
"PDS2014","MI","PDS2014-0063",802,NA,NA,NA,"MIEXAM","Microscopic Examination",NA,"Infiltration mononuclear cell, submucosa, grade 1","Infiltration mononuclear cell","NON-NEOPLASTIC",NA,NA,NA,"TRACHEA",NA,NA,NA,NA,NA,NA,"PATHOLOGIST","MILD",NA,"2011-01-09T14:52:00",30
"PDS2014","MI","PDS2014-0063",803,NA,NA,NA,"MIEXAM","Microscopic Examination",NA,"NORMAL","NORMAL",NA,NA,NA,NA,"URETER",NA,NA,NA,NA,NA,NA,"PATHOLOGIST",NA,NA,"2011-01-09T14:52:00",30
"PDS2014","MI","PDS2014-0063",804,NA,NA,NA,"MIEXAM","Microscopic Examination",NA,"NORMAL","NORMAL",NA,NA,NA,NA,"URINARY BLADDER",NA,NA,NA,NA,NA,NA,"PATHOLOGIST",NA,NA,"2011-01-09T14:52:00",30
"PDS2014","MI","PDS2014-0064",805,NA,NA,NA,"MIEXAM","Microscopic Examination",NA,"Vacuolization, cortex, diffuse, grade 1","Vacuolization","NON-NEOPLASTIC",NA,NA,NA,"GLAND, ADRENAL",NA,NA,NA,NA,"BILATERAL",NA,"PATHOLOGIST","MILD",NA,"2011-01-09T12:02:00",30
"PDS2014","MI","PDS2014-0064",806,NA,NA,NA,"MIEXAM","Microscopic Examination",NA,"NORMAL","NORMAL",NA,NA,NA,NA,"ARTERY, AORTA",NA,NA,NA,NA,NA,NA,"PATHOLOGIST",NA,NA,"2011-01-09T12:02:00",30
"PDS2014","MI","PDS2014-0064",807,NA,NA,NA,"MIEXAM","Microscopic Examination",NA,"Fat vacuoles, diffuse, grade 1","Fat vacuoles","NON-NEOPLASTIC",NA,NA,NA,"BONE MARROW, FEMUR",NA,NA,NA,NA,NA,NA,"PATHOLOGIST","MILD",NA,"2011-01-09T12:02:00",30
"PDS2014","MI","PDS2014-0064",808,NA,NA,NA,"MIEXAM","Microscopic Examination",NA,"NORMAL","NORMAL",NA,NA,NA,NA,"BONE MARROW, STERNUM",NA,NA,NA,NA,NA,NA,"PATHOLOGIST",NA,NA,"2011-01-09T12:02:00",30
"PDS2014","MI","PDS2014-0064",809,NA,NA,NA,"MIEXAM","Microscopic Examination",NA,"NORMAL","NORMAL",NA,NA,NA,NA,"BONE, STERNUM",NA,NA,NA,NA,NA,NA,"PATHOLOGIST",NA,NA,"2011-01-09T12:02:00",30
"PDS2014","MI","PDS2014-0064",810,NA,NA,NA,"MIEXAM","Microscopic Examination",NA,"NORMAL","NORMAL",NA,NA,NA,NA,"JOINT, STIFLE",NA,NA,NA,NA,NA,NA,"PATHOLOGIST",NA,NA,"2011-01-09T12:02:00",30
"PDS2014","MI","PDS2014-0064",811,NA,NA,NA,"MIEXAM","Microscopic Examination",NA,"NORMAL","NORMAL",NA,NA,NA,NA,"BRAIN",NA,NA,NA,NA,NA,NA,"PATHOLOGIST",NA,NA,"2011-01-09T12:02:00",30
"PDS2014","MI","PDS2014-0064",812,NA,NA,NA,"MIEXAM","Microscopic Examination",NA,"NORMAL","NORMAL",NA,NA,NA,NA,"GLAND, COAGULATING",NA,NA,NA,NA,NA,NA,"PATHOLOGIST",NA,NA,"2011-01-09T12:02:00",30
"PDS2014","MI","PDS2014-0064",813,NA,NA,NA,"MIEXAM","Microscopic Examination",NA,"NORMAL","NORMAL",NA,NA,NA,NA,"EPIDIDYMIS",NA,NA,NA,NA,NA,NA,"PATHOLOGIST",NA,NA,"2011-01-09T12:02:00",30
"PDS2014","MI","PDS2014-0064",814,NA,NA,NA,"MIEXAM","Microscopic Examination",NA,"NORMAL","NORMAL",NA,NA,NA,NA,"ESOPHAGUS",NA,NA,NA,NA,NA,NA,"PATHOLOGIST",NA,NA,"2011-01-09T12:02:00",30
"PDS2014","MI","PDS2014-0064",815,NA,NA,NA,"MIEXAM","Microscopic Examination",NA,"NORMAL","NORMAL",NA,NA,NA,NA,"EYE",NA,NA,NA,NA,NA,NA,"PATHOLOGIST",NA,NA,"2011-01-09T12:02:00",30
"PDS2014","MI","PDS2014-0064",816,NA,NA,NA,"MIEXAM","Microscopic Examination",NA,"NORMAL","NORMAL",NA,NA,NA,NA,"GLAND, HARDERIAN",NA,NA,NA,NA,NA,NA,"PATHOLOGIST",NA,NA,"2011-01-09T12:02:00",30
"PDS2014","MI","PDS2014-0064",817,NA,NA,NA,"MIEXAM","Microscopic Examination",NA,"Inflammation chronic, myocardium, focal, left ventricle, grade 1","Inflammation chronic","NON-NEOPLASTIC",NA,NA,NA,"HEART",NA,NA,NA,NA,NA,NA,"PATHOLOGIST","MILD",NA,"2011-01-09T12:02:00",30
"PDS2014","MI","PDS2014-0064",818,NA,NA,NA,"MIEXAM","Microscopic Examination",NA,"Necrosis, proximal tubule, focal, grade 2","Necrosis","NON-NEOPLASTIC",NA,NA,NA,"KIDNEY",NA,NA,NA,NA,"BILATERAL",NA,"PATHOLOGIST","MODERATE",NA,"2011-01-09T12:02:00",30
"PDS2014","MI","PDS2014-0064",819,NA,NA,NA,"MIEXAM","Microscopic Examination",NA,"NORMAL","NORMAL",NA,NA,NA,NA,"LARGE INTESTINE, COLON",NA,NA,NA,NA,NA,NA,"PATHOLOGIST",NA,NA,"2011-01-09T12:02:00",30
"PDS2014","MI","PDS2014-0064",820,NA,NA,NA,"MIEXAM","Microscopic Examination",NA,"NORMAL","NORMAL",NA,NA,NA,NA,"LARGE INTESTINE, RECTUM",NA,NA,NA,NA,NA,NA,"PATHOLOGIST",NA,NA,"2011-01-09T12:02:00",30
"PDS2014","MI","PDS2014-0064",821,NA,NA,NA,"MIEXAM","Microscopic Examination",NA,"NORMAL","NORMAL",NA,NA,NA,NA,"LARGE INTESTINE, CECUM",NA,NA,NA,NA,NA,NA,"PATHOLOGIST",NA,NA,"2011-01-09T12:02:00",30
"PDS2014","MI","PDS2014-0064",822,NA,NA,NA,"MIEXAM","Microscopic Examination",NA,"NORMAL","NORMAL",NA,NA,NA,NA,"LARYNX",NA,NA,NA,NA,NA,NA,"PATHOLOGIST",NA,NA,"2011-01-09T12:02:00",30
"PDS2014","MI","PDS2014-0064",823,NA,NA,NA,"MIEXAM","Microscopic Examination",NA,"Vacuolization, centrilobular, grade 2","Vacuolization","NON-NEOPLASTIC",NA,NA,NA,"LIVER",NA,NA,NA,NA,NA,NA,"PATHOLOGIST","MODERATE",NA,"2011-01-09T12:02:00",30
"PDS2014","MI","PDS2014-0064",824,NA,NA,NA,"MIEXAM","Microscopic Examination",NA,"Infiltration granulocytic, perivascular, focal, grade 1","Infiltration granulocytic","NON-NEOPLASTIC",NA,NA,NA,"LUNG",NA,NA,NA,NA,NA,NA,"PATHOLOGIST","MILD",NA,"2011-01-09T12:02:00",30
"PDS2014","MI","PDS2014-0064",825,NA,NA,NA,"MIEXAM","Microscopic Examination",NA,"Macrophages intra-alveolar focal/multifocal, grade 1","Macrophages intra-alveolar focal/multifocal","NON-NEOPLASTIC",NA,NA,NA,"LUNG",NA,NA,NA,NA,NA,NA,"PATHOLOGIST","MILD",NA,"2011-01-09T12:02:00",30
"PDS2014","MI","PDS2014-0064",826,NA,NA,NA,"MIEXAM","Microscopic Examination",NA,"NORMAL","NORMAL",NA,NA,NA,NA,"LYMPH NODE, MESENTERIC",NA,NA,NA,NA,NA,NA,"PATHOLOGIST",NA,NA,"2011-01-09T12:02:00",30
"PDS2014","MI","PDS2014-0064",827,NA,NA,NA,"MIEXAM","Microscopic Examination",NA,"NORMAL","NORMAL",NA,NA,NA,NA,"LYMPH NODE, POPLITEAL",NA,NA,NA,NA,NA,NA,"PATHOLOGIST",NA,NA,"2011-01-09T12:02:00",30
"PDS2014","MI","PDS2014-0064",828,NA,NA,NA,"MIEXAM","Microscopic Examination",NA,"NORMAL","NORMAL",NA,NA,NA,NA,"GLAND, MAMMARY",NA,NA,NA,NA,NA,NA,"PATHOLOGIST",NA,NA,"2011-01-09T12:02:00",30
"PDS2014","MI","PDS2014-0064",829,NA,NA,NA,"MIEXAM","Microscopic Examination",NA,"NORMAL","NORMAL",NA,NA,NA,NA,"NERVE, OPTIC",NA,NA,NA,NA,NA,NA,"PATHOLOGIST",NA,NA,"2011-01-09T12:02:00",30
"PDS2014","MI","PDS2014-0064",830,NA,NA,NA,"MIEXAM","Microscopic Examination",NA,"Inflammation, acute, grade 1","Inflammation","NON-NEOPLASTIC",NA,NA,NA,"PANCREAS",NA,NA,NA,NA,NA,NA,"PATHOLOGIST","MILD",NA,"2011-01-09T12:02:00",30
"PDS2014","MI","PDS2014-0064",831,NA,NA,NA,"MIEXAM","Microscopic Examination",NA,"NORMAL","NORMAL",NA,NA,NA,NA,"GLAND, PARATHYROID",NA,NA,NA,NA,NA,NA,"PATHOLOGIST",NA,NA,"2011-01-09T12:02:00",30
"PDS2014","MI","PDS2014-0064",832,NA,NA,NA,"MIEXAM","Microscopic Examination",NA,"NORMAL","NORMAL",NA,NA,NA,NA,"NERVE, SCIATIC",NA,NA,NA,NA,NA,NA,"PATHOLOGIST",NA,NA,"2011-01-09T12:02:00",30
"PDS2014","MI","PDS2014-0064",833,NA,NA,NA,"MIEXAM","Microscopic Examination",NA,"NORMAL","NORMAL",NA,NA,NA,NA,"PEYER'S PATCH",NA,NA,NA,NA,NA,NA,"PATHOLOGIST",NA,NA,"2011-01-09T12:02:00",30
"PDS2014","MI","PDS2014-0064",834,NA,NA,NA,"MIEXAM","Microscopic Examination",NA,"NORMAL","NORMAL",NA,NA,NA,NA,"GLAND, PITUITARY",NA,NA,NA,NA,NA,NA,"PATHOLOGIST",NA,NA,"2011-01-09T12:02:00",30
"PDS2014","MI","PDS2014-0064",835,NA,NA,NA,"MIEXAM","Microscopic Examination",NA,"NORMAL","NORMAL",NA,NA,NA,NA,"GLAND, PROSTATE",NA,NA,NA,NA,NA,NA,"PATHOLOGIST",NA,NA,"2011-01-09T12:02:00",30
"PDS2014","MI","PDS2014-0064",836,NA,NA,NA,"MIEXAM","Microscopic Examination",NA,"NORMAL","NORMAL",NA,NA,NA,NA,"GLAND, SALIVARY, SUBLINGUAL",NA,NA,NA,NA,NA,NA,"PATHOLOGIST",NA,NA,"2011-01-09T12:02:00",30
"PDS2014","MI","PDS2014-0064",837,NA,NA,NA,"MIEXAM","Microscopic Examination",NA,"NORMAL","NORMAL",NA,NA,NA,NA,"GLAND, SALIVARY, SUBMANDIBULAR",NA,NA,NA,NA,NA,NA,"PATHOLOGIST",NA,NA,"2011-01-09T12:02:00",30
"PDS2014","MI","PDS2014-0064",838,NA,NA,NA,"MIEXAM","Microscopic Examination",NA,"Inflammation chronic, multifocal, grade 1","Inflammation chronic","NON-NEOPLASTIC",NA,NA,NA,"GLAND, SALIVARY, PAROTID",NA,NA,NA,NA,NA,NA,"PATHOLOGIST","MILD",NA,"2011-01-09T12:02:00",30
"PDS2014","MI","PDS2014-0064",839,NA,NA,NA,"MIEXAM","Microscopic Examination",NA,"NORMAL","NORMAL",NA,NA,NA,NA,"GLAND, SEMINAL VESICLE",NA,NA,NA,NA,NA,NA,"PATHOLOGIST",NA,NA,"2011-01-09T12:02:00",30
"PDS2014","MI","PDS2014-0064",840,NA,NA,NA,"MIEXAM","Microscopic Examination",NA,"NORMAL","NORMAL",NA,NA,NA,NA,"MUSCLE, QUADRICEPS FEMORIS",NA,NA,NA,NA,NA,NA,"PATHOLOGIST",NA,NA,"2011-01-09T12:02:00",30
"PDS2014","MI","PDS2014-0064",841,NA,NA,NA,"MIEXAM","Microscopic Examination",NA,"NORMAL","NORMAL",NA,NA,NA,NA,"SKIN",NA,NA,NA,NA,NA,NA,"PATHOLOGIST",NA,NA,"2011-01-09T12:02:00",30
"PDS2014","MI","PDS2014-0064",842,NA,NA,NA,"MIEXAM","Microscopic Examination",NA,"NORMAL","NORMAL",NA,NA,NA,NA,"SMALL INTESTINE, DUODENUM",NA,NA,NA,NA,NA,NA,"PATHOLOGIST",NA,NA,"2011-01-09T12:02:00",30
"PDS2014","MI","PDS2014-0064",843,NA,NA,NA,"MIEXAM","Microscopic Examination",NA,"NORMAL","NORMAL",NA,NA,NA,NA,"SMALL INTESTINE, ILEUM",NA,NA,NA,NA,NA,NA,"PATHOLOGIST",NA,NA,"2011-01-09T12:02:00",30
"PDS2014","MI","PDS2014-0064",844,NA,NA,NA,"MIEXAM","Microscopic Examination",NA,"NORMAL","NORMAL",NA,NA,NA,NA,"SMALL INTESTINE, JEJUNUM",NA,NA,NA,NA,NA,NA,"PATHOLOGIST",NA,NA,"2011-01-09T12:02:00",30
"PDS2014","MI","PDS2014-0064",845,NA,NA,NA,"MIEXAM","Microscopic Examination",NA,"NORMAL","NORMAL",NA,NA,NA,NA,"SPINAL CORD, CERVICAL",NA,NA,NA,NA,NA,NA,"PATHOLOGIST",NA,NA,"2011-01-09T12:02:00",30
"PDS2014","MI","PDS2014-0064",846,NA,NA,NA,"MIEXAM","Microscopic Examination",NA,"NORMAL","NORMAL",NA,NA,NA,NA,"SPINAL CORD, LUMBAR",NA,NA,NA,NA,NA,NA,"PATHOLOGIST",NA,NA,"2011-01-09T12:02:00",30
"PDS2014","MI","PDS2014-0064",847,NA,NA,NA,"MIEXAM","Microscopic Examination",NA,"NORMAL","NORMAL",NA,NA,NA,NA,"SPINAL CORD, THORACIC",NA,NA,NA,NA,NA,NA,"PATHOLOGIST",NA,NA,"2011-01-09T12:02:00",30
"PDS2014","MI","PDS2014-0064",848,NA,NA,NA,"MIEXAM","Microscopic Examination",NA,"NORMAL","NORMAL",NA,NA,NA,NA,"SPLEEN",NA,NA,NA,NA,NA,NA,"PATHOLOGIST",NA,NA,"2011-01-09T12:02:00",30
"PDS2014","MI","PDS2014-0064",849,NA,NA,NA,"MIEXAM","Microscopic Examination",NA,"Edema, nonglandular region, submucosa, grade 1","Edema","NON-NEOPLASTIC",NA,NA,NA,"STOMACH",NA,NA,NA,NA,NA,NA,"PATHOLOGIST","MILD",NA,"2011-01-09T12:02:00",30
"PDS2014","MI","PDS2014-0064",850,NA,NA,NA,"MIEXAM","Microscopic Examination",NA,"NORMAL","NORMAL",NA,NA,NA,NA,"TESTIS",NA,NA,NA,NA,NA,NA,"PATHOLOGIST",NA,NA,"2011-01-09T12:02:00",30
"PDS2014","MI","PDS2014-0064",851,NA,NA,NA,"MIEXAM","Microscopic Examination",NA,"NORMAL","NORMAL",NA,NA,NA,NA,"THYMUS",NA,NA,NA,NA,NA,NA,"PATHOLOGIST",NA,NA,"2011-01-09T12:02:00",30
"PDS2014","MI","PDS2014-0064",852,NA,NA,NA,"MIEXAM","Microscopic Examination",NA,"NORMAL","NORMAL",NA,NA,NA,NA,"GLAND, THYROID",NA,NA,NA,NA,NA,NA,"PATHOLOGIST",NA,NA,"2011-01-09T12:02:00",30
"PDS2014","MI","PDS2014-0064",853,NA,NA,NA,"MIEXAM","Microscopic Examination",NA,"NORMAL","NORMAL",NA,NA,NA,NA,"TONGUE",NA,NA,NA,NA,NA,NA,"PATHOLOGIST",NA,NA,"2011-01-09T12:02:00",30
"PDS2014","MI","PDS2014-0064",854,NA,NA,NA,"MIEXAM","Microscopic Examination",NA,"NORMAL","NORMAL",NA,NA,NA,NA,"TRACHEA",NA,NA,NA,NA,NA,NA,"PATHOLOGIST",NA,NA,"2011-01-09T12:02:00",30
"PDS2014","MI","PDS2014-0064",855,NA,NA,NA,"MIEXAM","Microscopic Examination",NA,"NORMAL","NORMAL",NA,NA,NA,NA,"URETER",NA,NA,NA,NA,NA,NA,"PATHOLOGIST",NA,NA,"2011-01-09T12:02:00",30
"PDS2014","MI","PDS2014-0064",856,NA,NA,NA,"MIEXAM","Microscopic Examination",NA,"NORMAL","NORMAL",NA,NA,NA,NA,"URINARY BLADDER",NA,NA,NA,NA,NA,NA,"PATHOLOGIST",NA,NA,"2011-01-09T12:02:00",30
"PDS2014","MI","PDS2014-0065",857,NA,NA,NA,"MIEXAM","Microscopic Examination",NA,"NORMAL","NORMAL",NA,NA,NA,NA,"GLAND, ADRENAL",NA,NA,NA,NA,NA,NA,"PATHOLOGIST",NA,NA,"2011-01-09T15:12:00",30
"PDS2014","MI","PDS2014-0065",858,NA,NA,NA,"MIEXAM","Microscopic Examination",NA,"NORMAL","NORMAL",NA,NA,NA,NA,"ARTERY, AORTA",NA,NA,NA,NA,NA,NA,"PATHOLOGIST",NA,NA,"2011-01-09T15:12:00",30
"PDS2014","MI","PDS2014-0065",859,NA,NA,NA,"MIEXAM","Microscopic Examination",NA,"Fat vacuoles, diffuse, grade 2","Fat vacuoles","NON-NEOPLASTIC",NA,NA,NA,"BONE MARROW, FEMUR",NA,NA,NA,NA,NA,NA,"PATHOLOGIST","MODERATE",NA,"2011-01-09T15:12:00",30
"PDS2014","MI","PDS2014-0065",860,NA,NA,NA,"MIEXAM","Microscopic Examination",NA,"NORMAL","NORMAL",NA,NA,NA,NA,"BONE MARROW, STERNUM",NA,NA,NA,NA,NA,NA,"PATHOLOGIST",NA,NA,"2011-01-09T15:12:00",30
"PDS2014","MI","PDS2014-0065",861,NA,NA,NA,"MIEXAM","Microscopic Examination",NA,"NORMAL","NORMAL",NA,NA,NA,NA,"BONE, STERNUM",NA,NA,NA,NA,NA,NA,"PATHOLOGIST",NA,NA,"2011-01-09T15:12:00",30
"PDS2014","MI","PDS2014-0065",862,NA,NA,NA,"MIEXAM","Microscopic Examination",NA,"NORMAL","NORMAL",NA,NA,NA,NA,"JOINT, STIFLE",NA,NA,NA,NA,NA,NA,"PATHOLOGIST",NA,NA,"2011-01-09T15:12:00",30
"PDS2014","MI","PDS2014-0065",863,NA,NA,NA,"MIEXAM","Microscopic Examination",NA,"NORMAL","NORMAL",NA,NA,NA,NA,"BRAIN",NA,NA,NA,NA,NA,NA,"PATHOLOGIST",NA,NA,"2011-01-09T15:12:00",30
"PDS2014","MI","PDS2014-0065",864,NA,NA,NA,"MIEXAM","Microscopic Examination",NA,"NORMAL","NORMAL",NA,NA,NA,NA,"GLAND, COAGULATING",NA,NA,NA,NA,NA,NA,"PATHOLOGIST",NA,NA,"2011-01-09T15:12:00",30
"PDS2014","MI","PDS2014-0065",865,NA,NA,NA,"MIEXAM","Microscopic Examination",NA,"NORMAL","NORMAL",NA,NA,NA,NA,"EPIDIDYMIS",NA,NA,NA,NA,NA,NA,"PATHOLOGIST",NA,NA,"2011-01-09T15:12:00",30
"PDS2014","MI","PDS2014-0065",866,NA,NA,NA,"MIEXAM","Microscopic Examination",NA,"NORMAL","NORMAL",NA,NA,NA,NA,"ESOPHAGUS",NA,NA,NA,NA,NA,NA,"PATHOLOGIST",NA,NA,"2011-01-09T15:12:00",30
"PDS2014","MI","PDS2014-0065",867,NA,NA,NA,"MIEXAM","Microscopic Examination",NA,"NORMAL","NORMAL",NA,NA,NA,NA,"EYE",NA,NA,NA,NA,NA,NA,"PATHOLOGIST",NA,NA,"2011-01-09T15:12:00",30
"PDS2014","MI","PDS2014-0065",868,NA,NA,NA,"MIEXAM","Microscopic Examination",NA,"NORMAL","NORMAL",NA,NA,NA,NA,"GLAND, HARDERIAN",NA,NA,NA,NA,NA,NA,"PATHOLOGIST",NA,NA,"2011-01-09T15:12:00",30
"PDS2014","MI","PDS2014-0065",869,NA,NA,NA,"MIEXAM","Microscopic Examination",NA,"Inflammation chronic, myocardium. focal, left ventricle, grade 1","Inflammation chronic","NON-NEOPLASTIC",NA,NA,NA,"HEART",NA,NA,NA,NA,NA,NA,"PATHOLOGIST","MILD",NA,"2011-01-09T15:12:00",30
"PDS2014","MI","PDS2014-0065",870,NA,NA,NA,"MIEXAM","Microscopic Examination",NA,"NORMAL","NORMAL",NA,NA,NA,NA,"KIDNEY",NA,NA,NA,NA,NA,NA,"PATHOLOGIST",NA,NA,"2011-01-09T15:12:00",30
"PDS2014","MI","PDS2014-0065",871,NA,NA,NA,"MIEXAM","Microscopic Examination",NA,"NORMAL","NORMAL",NA,NA,NA,NA,"LARGE INTESTINE, COLON",NA,NA,NA,NA,NA,NA,"PATHOLOGIST",NA,NA,"2011-01-09T15:12:00",30
"PDS2014","MI","PDS2014-0065",872,NA,NA,NA,"MIEXAM","Microscopic Examination",NA,"NORMAL","NORMAL",NA,NA,NA,NA,"LARGE INTESTINE, RECTUM",NA,NA,NA,NA,NA,NA,"PATHOLOGIST",NA,NA,"2011-01-09T15:12:00",30
"PDS2014","MI","PDS2014-0065",873,NA,NA,NA,"MIEXAM","Microscopic Examination",NA,"NORMAL","NORMAL",NA,NA,NA,NA,"LARGE INTESTINE, CECUM",NA,NA,NA,NA,NA,NA,"PATHOLOGIST",NA,NA,"2011-01-09T15:12:00",30
"PDS2014","MI","PDS2014-0065",874,NA,NA,NA,"MIEXAM","Microscopic Examination",NA,"NORMAL","NORMAL",NA,NA,NA,NA,"LARYNX",NA,NA,NA,NA,NA,NA,"PATHOLOGIST",NA,NA,"2011-01-09T15:12:00",30
"PDS2014","MI","PDS2014-0065",875,NA,NA,NA,"MIEXAM","Microscopic Examination",NA,"NORMAL","NORMAL",NA,NA,NA,NA,"LIVER",NA,NA,NA,NA,NA,NA,"PATHOLOGIST",NA,NA,"2011-01-09T15:12:00",30
"PDS2014","MI","PDS2014-0065",876,NA,NA,NA,"MIEXAM","Microscopic Examination",NA,"Infiltration granulocytic, perivascular, focal, grade 1","Infiltration granulocytic","NON-NEOPLASTIC",NA,NA,NA,"LUNG",NA,NA,NA,NA,NA,NA,"PATHOLOGIST","MILD",NA,"2011-01-09T15:12:00",30
"PDS2014","MI","PDS2014-0065",877,NA,NA,NA,"MIEXAM","Microscopic Examination",NA,"Metaplasia, chondro-osseous, focal, grade 1","Metaplasia","NON-NEOPLASTIC",NA,NA,NA,"LUNG",NA,NA,NA,NA,NA,NA,"PATHOLOGIST","MILD",NA,"2011-01-09T15:12:00",30
"PDS2014","MI","PDS2014-0065",878,NA,NA,NA,"MIEXAM","Microscopic Examination",NA,"NORMAL","NORMAL",NA,NA,NA,NA,"LYMPH NODE, MESENTERIC",NA,NA,NA,NA,NA,NA,"PATHOLOGIST",NA,NA,"2011-01-09T15:12:00",30
"PDS2014","MI","PDS2014-0065",879,NA,NA,NA,"MIEXAM","Microscopic Examination",NA,"NORMAL","NORMAL",NA,NA,NA,NA,"LYMPH NODE, POPLITEAL",NA,NA,NA,NA,NA,NA,"PATHOLOGIST",NA,NA,"2011-01-09T15:12:00",30
"PDS2014","MI","PDS2014-0065",880,NA,NA,NA,"MIEXAM","Microscopic Examination",NA,"NORMAL","NORMAL",NA,NA,NA,NA,"GLAND, MAMMARY",NA,NA,NA,NA,NA,NA,"PATHOLOGIST",NA,NA,"2011-01-09T15:12:00",30
"PDS2014","MI","PDS2014-0065",881,NA,NA,NA,"MIEXAM","Microscopic Examination",NA,"NORMAL","NORMAL",NA,NA,NA,NA,"NERVE, OPTIC",NA,NA,NA,NA,NA,NA,"PATHOLOGIST",NA,NA,"2011-01-09T15:12:00",30
"PDS2014","MI","PDS2014-0065",882,NA,NA,NA,"MIEXAM","Microscopic Examination",NA,"NORMAL","NORMAL",NA,NA,NA,NA,"PANCREAS",NA,NA,NA,NA,NA,NA,"PATHOLOGIST",NA,NA,"2011-01-09T15:12:00",30
"PDS2014","MI","PDS2014-0065",883,NA,NA,NA,"MIEXAM","Microscopic Examination",NA,"NORMAL","NORMAL",NA,NA,NA,NA,"GLAND, PARATHYROID",NA,NA,NA,NA,NA,NA,"PATHOLOGIST",NA,NA,"2011-01-09T15:12:00",30
"PDS2014","MI","PDS2014-0065",884,NA,NA,NA,"MIEXAM","Microscopic Examination",NA,"NORMAL","NORMAL",NA,NA,NA,NA,"NERVE, SCIATIC",NA,NA,NA,NA,NA,NA,"PATHOLOGIST",NA,NA,"2011-01-09T15:12:00",30
"PDS2014","MI","PDS2014-0065",885,NA,NA,NA,"MIEXAM","Microscopic Examination",NA,"NORMAL","NORMAL",NA,NA,NA,NA,"PEYER'S PATCH",NA,NA,NA,NA,NA,NA,"PATHOLOGIST",NA,NA,"2011-01-09T15:12:00",30
"PDS2014","MI","PDS2014-0065",886,NA,NA,NA,"MIEXAM","Microscopic Examination",NA,"NORMAL","NORMAL",NA,NA,NA,NA,"GLAND, PITUITARY",NA,NA,NA,NA,NA,NA,"PATHOLOGIST",NA,NA,"2011-01-09T15:12:00",30
"PDS2014","MI","PDS2014-0065",887,NA,NA,NA,"MIEXAM","Microscopic Examination",NA,"Inflammation chronic, ventral, grade 2","Inflammation chronic","NON-NEOPLASTIC",NA,NA,NA,"GLAND, PROSTATE",NA,NA,NA,NA,NA,NA,"PATHOLOGIST","MODERATE",NA,"2011-01-09T15:12:00",30
"PDS2014","MI","PDS2014-0065",888,NA,NA,NA,"MIEXAM","Microscopic Examination",NA,"NORMAL","NORMAL",NA,NA,NA,NA,"GLAND, SALIVARY, SUBLINGUAL",NA,NA,NA,NA,NA,NA,"PATHOLOGIST",NA,NA,"2011-01-09T15:12:00",30
"PDS2014","MI","PDS2014-0065",889,NA,NA,NA,"MIEXAM","Microscopic Examination",NA,"NORMAL","NORMAL",NA,NA,NA,NA,"GLAND, SALIVARY, SUBMANDIBULAR",NA,NA,NA,NA,NA,NA,"PATHOLOGIST",NA,NA,"2011-01-09T15:12:00",30
"PDS2014","MI","PDS2014-0065",890,NA,NA,NA,"MIEXAM","Microscopic Examination",NA,"NORMAL","NORMAL",NA,NA,NA,NA,"GLAND, SALIVARY, PAROTID",NA,NA,NA,NA,NA,NA,"PATHOLOGIST",NA,NA,"2011-01-09T15:12:00",30
"PDS2014","MI","PDS2014-0065",891,NA,NA,NA,"MIEXAM","Microscopic Examination",NA,"NORMAL","NORMAL",NA,NA,NA,NA,"GLAND, SEMINAL VESICLE",NA,NA,NA,NA,NA,NA,"PATHOLOGIST",NA,NA,"2011-01-09T15:12:00",30
"PDS2014","MI","PDS2014-0065",892,NA,NA,NA,"MIEXAM","Microscopic Examination",NA,"NORMAL","NORMAL",NA,NA,NA,NA,"MUSCLE, QUADRICEPS FEMORIS",NA,NA,NA,NA,NA,NA,"PATHOLOGIST",NA,NA,"2011-01-09T15:12:00",30
"PDS2014","MI","PDS2014-0065",893,NA,NA,NA,"MIEXAM","Microscopic Examination",NA,"NORMAL","NORMAL",NA,NA,NA,NA,"SKIN",NA,NA,NA,NA,NA,NA,"PATHOLOGIST",NA,NA,"2011-01-09T15:12:00",30
"PDS2014","MI","PDS2014-0065",894,NA,NA,NA,"MIEXAM","Microscopic Examination",NA,"NORMAL","NORMAL",NA,NA,NA,NA,"SMALL INTESTINE, DUODENUM",NA,NA,NA,NA,NA,NA,"PATHOLOGIST",NA,NA,"2011-01-09T15:12:00",30
"PDS2014","MI","PDS2014-0065",895,NA,NA,NA,"MIEXAM","Microscopic Examination",NA,"NORMAL","NORMAL",NA,NA,NA,NA,"SMALL INTESTINE, ILEUM",NA,NA,NA,NA,NA,NA,"PATHOLOGIST",NA,NA,"2011-01-09T15:12:00",30
"PDS2014","MI","PDS2014-0065",896,NA,NA,NA,"MIEXAM","Microscopic Examination",NA,"NORMAL","NORMAL",NA,NA,NA,NA,"SMALL INTESTINE, JEJUNUM",NA,NA,NA,NA,NA,NA,"PATHOLOGIST",NA,NA,"2011-01-09T15:12:00",30
"PDS2014","MI","PDS2014-0065",897,NA,NA,NA,"MIEXAM","Microscopic Examination",NA,"NORMAL","NORMAL",NA,NA,NA,NA,"SPINAL CORD, CERVICAL",NA,NA,NA,NA,NA,NA,"PATHOLOGIST",NA,NA,"2011-01-09T15:12:00",30
"PDS2014","MI","PDS2014-0065",898,NA,NA,NA,"MIEXAM","Microscopic Examination",NA,"NORMAL","NORMAL",NA,NA,NA,NA,"SPINAL CORD, LUMBAR",NA,NA,NA,NA,NA,NA,"PATHOLOGIST",NA,NA,"2011-01-09T15:12:00",30
"PDS2014","MI","PDS2014-0065",899,NA,NA,NA,"MIEXAM","Microscopic Examination",NA,"NORMAL","NORMAL",NA,NA,NA,NA,"SPINAL CORD, THORACIC",NA,NA,NA,NA,NA,NA,"PATHOLOGIST",NA,NA,"2011-01-09T15:12:00",30
"PDS2014","MI","PDS2014-0065",900,NA,NA,NA,"MIEXAM","Microscopic Examination",NA,"Pigmentation, red pulp, diffuse, grade 1","Pigmentation","NON-NEOPLASTIC",NA,NA,NA,"SPLEEN",NA,NA,NA,NA,NA,NA,"PATHOLOGIST","MILD",NA,"2011-01-09T15:12:00",30
"PDS2014","MI","PDS2014-0065",901,NA,NA,NA,"MIEXAM","Microscopic Examination",NA,"NORMAL","NORMAL",NA,NA,NA,NA,"STOMACH",NA,NA,NA,NA,NA,NA,"PATHOLOGIST",NA,NA,"2011-01-09T15:12:00",30
"PDS2014","MI","PDS2014-0065",902,NA,NA,NA,"MIEXAM","Microscopic Examination",NA,"NORMAL","NORMAL",NA,NA,NA,NA,"TESTIS",NA,NA,NA,NA,NA,NA,"PATHOLOGIST",NA,NA,"2011-01-09T15:12:00",30
"PDS2014","MI","PDS2014-0065",903,NA,NA,NA,"MIEXAM","Microscopic Examination",NA,"NORMAL","NORMAL",NA,NA,NA,NA,"THYMUS",NA,NA,NA,NA,NA,NA,"PATHOLOGIST",NA,NA,"2011-01-09T15:12:00",30
"PDS2014","MI","PDS2014-0065",904,NA,NA,NA,"MIEXAM","Microscopic Examination",NA,"NORMAL","NORMAL",NA,NA,NA,NA,"GLAND, THYROID",NA,NA,NA,NA,NA,NA,"PATHOLOGIST",NA,NA,"2011-01-09T15:12:00",30
"PDS2014","MI","PDS2014-0065",905,NA,NA,NA,"MIEXAM","Microscopic Examination",NA,"Hemorrhage, blood sampling related, grade 1","Hemorrhage","NON-NEOPLASTIC",NA,NA,NA,"TONGUE",NA,NA,NA,NA,NA,NA,"PATHOLOGIST","MILD",NA,"2011-01-09T15:12:00",30
"PDS2014","MI","PDS2014-0065",906,NA,NA,NA,"MIEXAM","Microscopic Examination",NA,"NORMAL","NORMAL",NA,NA,NA,NA,"TRACHEA",NA,NA,NA,NA,NA,NA,"PATHOLOGIST",NA,NA,"2011-01-09T15:12:00",30
"PDS2014","MI","PDS2014-0065",907,NA,NA,NA,"MIEXAM","Microscopic Examination",NA,"NORMAL","NORMAL",NA,NA,NA,NA,"URETER",NA,NA,NA,NA,NA,NA,"PATHOLOGIST",NA,NA,"2011-01-09T15:12:00",30
"PDS2014","MI","PDS2014-0065",908,NA,NA,NA,"MIEXAM","Microscopic Examination",NA,"NORMAL","NORMAL",NA,NA,NA,NA,"URINARY BLADDER",NA,NA,NA,NA,NA,NA,"PATHOLOGIST",NA,NA,"2011-01-09T15:12:00",30
"PDS2014","MI","PDS2014-0066",909,NA,NA,NA,"MIEXAM","Microscopic Examination",NA,"Vacuolization, cortex, diffuse, grade 1","Vacuolization","NON-NEOPLASTIC",NA,NA,NA,"GLAND, ADRENAL",NA,NA,NA,NA,"BILATERAL",NA,"PATHOLOGIST","MILD",NA,"2011-01-10T11:08:00",31
"PDS2014","MI","PDS2014-0066",910,NA,NA,NA,"MIEXAM","Microscopic Examination",NA,"NORMAL","NORMAL",NA,NA,NA,NA,"ARTERY, AORTA",NA,NA,NA,NA,NA,NA,"PATHOLOGIST",NA,NA,"2011-01-10T11:08:00",31
"PDS2014","MI","PDS2014-0066",911,NA,NA,NA,"MIEXAM","Microscopic Examination",NA,"Fat vacuoles, diffuse, grade 1","Fat vacuoles","NON-NEOPLASTIC",NA,NA,NA,"BONE MARROW, FEMUR",NA,NA,NA,NA,NA,NA,"PATHOLOGIST","MILD",NA,"2011-01-10T11:08:00",31
"PDS2014","MI","PDS2014-0066",912,NA,NA,NA,"MIEXAM","Microscopic Examination",NA,"NORMAL","NORMAL",NA,NA,NA,NA,"BONE MARROW, STERNUM",NA,NA,NA,NA,NA,NA,"PATHOLOGIST",NA,NA,"2011-01-10T11:08:00",31
"PDS2014","MI","PDS2014-0066",913,NA,NA,NA,"MIEXAM","Microscopic Examination",NA,"NORMAL","NORMAL",NA,NA,NA,NA,"BONE, STERNUM",NA,NA,NA,NA,NA,NA,"PATHOLOGIST",NA,NA,"2011-01-10T11:08:00",31
"PDS2014","MI","PDS2014-0066",914,NA,NA,NA,"MIEXAM","Microscopic Examination",NA,"NORMAL","NORMAL",NA,NA,NA,NA,"JOINT, STIFLE",NA,NA,NA,NA,NA,NA,"PATHOLOGIST",NA,NA,"2011-01-10T11:08:00",31
"PDS2014","MI","PDS2014-0066",915,NA,NA,NA,"MIEXAM","Microscopic Examination",NA,"NORMAL","NORMAL",NA,NA,NA,NA,"BRAIN",NA,NA,NA,NA,NA,NA,"PATHOLOGIST",NA,NA,"2011-01-10T11:08:00",31
"PDS2014","MI","PDS2014-0066",916,NA,NA,NA,"MIEXAM","Microscopic Examination",NA,"NORMAL","NORMAL",NA,NA,NA,NA,"GLAND, COAGULATING",NA,NA,NA,NA,NA,NA,"PATHOLOGIST",NA,NA,"2011-01-10T11:08:00",31
"PDS2014","MI","PDS2014-0066",917,NA,NA,NA,"MIEXAM","Microscopic Examination",NA,"NORMAL","NORMAL",NA,NA,NA,NA,"EPIDIDYMIS",NA,NA,NA,NA,NA,NA,"PATHOLOGIST",NA,NA,"2011-01-10T11:08:00",31
"PDS2014","MI","PDS2014-0066",918,NA,NA,NA,"MIEXAM","Microscopic Examination",NA,"NORMAL","NORMAL",NA,NA,NA,NA,"ESOPHAGUS",NA,NA,NA,NA,NA,NA,"PATHOLOGIST",NA,NA,"2011-01-10T11:08:00",31
"PDS2014","MI","PDS2014-0066",919,NA,NA,NA,"MIEXAM","Microscopic Examination",NA,"NORMAL","NORMAL",NA,NA,NA,NA,"EYE",NA,NA,NA,NA,NA,NA,"PATHOLOGIST",NA,NA,"2011-01-10T11:08:00",31
"PDS2014","MI","PDS2014-0066",920,NA,NA,NA,"MIEXAM","Microscopic Examination",NA,"NORMAL","NORMAL",NA,NA,NA,NA,"GLAND, HARDERIAN",NA,NA,NA,NA,NA,NA,"PATHOLOGIST",NA,NA,"2011-01-10T11:08:00",31
"PDS2014","MI","PDS2014-0066",921,NA,NA,NA,"MIEXAM","Microscopic Examination",NA,"NORMAL","NORMAL",NA,NA,NA,NA,"HEART",NA,NA,NA,NA,NA,NA,"PATHOLOGIST",NA,NA,"2011-01-10T11:08:00",31
"PDS2014","MI","PDS2014-0066",922,NA,NA,NA,"MIEXAM","Microscopic Examination",NA,"Basophilia tubule(s), cortex, focal/multifocal, grade 1","Basophilia tubule(s)","NON-NEOPLASTIC",NA,NA,NA,"KIDNEY",NA,NA,NA,NA,"UNILATERAL",NA,"PATHOLOGIST","MILD",NA,"2011-01-10T11:08:00",31
"PDS2014","MI","PDS2014-0066",923,NA,NA,NA,"MIEXAM","Microscopic Examination",NA,"NORMAL","NORMAL",NA,NA,NA,NA,"LARGE INTESTINE, COLON",NA,NA,NA,NA,NA,NA,"PATHOLOGIST",NA,NA,"2011-01-10T11:08:00",31
"PDS2014","MI","PDS2014-0066",924,NA,NA,NA,"MIEXAM","Microscopic Examination",NA,"NORMAL","NORMAL",NA,NA,NA,NA,"LARGE INTESTINE, RECTUM",NA,NA,NA,NA,NA,NA,"PATHOLOGIST",NA,NA,"2011-01-10T11:08:00",31
"PDS2014","MI","PDS2014-0066",925,NA,NA,NA,"MIEXAM","Microscopic Examination",NA,"NORMAL","NORMAL",NA,NA,NA,NA,"LARGE INTESTINE, CECUM",NA,NA,NA,NA,NA,NA,"PATHOLOGIST",NA,NA,"2011-01-10T11:08:00",31
"PDS2014","MI","PDS2014-0066",926,NA,NA,NA,"MIEXAM","Microscopic Examination",NA,"NORMAL","NORMAL",NA,NA,NA,NA,"LARYNX",NA,NA,NA,NA,NA,NA,"PATHOLOGIST",NA,NA,"2011-01-10T11:08:00",31
"PDS2014","MI","PDS2014-0066",927,NA,NA,NA,"MIEXAM","Microscopic Examination",NA,"NORMAL","NORMAL",NA,NA,NA,NA,"LIVER",NA,NA,NA,NA,NA,NA,"PATHOLOGIST",NA,NA,"2011-01-10T11:08:00",31
"PDS2014","MI","PDS2014-0066",928,NA,NA,NA,"MIEXAM","Microscopic Examination",NA,"NORMAL","NORMAL",NA,NA,NA,NA,"LUNG",NA,NA,NA,NA,NA,NA,"PATHOLOGIST",NA,NA,"2011-01-10T11:08:00",31
"PDS2014","MI","PDS2014-0066",929,NA,NA,NA,"MIEXAM","Microscopic Examination",NA,"NORMAL","NORMAL",NA,NA,NA,NA,"LYMPH NODE, MESENTERIC",NA,NA,NA,NA,NA,NA,"PATHOLOGIST",NA,NA,"2011-01-10T11:08:00",31
"PDS2014","MI","PDS2014-0066",930,NA,NA,NA,"MIEXAM","Microscopic Examination",NA,"NORMAL","NORMAL",NA,NA,NA,NA,"LYMPH NODE, POPLITEAL",NA,NA,NA,NA,NA,NA,"PATHOLOGIST",NA,NA,"2011-01-10T11:08:00",31
"PDS2014","MI","PDS2014-0066",931,NA,NA,NA,"MIEXAM","Microscopic Examination",NA,"NORMAL","NORMAL",NA,NA,NA,NA,"GLAND, MAMMARY",NA,NA,NA,NA,NA,NA,"PATHOLOGIST",NA,NA,"2011-01-10T11:08:00",31
"PDS2014","MI","PDS2014-0066",932,NA,NA,NA,"MIEXAM","Microscopic Examination",NA,"NORMAL","NORMAL",NA,NA,NA,NA,"NERVE, OPTIC",NA,NA,NA,NA,NA,NA,"PATHOLOGIST",NA,NA,"2011-01-10T11:08:00",31
"PDS2014","MI","PDS2014-0066",933,NA,NA,NA,"MIEXAM","Microscopic Examination",NA,"NORMAL","NORMAL",NA,NA,NA,NA,"PANCREAS",NA,NA,NA,NA,NA,NA,"PATHOLOGIST",NA,NA,"2011-01-10T11:08:00",31
"PDS2014","MI","PDS2014-0066",934,NA,NA,NA,"MIEXAM","Microscopic Examination",NA,"NORMAL","NORMAL",NA,NA,NA,NA,"GLAND, PARATHYROID",NA,NA,NA,NA,NA,NA,"PATHOLOGIST",NA,NA,"2011-01-10T11:08:00",31
"PDS2014","MI","PDS2014-0066",935,NA,NA,NA,"MIEXAM","Microscopic Examination",NA,"NORMAL","NORMAL",NA,NA,NA,NA,"NERVE, SCIATIC",NA,NA,NA,NA,NA,NA,"PATHOLOGIST",NA,NA,"2011-01-10T11:08:00",31
"PDS2014","MI","PDS2014-0066",936,NA,NA,NA,"MIEXAM","Microscopic Examination",NA,"NORMAL","NORMAL",NA,NA,NA,NA,"PEYER'S PATCH",NA,NA,NA,NA,NA,NA,"PATHOLOGIST",NA,NA,"2011-01-10T11:08:00",31
"PDS2014","MI","PDS2014-0066",937,NA,NA,NA,"MIEXAM","Microscopic Examination",NA,"NORMAL","NORMAL",NA,NA,NA,NA,"GLAND, PITUITARY",NA,NA,NA,NA,NA,NA,"PATHOLOGIST",NA,NA,"2011-01-10T11:08:00",31
"PDS2014","MI","PDS2014-0066",938,NA,NA,NA,"MIEXAM","Microscopic Examination",NA,"NORMAL","NORMAL",NA,NA,NA,NA,"GLAND, PROSTATE",NA,NA,NA,NA,NA,NA,"PATHOLOGIST",NA,NA,"2011-01-10T11:08:00",31
"PDS2014","MI","PDS2014-0066",939,NA,NA,NA,"MIEXAM","Microscopic Examination",NA,"NORMAL","NORMAL",NA,NA,NA,NA,"GLAND, SALIVARY, SUBLINGUAL",NA,NA,NA,NA,NA,NA,"PATHOLOGIST",NA,NA,"2011-01-10T11:08:00",31
"PDS2014","MI","PDS2014-0066",940,NA,NA,NA,"MIEXAM","Microscopic Examination",NA,"NORMAL","NORMAL",NA,NA,NA,NA,"GLAND, SALIVARY, SUBMANDIBULAR",NA,NA,NA,NA,NA,NA,"PATHOLOGIST",NA,NA,"2011-01-10T11:08:00",31
"PDS2014","MI","PDS2014-0066",941,NA,NA,NA,"MIEXAM","Microscopic Examination",NA,"Calculus(i), single, minifocus, grade 1","Calculus(i)","NON-NEOPLASTIC",NA,NA,NA,"GLAND, SALIVARY, PAROTID",NA,NA,NA,NA,NA,NA,"PATHOLOGIST","MILD",NA,"2011-01-10T11:08:00",31
"PDS2014","MI","PDS2014-0066",942,NA,NA,NA,"MIEXAM","Microscopic Examination",NA,"NORMAL","NORMAL",NA,NA,NA,NA,"GLAND, SEMINAL VESICLE",NA,NA,NA,NA,NA,NA,"PATHOLOGIST",NA,NA,"2011-01-10T11:08:00",31
"PDS2014","MI","PDS2014-0066",943,NA,NA,NA,"MIEXAM","Microscopic Examination",NA,"NORMAL","NORMAL",NA,NA,NA,NA,"MUSCLE, QUADRICEPS FEMORIS",NA,NA,NA,NA,NA,NA,"PATHOLOGIST",NA,NA,"2011-01-10T11:08:00",31
"PDS2014","MI","PDS2014-0066",944,NA,NA,NA,"MIEXAM","Microscopic Examination",NA,"NORMAL","NORMAL",NA,NA,NA,NA,"SKIN",NA,NA,NA,NA,NA,NA,"PATHOLOGIST",NA,NA,"2011-01-10T11:08:00",31
"PDS2014","MI","PDS2014-0066",945,NA,NA,NA,"MIEXAM","Microscopic Examination",NA,"NORMAL","NORMAL",NA,NA,NA,NA,"SMALL INTESTINE, DUODENUM",NA,NA,NA,NA,NA,NA,"PATHOLOGIST",NA,NA,"2011-01-10T11:08:00",31
"PDS2014","MI","PDS2014-0066",946,NA,NA,NA,"MIEXAM","Microscopic Examination",NA,"NORMAL","NORMAL",NA,NA,NA,NA,"SMALL INTESTINE, ILEUM",NA,NA,NA,NA,NA,NA,"PATHOLOGIST",NA,NA,"2011-01-10T11:08:00",31
"PDS2014","MI","PDS2014-0066",947,NA,NA,NA,"MIEXAM","Microscopic Examination",NA,"NORMAL","NORMAL",NA,NA,NA,NA,"SMALL INTESTINE, JEJUNUM",NA,NA,NA,NA,NA,NA,"PATHOLOGIST",NA,NA,"2011-01-10T11:08:00",31
"PDS2014","MI","PDS2014-0066",948,NA,NA,NA,"MIEXAM","Microscopic Examination",NA,"NORMAL","NORMAL",NA,NA,NA,NA,"SPINAL CORD, CERVICAL",NA,NA,NA,NA,NA,NA,"PATHOLOGIST",NA,NA,"2011-01-10T11:08:00",31
"PDS2014","MI","PDS2014-0066",949,NA,NA,NA,"MIEXAM","Microscopic Examination",NA,"NORMAL","NORMAL",NA,NA,NA,NA,"SPINAL CORD, LUMBAR",NA,NA,NA,NA,NA,NA,"PATHOLOGIST",NA,NA,"2011-01-10T11:08:00",31
"PDS2014","MI","PDS2014-0066",950,NA,NA,NA,"MIEXAM","Microscopic Examination",NA,"NORMAL","NORMAL",NA,NA,NA,NA,"SPINAL CORD, THORACIC",NA,NA,NA,NA,NA,NA,"PATHOLOGIST",NA,NA,"2011-01-10T11:08:00",31
"PDS2014","MI","PDS2014-0066",951,NA,NA,NA,"MIEXAM","Microscopic Examination",NA,"Congestion, red pulp, diffuse, grade 1","Congestion","NON-NEOPLASTIC",NA,NA,NA,"SPLEEN",NA,NA,NA,NA,NA,NA,"PATHOLOGIST","MILD",NA,"2011-01-10T11:08:00",31
"PDS2014","MI","PDS2014-0066",952,NA,NA,NA,"MIEXAM","Microscopic Examination",NA,"NORMAL","NORMAL",NA,NA,NA,NA,"STOMACH",NA,NA,NA,NA,NA,NA,"PATHOLOGIST",NA,NA,"2011-01-10T11:08:00",31
"PDS2014","MI","PDS2014-0066",953,NA,NA,NA,"MIEXAM","Microscopic Examination",NA,"NORMAL","NORMAL",NA,NA,NA,NA,"TESTIS",NA,NA,NA,NA,NA,NA,"PATHOLOGIST",NA,NA,"2011-01-10T11:08:00",31
"PDS2014","MI","PDS2014-0066",954,NA,NA,NA,"MIEXAM","Microscopic Examination",NA,"NORMAL","NORMAL",NA,NA,NA,NA,"THYMUS",NA,NA,NA,NA,NA,NA,"PATHOLOGIST",NA,NA,"2011-01-10T11:08:00",31
"PDS2014","MI","PDS2014-0066",955,NA,NA,NA,"MIEXAM","Microscopic Examination",NA,"NORMAL","NORMAL",NA,NA,NA,NA,"GLAND, THYROID",NA,NA,NA,NA,NA,NA,"PATHOLOGIST",NA,NA,"2011-01-10T11:08:00",31
"PDS2014","MI","PDS2014-0066",956,NA,NA,NA,"MIEXAM","Microscopic Examination",NA,"NORMAL","NORMAL",NA,NA,NA,NA,"TONGUE",NA,NA,NA,NA,NA,NA,"PATHOLOGIST",NA,NA,"2011-01-10T11:08:00",31
"PDS2014","MI","PDS2014-0066",957,NA,NA,NA,"MIEXAM","Microscopic Examination",NA,"NORMAL","NORMAL",NA,NA,NA,NA,"TRACHEA",NA,NA,NA,NA,NA,NA,"PATHOLOGIST",NA,NA,"2011-01-10T11:08:00",31
"PDS2014","MI","PDS2014-0066",958,NA,NA,NA,"MIEXAM","Microscopic Examination",NA,"NORMAL","NORMAL",NA,NA,NA,NA,"URETER",NA,NA,NA,NA,NA,NA,"PATHOLOGIST",NA,NA,"2011-01-10T11:08:00",31
"PDS2014","MI","PDS2014-0066",959,NA,NA,NA,"MIEXAM","Microscopic Examination",NA,"NORMAL","NORMAL",NA,NA,NA,NA,"URINARY BLADDER",NA,NA,NA,NA,NA,NA,"PATHOLOGIST",NA,NA,"2011-01-10T11:08:00",31
"PDS2014","MI","PDS2014-0067",960,NA,NA,NA,"MIEXAM","Microscopic Examination",NA,"Vacuolization, cortex, diffuse, grade 1","Vacuolization","NON-NEOPLASTIC",NA,NA,NA,"GLAND, ADRENAL",NA,NA,NA,NA,"BILATERAL",NA,"PATHOLOGIST","MILD",NA,"2011-01-10T14:21:00",31
"PDS2014","MI","PDS2014-0067",961,NA,NA,NA,"MIEXAM","Microscopic Examination",NA,"NORMAL","NORMAL",NA,NA,NA,NA,"ARTERY, AORTA",NA,NA,NA,NA,NA,NA,"PATHOLOGIST",NA,NA,"2011-01-10T14:21:00",31
"PDS2014","MI","PDS2014-0067",962,NA,NA,NA,"MIEXAM","Microscopic Examination",NA,"Fat vacuoles, diffuse, grade 2","Fat vacuoles","NON-NEOPLASTIC",NA,NA,NA,"BONE MARROW, FEMUR",NA,NA,NA,NA,NA,NA,"PATHOLOGIST","MODERATE",NA,"2011-01-10T14:21:00",31
"PDS2014","MI","PDS2014-0067",963,NA,NA,NA,"MIEXAM","Microscopic Examination",NA,"NORMAL","NORMAL",NA,NA,NA,NA,"BONE MARROW, STERNUM",NA,NA,NA,NA,NA,NA,"PATHOLOGIST",NA,NA,"2011-01-10T14:21:00",31
"PDS2014","MI","PDS2014-0067",964,NA,NA,NA,"MIEXAM","Microscopic Examination",NA,"NORMAL","NORMAL",NA,NA,NA,NA,"BONE, STERNUM",NA,NA,NA,NA,NA,NA,"PATHOLOGIST",NA,NA,"2011-01-10T14:21:00",31
"PDS2014","MI","PDS2014-0067",965,NA,NA,NA,"MIEXAM","Microscopic Examination",NA,"NORMAL","NORMAL",NA,NA,NA,NA,"JOINT, STIFLE",NA,NA,NA,NA,NA,NA,"PATHOLOGIST",NA,NA,"2011-01-10T14:21:00",31
"PDS2014","MI","PDS2014-0067",966,NA,NA,NA,"MIEXAM","Microscopic Examination",NA,"NORMAL","NORMAL",NA,NA,NA,NA,"BRAIN",NA,NA,NA,NA,NA,NA,"PATHOLOGIST",NA,NA,"2011-01-10T14:21:00",31
"PDS2014","MI","PDS2014-0067",967,NA,NA,NA,"MIEXAM","Microscopic Examination",NA,"NORMAL","NORMAL",NA,NA,NA,NA,"GLAND, COAGULATING",NA,NA,NA,NA,NA,NA,"PATHOLOGIST",NA,NA,"2011-01-10T14:21:00",31
"PDS2014","MI","PDS2014-0067",968,NA,NA,NA,"MIEXAM","Microscopic Examination",NA,"NORMAL","NORMAL",NA,NA,NA,NA,"EPIDIDYMIS",NA,NA,NA,NA,NA,NA,"PATHOLOGIST",NA,NA,"2011-01-10T14:21:00",31
"PDS2014","MI","PDS2014-0067",969,NA,NA,NA,"MIEXAM","Microscopic Examination",NA,"NORMAL","NORMAL",NA,NA,NA,NA,"ESOPHAGUS",NA,NA,NA,NA,NA,NA,"PATHOLOGIST",NA,NA,"2011-01-10T14:21:00",31
"PDS2014","MI","PDS2014-0067",970,NA,NA,NA,"MIEXAM","Microscopic Examination",NA,"NORMAL","NORMAL",NA,NA,NA,NA,"EYE",NA,NA,NA,NA,NA,NA,"PATHOLOGIST",NA,NA,"2011-01-10T14:21:00",31
"PDS2014","MI","PDS2014-0067",971,NA,NA,NA,"MIEXAM","Microscopic Examination",NA,"NORMAL","NORMAL",NA,NA,NA,NA,"GLAND, HARDERIAN",NA,NA,NA,NA,NA,NA,"PATHOLOGIST",NA,NA,"2011-01-10T14:21:00",31
"PDS2014","MI","PDS2014-0067",972,NA,NA,NA,"MIEXAM","Microscopic Examination",NA,"NORMAL","NORMAL",NA,NA,NA,NA,"HEART",NA,NA,NA,NA,NA,NA,"PATHOLOGIST",NA,NA,"2011-01-10T14:21:00",31
"PDS2014","MI","PDS2014-0067",973,NA,NA,NA,"MIEXAM","Microscopic Examination",NA,"Necrosis, proximal tubule, focal, grade 2","Necrosis","NON-NEOPLASTIC",NA,NA,NA,"KIDNEY",NA,NA,NA,NA,"BILATERAL",NA,"PATHOLOGIST","MODERATE",NA,"2011-01-10T14:21:00",31
"PDS2014","MI","PDS2014-0067",974,NA,NA,NA,"MIEXAM","Microscopic Examination",NA,"NORMAL","NORMAL",NA,NA,NA,NA,"LARGE INTESTINE, COLON",NA,NA,NA,NA,NA,NA,"PATHOLOGIST",NA,NA,"2011-01-10T14:21:00",31
"PDS2014","MI","PDS2014-0067",975,NA,NA,NA,"MIEXAM","Microscopic Examination",NA,"NORMAL","NORMAL",NA,NA,NA,NA,"LARGE INTESTINE, RECTUM",NA,NA,NA,NA,NA,NA,"PATHOLOGIST",NA,NA,"2011-01-10T14:21:00",31
"PDS2014","MI","PDS2014-0067",976,NA,NA,NA,"MIEXAM","Microscopic Examination",NA,"NORMAL","NORMAL",NA,NA,NA,NA,"LARGE INTESTINE, CECUM",NA,NA,NA,NA,NA,NA,"PATHOLOGIST",NA,NA,"2011-01-10T14:21:00",31
"PDS2014","MI","PDS2014-0067",977,NA,NA,NA,"MIEXAM","Microscopic Examination",NA,"NORMAL","NORMAL",NA,NA,NA,NA,"LARYNX",NA,NA,NA,NA,NA,NA,"PATHOLOGIST",NA,NA,"2011-01-10T14:21:00",31
"PDS2014","MI","PDS2014-0067",978,NA,NA,NA,"MIEXAM","Microscopic Examination",NA,"Vacuolization, centrilobular, grade 2","Vacuolization","NON-NEOPLASTIC",NA,NA,NA,"LIVER",NA,NA,NA,NA,NA,NA,"PATHOLOGIST","MODERATE",NA,"2011-01-10T14:21:00",31
"PDS2014","MI","PDS2014-0067",979,NA,NA,NA,"MIEXAM","Microscopic Examination",NA,"NORMAL","NORMAL",NA,NA,NA,NA,"LUNG",NA,NA,NA,NA,NA,NA,"PATHOLOGIST",NA,NA,"2011-01-10T14:21:00",31
"PDS2014","MI","PDS2014-0067",980,NA,NA,NA,"MIEXAM","Microscopic Examination",NA,"NORMAL","NORMAL",NA,NA,NA,NA,"LYMPH NODE, MESENTERIC",NA,NA,NA,NA,NA,NA,"PATHOLOGIST",NA,NA,"2011-01-10T14:21:00",31
"PDS2014","MI","PDS2014-0067",981,NA,NA,NA,"MIEXAM","Microscopic Examination",NA,"NORMAL","NORMAL",NA,NA,NA,NA,"LYMPH NODE, POPLITEAL",NA,NA,NA,NA,NA,NA,"PATHOLOGIST",NA,NA,"2011-01-10T14:21:00",31
"PDS2014","MI","PDS2014-0067",982,NA,NA,NA,"MIEXAM","Microscopic Examination",NA,"NORMAL","NORMAL",NA,NA,NA,NA,"GLAND, MAMMARY",NA,NA,NA,NA,NA,NA,"PATHOLOGIST",NA,NA,"2011-01-10T14:21:00",31
"PDS2014","MI","PDS2014-0067",983,NA,NA,NA,"MIEXAM","Microscopic Examination",NA,"NORMAL","NORMAL",NA,NA,NA,NA,"NERVE, OPTIC",NA,NA,NA,NA,NA,NA,"PATHOLOGIST",NA,NA,"2011-01-10T14:21:00",31
"PDS2014","MI","PDS2014-0067",984,NA,NA,NA,"MIEXAM","Microscopic Examination",NA,"Inflammation, acute, grade 1","Inflammation","NON-NEOPLASTIC",NA,NA,NA,"PANCREAS",NA,NA,NA,NA,NA,NA,"PATHOLOGIST","MILD",NA,"2011-01-10T14:21:00",31
"PDS2014","MI","PDS2014-0067",985,NA,NA,NA,"MIEXAM","Microscopic Examination",NA,"NORMAL","NORMAL",NA,NA,NA,NA,"GLAND, PARATHYROID",NA,NA,NA,NA,NA,NA,"PATHOLOGIST",NA,NA,"2011-01-10T14:21:00",31
"PDS2014","MI","PDS2014-0067",986,NA,NA,NA,"MIEXAM","Microscopic Examination",NA,"NORMAL","NORMAL",NA,NA,NA,NA,"NERVE, SCIATIC",NA,NA,NA,NA,NA,NA,"PATHOLOGIST",NA,NA,"2011-01-10T14:21:00",31
