"STUDYID","DOMAIN","USUBJID","OMSEQ","OMTESTCD","OMTEST","OMORRES","OMORRESU","OMSTRESC","OMSTRESN","OMSTRESU","OMSTAT","OMREASND","OMSPEC","OMANTREG","OMSPCCND","OMSPCUFL","OMLAT","OMDIR","OMPORTOT","OMEXCLFL","OMREASEX","OMDTC","OMDY"
"PDS2014","OM","PDS2014-0001",1,"WEIGHT","Weight","2.0789","g","2.0789",2.0789,"g",NA,NA,"BRAIN",NA,NA,NA,NA,NA,NA,NA,NA,"2011-01-09T09:55:54",30
"PDS2014","OM","PDS2014-0001",2,"WEIGHT","Weight","1.3104","g","1.3104",1.3104,"g",NA,NA,"HEART",NA,NA,NA,NA,NA,NA,NA,NA,"2011-01-09T09:56:21",30
"PDS2014","OM","PDS2014-0001",3,"WEIGHT","Weight","8.7775","g","8.7775",8.7775,"g",NA,NA,"LIVER",NA,NA,NA,NA,NA,NA,NA,NA,"2011-01-09T09:47:15",30
"PDS2014","OM","PDS2014-0001",4,"WEIGHT","Weight","3.2055","g","3.2055",3.2055,"g",NA,NA,"KIDNEY",NA,NA,NA,NA,NA,NA,NA,NA,"2011-01-09T09:55:18",30
"PDS2014","OM","PDS2014-0001",5,"WEIGHT","Weight","4.069","g","4.069",4.069,"g",NA,NA,"TESTIS",NA,NA,NA,NA,NA,NA,NA,NA,"2011-01-09T09:55:30",30
"PDS2014","OM","PDS2014-0001",6,"WEIGHT","Weight","0.0148","g","0.0148",0.0148,"g",NA,NA,"GLAND, PITUITARY",NA,"FIXED",NA,NA,NA,NA,NA,NA,"2011-01-09T00:00:00",30
"PDS2014","OM","PDS2014-0001",7,"WEIGHT","Weight","0.0269","g","0.0269",0.0269,"g",NA,NA,"GLAND, THYROID",NA,"FIXED",NA,NA,NA,NA,NA,NA,"2011-01-09T00:00:00",30
"PDS2014","OM","PDS2014-0001",8,"WEIGHT","Weight","0.0875","g","0.0875",0.0875,"g",NA,NA,"GLAND, ADRENAL",NA,NA,NA,NA,NA,NA,NA,NA,"2011-01-09T09:54:55",30
"PDS2014","OM","PDS2014-0001",9,"WEIGHT","Weight","0.5583","g","0.5583",0.5583,"g",NA,NA,"SPLEEN",NA,NA,NA,NA,NA,NA,NA,NA,"2011-01-09T09:45:51",30
"PDS2014","OM","PDS2014-0001",10,"WEIGHT","Weight","0.3826","g","0.3826",0.3826,"g",NA,NA,"THYMUS",NA,NA,NA,NA,NA,NA,NA,NA,"2011-01-09T09:56:12",30
"PDS2014","OM","PDS2014-0002",11,"WEIGHT","Weight","2.1089","g","2.1089",2.1089,"g",NA,NA,"BRAIN",NA,NA,NA,NA,NA,NA,NA,NA,"2011-01-09T11:32:58",30
"PDS2014","OM","PDS2014-0002",12,"WEIGHT","Weight","1.4671","g","1.4671",1.4671,"g",NA,NA,"HEART",NA,NA,NA,NA,NA,NA,NA,NA,"2011-01-09T11:34:01",30
"PDS2014","OM","PDS2014-0002",13,"WEIGHT","Weight","9.8338","g","9.8338",9.8338,"g",NA,NA,"LIVER",NA,NA,NA,NA,NA,NA,NA,NA,"2011-01-09T11:29:13",30
"PDS2014","OM","PDS2014-0002",14,"WEIGHT","Weight","2.8","g","2.8",2.8,"g",NA,NA,"KIDNEY",NA,NA,NA,NA,NA,NA,NA,NA,"2011-01-09T11:31:28",30
"PDS2014","OM","PDS2014-0002",15,"WEIGHT","Weight","3.6367","g","3.6367",3.6367,"g",NA,NA,"TESTIS",NA,NA,NA,NA,NA,NA,NA,NA,"2011-01-09T11:31:44",30
"PDS2014","OM","PDS2014-0002",16,"WEIGHT","Weight","0.0135","g","0.0135",0.0135,"g",NA,NA,"GLAND, PITUITARY",NA,"FIXED",NA,NA,NA,NA,NA,NA,"2011-01-09T00:00:00",30
"PDS2014","OM","PDS2014-0002",17,"WEIGHT","Weight","0.0175","g","0.0175",0.0175,"g",NA,NA,"GLAND, THYROID",NA,"FIXED",NA,NA,NA,NA,NA,NA,"2011-01-09T00:00:00",30
"PDS2014","OM","PDS2014-0002",18,"WEIGHT","Weight","0.0766","g","0.0766",0.0766,"g",NA,NA,"GLAND, ADRENAL",NA,NA,NA,NA,NA,NA,NA,NA,"2011-01-09T11:31:06",30
"PDS2014","OM","PDS2014-0002",19,"WEIGHT","Weight","0.699","g","0.699",0.699,"g",NA,NA,"SPLEEN",NA,NA,NA,NA,NA,NA,NA,NA,"2011-01-09T11:28:16",30
"PDS2014","OM","PDS2014-0002",20,"WEIGHT","Weight","0.5844","g","0.5844",0.5844,"g",NA,NA,"THYMUS",NA,NA,NA,NA,NA,NA,NA,NA,"2011-01-09T11:33:51",30
"PDS2014","OM","PDS2014-0003",21,"WEIGHT","Weight","2.2374","g","2.2374",2.2374,"g",NA,NA,"BRAIN",NA,NA,NA,NA,NA,NA,NA,NA,"2011-01-09T14:11:43",30
"PDS2014","OM","PDS2014-0003",22,"WEIGHT","Weight","1.6419","g","1.6419",1.6419,"g",NA,NA,"HEART",NA,NA,NA,NA,NA,NA,NA,NA,"2011-01-09T14:13:04",30
"PDS2014","OM","PDS2014-0003",23,"WEIGHT","Weight","13.2848","g","13.2848",13.2848,"g",NA,NA,"LIVER",NA,NA,NA,NA,NA,NA,NA,NA,"2011-01-09T14:07:14",30
"PDS2014","OM","PDS2014-0003",24,"WEIGHT","Weight","3.487","g","3.487",3.487,"g",NA,NA,"KIDNEY",NA,NA,NA,NA,NA,NA,NA,NA,"2011-01-09T14:09:42",30
"PDS2014","OM","PDS2014-0003",25,"WEIGHT","Weight","3.481","g","3.481",3.481,"g",NA,NA,"TESTIS",NA,NA,NA,NA,NA,NA,NA,NA,"2011-01-09T14:09:57",30
"PDS2014","OM","PDS2014-0003",26,"WEIGHT","Weight","0.0164","g","0.0164",0.0164,"g",NA,NA,"GLAND, PITUITARY",NA,"FIXED",NA,NA,NA,NA,NA,NA,"2011-01-09T00:00:00",30
"PDS2014","OM","PDS2014-0003",27,"WEIGHT","Weight","0.0472","g","0.0472",0.0472,"g",NA,NA,"GLAND, THYROID",NA,"FIXED",NA,NA,NA,NA,NA,NA,"2011-01-09T00:00:00",30
"PDS2014","OM","PDS2014-0003",28,"WEIGHT","Weight","0.086","g","0.086",0.086,"g",NA,NA,"GLAND, ADRENAL",NA,NA,NA,NA,NA,NA,NA,NA,"2011-01-09T14:09:21",30
"PDS2014","OM","PDS2014-0003",29,"WEIGHT","Weight","0.7665","g","0.7665",0.7665,"g",NA,NA,"SPLEEN",NA,NA,NA,NA,NA,NA,NA,NA,"2011-01-09T14:05:48",30
"PDS2014","OM","PDS2014-0003",30,"WEIGHT","Weight","0.4859","g","0.4859",0.4859,"g",NA,NA,"THYMUS",NA,NA,NA,NA,NA,NA,NA,NA,"2011-01-09T14:12:48",30
"PDS2014","OM","PDS2014-0004",31,"WEIGHT","Weight","2.2251","g","2.2251",2.2251,"g",NA,NA,"BRAIN",NA,NA,NA,NA,NA,NA,NA,NA,"2011-01-09T11:07:06",30
"PDS2014","OM","PDS2014-0004",32,"WEIGHT","Weight","1.5245","g","1.5245",1.5245,"g",NA,NA,"HEART",NA,NA,NA,NA,NA,NA,NA,NA,"2011-01-09T11:08:33",30
"PDS2014","OM","PDS2014-0004",33,"WEIGHT","Weight","10.6624","g","10.6624",10.6624,"g",NA,NA,"LIVER",NA,NA,NA,NA,NA,NA,NA,NA,"2011-01-09T11:01:02",30
"PDS2014","OM","PDS2014-0004",34,"WEIGHT","Weight","3.1734","g","3.1734",3.1734,"g",NA,NA,"KIDNEY",NA,NA,NA,NA,NA,NA,NA,NA,"2011-01-09T11:04:54",30
"PDS2014","OM","PDS2014-0004",35,"WEIGHT","Weight","3.5654","g","3.5654",3.5654,"g",NA,NA,"TESTIS",NA,NA,NA,NA,NA,NA,NA,NA,"2011-01-09T11:05:15",30
"PDS2014","OM","PDS2014-0004",36,"WEIGHT","Weight","0.0189","g","0.0189",0.0189,"g",NA,NA,"GLAND, PITUITARY",NA,"FIXED",NA,NA,NA,NA,NA,NA,"2011-01-09T00:00:00",30
"PDS2014","OM","PDS2014-0004",37,"WEIGHT","Weight","0.0263","g","0.0263",0.0263,"g",NA,NA,"GLAND, THYROID",NA,"FIXED",NA,NA,NA,NA,NA,NA,"2011-01-09T00:00:00",30
"PDS2014","OM","PDS2014-0004",38,"WEIGHT","Weight","0.0859","g","0.0859",0.0859,"g",NA,NA,"GLAND, ADRENAL",NA,NA,NA,NA,NA,NA,NA,NA,"2011-01-09T11:04:34",30
"PDS2014","OM","PDS2014-0004",39,"WEIGHT","Weight","0.6588","g","0.6588",0.6588,"g",NA,NA,"SPLEEN",NA,NA,NA,NA,NA,NA,NA,NA,"2011-01-09T10:59:18",30
"PDS2014","OM","PDS2014-0004",40,"WEIGHT","Weight","0.4799","g","0.4799",0.4799,"g",NA,NA,"THYMUS",NA,NA,NA,NA,NA,NA,NA,NA,"2011-01-09T11:08:18",30
"PDS2014","OM","PDS2014-0005",41,"WEIGHT","Weight","2.0908","g","2.0908",2.0908,"g",NA,NA,"BRAIN",NA,NA,NA,NA,NA,NA,NA,NA,"2011-01-09T14:18:48",30
"PDS2014","OM","PDS2014-0005",42,"WEIGHT","Weight","1.4141","g","1.4141",1.4141,"g",NA,NA,"HEART",NA,NA,NA,NA,NA,NA,NA,NA,"2011-01-09T14:20:12",30
"PDS2014","OM","PDS2014-0005",43,"WEIGHT","Weight","9.3514","g","9.3514",9.3514,"g",NA,NA,"LIVER",NA,NA,NA,NA,NA,NA,NA,NA,"2011-01-09T14:13:03",30
"PDS2014","OM","PDS2014-0005",44,"WEIGHT","Weight","2.7992","g","2.7992",2.7992,"g",NA,NA,"KIDNEY",NA,NA,NA,NA,NA,NA,NA,NA,"2011-01-09T14:15:29",30
"PDS2014","OM","PDS2014-0005",45,"WEIGHT","Weight","3.2633","g","3.2633",3.2633,"g",NA,NA,"TESTIS",NA,NA,NA,NA,NA,NA,NA,NA,"2011-01-09T14:15:46",30
"PDS2014","OM","PDS2014-0005",46,"WEIGHT","Weight","0.0157","g","0.0157",0.0157,"g",NA,NA,"GLAND, PITUITARY",NA,"FIXED",NA,NA,NA,NA,NA,NA,"2011-01-09T00:00:00",30
"PDS2014","OM","PDS2014-0005",47,"WEIGHT","Weight","0.0245","g","0.0245",0.0245,"g",NA,NA,"GLAND, THYROID",NA,"FIXED",NA,NA,NA,NA,NA,NA,"2011-01-09T00:00:00",30
"PDS2014","OM","PDS2014-0005",48,"WEIGHT","Weight","0.0686","g","0.0686",0.0686,"g",NA,NA,"GLAND, ADRENAL",NA,NA,NA,NA,NA,NA,NA,NA,"2011-01-09T14:15:16",30
"PDS2014","OM","PDS2014-0005",49,"WEIGHT","Weight","0.6447","g","0.6447",0.6447,"g",NA,NA,"SPLEEN",NA,NA,NA,NA,NA,NA,NA,NA,"2011-01-09T14:11:10",30
"PDS2014","OM","PDS2014-0005",50,"WEIGHT","Weight","0.5195","g","0.5195",0.5195,"g",NA,NA,"THYMUS",NA,NA,NA,NA,NA,NA,NA,NA,"2011-01-09T14:19:57",30
"PDS2014","OM","PDS2014-0006",51,"WEIGHT","Weight","2.2016","g","2.2016",2.2016,"g",NA,NA,"BRAIN",NA,NA,NA,NA,NA,NA,NA,NA,"2011-01-10T10:27:42",31
"PDS2014","OM","PDS2014-0006",52,"WEIGHT","Weight","1.4468","g","1.4468",1.4468,"g",NA,NA,"HEART",NA,NA,NA,NA,NA,NA,NA,NA,"2011-01-10T10:28:14",31
"PDS2014","OM","PDS2014-0006",53,"WEIGHT","Weight","8.1761","g","8.1761",8.1761,"g",NA,NA,"LIVER",NA,NA,NA,NA,NA,NA,NA,NA,"2011-01-10T10:18:43",31
"PDS2014","OM","PDS2014-0006",54,"WEIGHT","Weight","2.7949","g","2.7949",2.7949,"g",NA,NA,"KIDNEY",NA,NA,NA,NA,NA,NA,NA,NA,"2011-01-10T10:26:23",31
"PDS2014","OM","PDS2014-0006",55,"WEIGHT","Weight","3.7763","g","3.7763",3.7763,"g",NA,NA,"TESTIS",NA,NA,NA,NA,NA,NA,NA,NA,"2011-01-10T10:26:43",31
"PDS2014","OM","PDS2014-0006",56,"WEIGHT","Weight","0.0095","g","0.0095",0.0095,"g",NA,NA,"GLAND, PITUITARY",NA,"FIXED",NA,NA,NA,NA,NA,NA,"2011-01-10T00:00:00",31
"PDS2014","OM","PDS2014-0006",57,"WEIGHT","Weight","0.0167","g","0.0167",0.0167,"g",NA,NA,"GLAND, THYROID",NA,"FIXED",NA,NA,NA,NA,NA,NA,"2011-01-10T00:00:00",31
"PDS2014","OM","PDS2014-0006",58,"WEIGHT","Weight","0.082","g","0.082",0.082,"g",NA,NA,"GLAND, ADRENAL",NA,NA,NA,NA,NA,NA,NA,NA,"2011-01-10T10:25:45",31
"PDS2014","OM","PDS2014-0006",59,"WEIGHT","Weight","0.5453","g","0.5453",0.5453,"g",NA,NA,"SPLEEN",NA,NA,NA,NA,NA,NA,NA,NA,"2011-01-10T10:19:14",31
"PDS2014","OM","PDS2014-0006",60,"WEIGHT","Weight","0.2831","g","0.2831",0.2831,"g",NA,NA,"THYMUS",NA,NA,NA,NA,NA,NA,NA,NA,"2011-01-10T10:28:00",31
"PDS2014","OM","PDS2014-0007",61,"WEIGHT","Weight","2.1265","g","2.1265",2.1265,"g",NA,NA,"BRAIN",NA,NA,NA,NA,NA,NA,NA,NA,"2011-01-10T13:43:54",31
"PDS2014","OM","PDS2014-0007",62,"WEIGHT","Weight","1.5127","g","1.5127",1.5127,"g",NA,NA,"HEART",NA,NA,NA,NA,NA,NA,NA,NA,"2011-01-10T13:44:51",31
"PDS2014","OM","PDS2014-0007",63,"WEIGHT","Weight","9.3504","g","9.3504",9.3504,"g",NA,NA,"LIVER",NA,NA,NA,NA,NA,NA,NA,NA,"2011-01-10T13:37:12",31
"PDS2014","OM","PDS2014-0007",64,"WEIGHT","Weight","3.5138","g","3.5138",3.5138,"g",NA,NA,"KIDNEY",NA,NA,NA,NA,NA,NA,NA,NA,"2011-01-10T13:42:02",31
"PDS2014","OM","PDS2014-0007",65,"WEIGHT","Weight","3.3238","g","3.3238",3.3238,"g",NA,NA,"TESTIS",NA,NA,NA,NA,NA,NA,NA,NA,"2011-01-10T13:42:30",31
"PDS2014","OM","PDS2014-0007",66,"WEIGHT","Weight","0.0125","g","0.0125",0.0125,"g",NA,NA,"GLAND, PITUITARY",NA,"FIXED",NA,NA,NA,NA,NA,NA,"2011-01-10T00:00:00",31
"PDS2014","OM","PDS2014-0007",67,"WEIGHT","Weight","0.0324","g","0.0324",0.0324,"g",NA,NA,"GLAND, THYROID",NA,"FIXED",NA,NA,NA,NA,NA,NA,"2011-01-10T00:00:00",31
"PDS2014","OM","PDS2014-0007",68,"WEIGHT","Weight","0.0913","g","0.0913",0.0913,"g",NA,NA,"GLAND, ADRENAL",NA,NA,NA,NA,NA,NA,NA,NA,"2011-01-10T13:40:32",31
"PDS2014","OM","PDS2014-0007",69,"WEIGHT","Weight","0.5854","g","0.5854",0.5854,"g",NA,NA,"SPLEEN",NA,NA,NA,NA,NA,NA,NA,NA,"2011-01-10T13:39:46",31
"PDS2014","OM","PDS2014-0007",70,"WEIGHT","Weight","0.2896","g","0.2896",0.2896,"g",NA,NA,"THYMUS",NA,NA,NA,NA,NA,NA,NA,NA,"2011-01-10T13:44:36",31
"PDS2014","OM","PDS2014-0008",71,"WEIGHT","Weight","2.0869","g","2.0869",2.0869,"g",NA,NA,"BRAIN",NA,NA,NA,NA,NA,NA,NA,NA,"2011-01-10T10:25:50",31
"PDS2014","OM","PDS2014-0008",72,"WEIGHT","Weight","1.3669","g","1.3669",1.3669,"g",NA,NA,"HEART",NA,NA,NA,NA,NA,NA,NA,NA,"2011-01-10T10:26:24",31
"PDS2014","OM","PDS2014-0008",73,"WEIGHT","Weight","13.3327","g","13.3327",13.3327,"g",NA,NA,"LIVER",NA,NA,NA,NA,NA,NA,NA,NA,"2011-01-10T10:20:22",31
"PDS2014","OM","PDS2014-0008",74,"WEIGHT","Weight","2.7755","g","2.7755",2.7755,"g",NA,NA,"KIDNEY",NA,NA,NA,NA,NA,NA,NA,NA,"2011-01-10T10:22:54",31
"PDS2014","OM","PDS2014-0008",75,"WEIGHT","Weight","3.5568","g","3.5568",3.5568,"g",NA,NA,"TESTIS",NA,NA,NA,NA,NA,NA,NA,NA,"2011-01-10T10:23:50",31
"PDS2014","OM","PDS2014-0008",76,"WEIGHT","Weight","0.0151","g","0.0151",0.0151,"g",NA,NA,"GLAND, PITUITARY",NA,"FIXED",NA,NA,NA,NA,NA,NA,"2011-01-10T00:00:00",31
"PDS2014","OM","PDS2014-0008",77,"WEIGHT","Weight","0.0269","g","0.0269",0.0269,"g",NA,NA,"GLAND, THYROID",NA,"FIXED",NA,NA,NA,NA,NA,NA,"2011-01-10T00:00:00",31
"PDS2014","OM","PDS2014-0008",78,"WEIGHT","Weight","0.0739","g","0.0739",0.0739,"g",NA,NA,"GLAND, ADRENAL",NA,NA,NA,NA,NA,NA,NA,NA,"2011-01-10T10:22:33",31
"PDS2014","OM","PDS2014-0008",79,"WEIGHT","Weight","0.6148","g","0.6148",0.6148,"g",NA,NA,"SPLEEN",NA,NA,NA,NA,NA,NA,NA,NA,"2011-01-10T10:22:07",31
"PDS2014","OM","PDS2014-0008",80,"WEIGHT","Weight","0.227","g","0.227",0.227,"g",NA,NA,"THYMUS",NA,NA,NA,NA,NA,NA,NA,NA,"2011-01-10T10:26:12",31
"PDS2014","OM","PDS2014-0009",81,"WEIGHT","Weight","2.0489","g","2.0489",2.0489,"g",NA,NA,"BRAIN",NA,NA,NA,NA,NA,NA,NA,NA,"2011-01-10T13:43:27",31
"PDS2014","OM","PDS2014-0009",82,"WEIGHT","Weight","1.0978","g","1.0978",1.0978,"g",NA,NA,"HEART",NA,NA,NA,NA,NA,NA,NA,NA,"2011-01-10T13:45:40",31
"PDS2014","OM","PDS2014-0009",83,"WEIGHT","Weight","5.9919","g","5.9919",5.9919,"g",NA,NA,"LIVER",NA,NA,NA,NA,NA,NA,NA,NA,"2011-01-10T13:39:22",31
"PDS2014","OM","PDS2014-0009",84,"WEIGHT","Weight","1.7533","g","1.7533",1.7533,"g",NA,NA,"KIDNEY",NA,NA,NA,NA,NA,NA,NA,NA,"2011-01-10T13:42:22",31
"PDS2014","OM","PDS2014-0009",85,"WEIGHT","Weight","2.9118","g","2.9118",2.9118,"g",NA,NA,"TESTIS",NA,NA,NA,NA,NA,NA,NA,NA,"2011-01-10T13:42:36",31
"PDS2014","OM","PDS2014-0009",86,"WEIGHT","Weight","0.013","g","0.013",0.013,"g",NA,NA,"GLAND, PITUITARY",NA,"FIXED",NA,NA,NA,NA,NA,NA,"2011-01-10T00:00:00",31
"PDS2014","OM","PDS2014-0009",87,"WEIGHT","Weight","0.0286","g","0.0286",0.0286,"g",NA,NA,"GLAND, THYROID",NA,"FIXED",NA,NA,NA,NA,NA,NA,"2011-01-10T00:00:00",31
"PDS2014","OM","PDS2014-0009",88,"WEIGHT","Weight","0.072","g","0.072",0.072,"g",NA,NA,"GLAND, ADRENAL",NA,NA,NA,NA,NA,NA,NA,NA,"2011-01-10T13:41:22",31
"PDS2014","OM","PDS2014-0009",89,"WEIGHT","Weight","0.4314","g","0.4314",0.4314,"g",NA,NA,"SPLEEN",NA,NA,NA,NA,NA,NA,NA,NA,"2011-01-10T13:41:02",31
"PDS2014","OM","PDS2014-0009",90,"WEIGHT","Weight","0.2416","g","0.2416",0.2416,"g",NA,NA,"THYMUS",NA,NA,NA,NA,NA,NA,NA,NA,"2011-01-10T13:45:29",31
"PDS2014","OM","PDS2014-0010",91,"WEIGHT","Weight",NA,NA,NA,NA,NA,"NOT DONE","perfusion animal","BRAIN",NA,NA,NA,NA,NA,NA,NA,NA,NA,NA
"PDS2014","OM","PDS2014-0010",92,"WEIGHT","Weight",NA,NA,NA,NA,NA,"NOT DONE","perfusion animal","HEART",NA,NA,NA,NA,NA,NA,NA,NA,NA,NA
"PDS2014","OM","PDS2014-0010",93,"WEIGHT","Weight",NA,NA,NA,NA,NA,"NOT DONE","perfusion animal","LIVER",NA,NA,NA,NA,NA,NA,NA,NA,NA,NA
"PDS2014","OM","PDS2014-0010",94,"WEIGHT","Weight",NA,NA,NA,NA,NA,"NOT DONE","perfusion animal","KIDNEY",NA,NA,NA,NA,NA,NA,NA,NA,NA,NA
"PDS2014","OM","PDS2014-0010",95,"WEIGHT","Weight",NA,NA,NA,NA,NA,"NOT DONE","perfusion animal","TESTIS",NA,NA,NA,NA,NA,NA,NA,NA,NA,NA
"PDS2014","OM","PDS2014-0010",96,"WEIGHT","Weight",NA,NA,NA,NA,NA,"NOT DONE","perfusion animal","GLAND, PITUITARY",NA,NA,NA,NA,NA,NA,NA,NA,NA,NA
"PDS2014","OM","PDS2014-0010",97,"WEIGHT","Weight",NA,NA,NA,NA,NA,"NOT DONE","perfusion animal","GLAND, THYROID",NA,NA,NA,NA,NA,NA,NA,NA,NA,NA
"PDS2014","OM","PDS2014-0010",98,"WEIGHT","Weight",NA,NA,NA,NA,NA,"NOT DONE","perfusion animal","GLAND, ADRENAL",NA,NA,NA,NA,NA,NA,NA,NA,NA,NA
"PDS2014","OM","PDS2014-0010",99,"WEIGHT","Weight",NA,NA,NA,NA,NA,"NOT DONE","perfusion animal","SPLEEN",NA,NA,NA,NA,NA,NA,NA,NA,NA,NA
"PDS2014","OM","PDS2014-0010",100,"WEIGHT","Weight",NA,NA,NA,NA,NA,"NOT DONE","perfusion animal","THYMUS",NA,NA,NA,NA,NA,NA,NA,NA,NA,NA
"PDS2014","OM","PDS2014-0011",101,"WEIGHT","Weight","2.3233","g","2.3233",2.3233,"g",NA,NA,"BRAIN",NA,NA,NA,NA,NA,NA,NA,NA,"2011-02-06T08:56:30",58
"PDS2014","OM","PDS2014-0011",102,"WEIGHT","Weight","1.6942","g","1.6942",1.6942,"g",NA,NA,"HEART",NA,NA,NA,NA,NA,NA,NA,NA,"2011-02-06T08:57:44",58
"PDS2014","OM","PDS2014-0011",103,"WEIGHT","Weight","10.5508","g","10.5508",10.5508,"g",NA,NA,"LIVER",NA,NA,NA,NA,NA,NA,NA,NA,"2011-02-06T08:52:27",58
"PDS2014","OM","PDS2014-0011",104,"WEIGHT","Weight","3.2246","g","3.2246",3.2246,"g",NA,NA,"KIDNEY",NA,NA,NA,NA,NA,NA,NA,NA,"2011-02-06T08:54:57",58
"PDS2014","OM","PDS2014-0011",105,"WEIGHT","Weight","3.6361","g","3.6361",3.6361,"g",NA,NA,"TESTIS",NA,NA,NA,NA,NA,NA,NA,NA,"2011-02-06T08:55:25",58
"PDS2014","OM","PDS2014-0011",106,"WEIGHT","Weight","0.0175","g","0.0175",0.0175,"g",NA,NA,"GLAND, PITUITARY",NA,"FIXED",NA,NA,NA,NA,NA,NA,"2011-02-06T00:00:00",58
"PDS2014","OM","PDS2014-0011",107,"WEIGHT","Weight","0.0448","g","0.0448",0.0448,"g",NA,NA,"GLAND, THYROID",NA,"FIXED",NA,NA,NA,NA,NA,NA,"2011-02-06T00:00:00",58
"PDS2014","OM","PDS2014-0011",108,"WEIGHT","Weight","0.0688","g","0.0688",0.0688,"g",NA,NA,"GLAND, ADRENAL",NA,NA,NA,NA,NA,NA,NA,NA,"2011-02-06T08:54:37",58
"PDS2014","OM","PDS2014-0011",109,"WEIGHT","Weight","0.7383","g","0.7383",0.7383,"g",NA,NA,"SPLEEN",NA,NA,NA,NA,NA,NA,NA,NA,"2011-02-06T08:51:00",58
"PDS2014","OM","PDS2014-0011",110,"WEIGHT","Weight","0.374","g","0.374",0.374,"g",NA,NA,"THYMUS",NA,NA,NA,NA,NA,NA,NA,NA,"2011-02-06T08:57:33",58
"PDS2014","OM","PDS2014-0012",111,"WEIGHT","Weight","2.3403","g","2.3403",2.3403,"g",NA,NA,"BRAIN",NA,NA,NA,NA,NA,NA,NA,NA,"2011-02-06T09:42:40",58
"PDS2014","OM","PDS2014-0012",112,"WEIGHT","Weight","1.6835","g","1.6835",1.6835,"g",NA,NA,"HEART",NA,NA,NA,NA,NA,NA,NA,NA,"2011-02-06T09:43:25",58
"PDS2014","OM","PDS2014-0012",113,"WEIGHT","Weight","11.2931","g","11.2931",11.2931,"g",NA,NA,"LIVER",NA,NA,NA,NA,NA,NA,NA,NA,"2011-02-06T09:38:18",58
"PDS2014","OM","PDS2014-0012",114,"WEIGHT","Weight","3.1862","g","3.1862",3.1862,"g",NA,NA,"KIDNEY",NA,NA,NA,NA,NA,NA,NA,NA,"2011-02-06T09:39:56",58
"PDS2014","OM","PDS2014-0012",115,"WEIGHT","Weight","3.6185","g","3.6185",3.6185,"g",NA,NA,"TESTIS",NA,NA,NA,NA,NA,NA,NA,NA,"2011-02-06T09:40:26",58
"PDS2014","OM","PDS2014-0012",116,"WEIGHT","Weight","0.0173","g","0.0173",0.0173,"g",NA,NA,"GLAND, PITUITARY",NA,"FIXED",NA,NA,NA,NA,NA,NA,"2011-02-06T00:00:00",58
"PDS2014","OM","PDS2014-0012",117,"WEIGHT","Weight","0.0386","g","0.0386",0.0386,"g",NA,NA,"GLAND, THYROID",NA,"FIXED",NA,NA,NA,NA,NA,NA,"2011-02-06T00:00:00",58
"PDS2014","OM","PDS2014-0012",118,"WEIGHT","Weight","0.0774","g","0.0774",0.0774,"g",NA,NA,"GLAND, ADRENAL",NA,NA,NA,NA,NA,NA,NA,NA,"2011-02-06T09:39:43",58
"PDS2014","OM","PDS2014-0012",119,"WEIGHT","Weight","0.8062","g","0.8062",0.8062,"g",NA,NA,"SPLEEN",NA,NA,NA,NA,NA,NA,NA,NA,"2011-02-06T09:37:11",58
"PDS2014","OM","PDS2014-0012",120,"WEIGHT","Weight","0.2374","g","0.2374",0.2374,"g",NA,NA,"THYMUS",NA,NA,NA,NA,NA,NA,NA,NA,"2011-02-06T09:43:15",58
"PDS2014","OM","PDS2014-0013",121,"WEIGHT","Weight","2.1581","g","2.1581",2.1581,"g",NA,NA,"BRAIN",NA,NA,NA,NA,NA,NA,NA,NA,"2011-02-06T11:01:59",58
"PDS2014","OM","PDS2014-0013",122,"WEIGHT","Weight","1.5345","g","1.5345",1.5345,"g",NA,NA,"HEART",NA,NA,NA,NA,NA,NA,NA,NA,"2011-02-06T11:02:56",58
"PDS2014","OM","PDS2014-0013",123,"WEIGHT","Weight","9.5001","g","9.5001",9.5001,"g",NA,NA,"LIVER",NA,NA,NA,NA,NA,NA,NA,NA,"2011-02-06T10:58:33",58
"PDS2014","OM","PDS2014-0013",124,"WEIGHT","Weight","2.9252","g","2.9252",2.9252,"g",NA,NA,"KIDNEY",NA,NA,NA,NA,NA,NA,NA,NA,"2011-02-06T11:00:14",58
"PDS2014","OM","PDS2014-0013",125,"WEIGHT","Weight","4.0259","g","4.0259",4.0259,"g",NA,NA,"TESTIS",NA,NA,NA,NA,NA,NA,NA,NA,"2011-02-06T11:00:31",58
"PDS2014","OM","PDS2014-0013",126,"WEIGHT","Weight","0.0163","g","0.0163",0.0163,"g",NA,NA,"GLAND, PITUITARY",NA,"FIXED",NA,NA,NA,NA,NA,NA,"2011-02-06T00:00:00",58
"PDS2014","OM","PDS2014-0013",127,"WEIGHT","Weight","0.0403","g","0.0403",0.0403,"g",NA,NA,"GLAND, THYROID",NA,"FIXED",NA,NA,NA,NA,NA,NA,"2011-02-06T00:00:00",58
"PDS2014","OM","PDS2014-0013",128,"WEIGHT","Weight","0.0653","g","0.0653",0.0653,"g",NA,NA,"GLAND, ADRENAL",NA,NA,NA,NA,NA,NA,NA,NA,"2011-02-06T10:59:16",58
"PDS2014","OM","PDS2014-0013",129,"WEIGHT","Weight","0.7003","g","0.7003",0.7003,"g",NA,NA,"SPLEEN",NA,NA,NA,NA,NA,NA,NA,NA,"2011-02-06T10:57:24",58
"PDS2014","OM","PDS2014-0013",130,"WEIGHT","Weight","0.1778","g","0.1778",0.1778,"g",NA,NA,"THYMUS",NA,NA,NA,NA,NA,NA,NA,NA,"2011-02-06T11:02:46",58
"PDS2014","OM","PDS2014-0014",131,"WEIGHT","Weight","1.9834","g","1.9834",1.9834,"g",NA,NA,"BRAIN",NA,NA,NA,NA,NA,NA,NA,NA,"2011-02-06T09:21:18",58
"PDS2014","OM","PDS2014-0014",132,"WEIGHT","Weight","1.3226","g","1.3226",1.3226,"g",NA,NA,"HEART",NA,NA,NA,NA,NA,NA,NA,NA,"2011-02-06T09:27:12",58
"PDS2014","OM","PDS2014-0014",133,"WEIGHT","Weight","8.7448","g","8.7448",8.7448,"g",NA,NA,"LIVER",NA,NA,NA,NA,NA,NA,NA,NA,"2011-02-06T09:23:15",58
"PDS2014","OM","PDS2014-0014",134,"WEIGHT","Weight","2.6565","g","2.6565",2.6565,"g",NA,NA,"KIDNEY",NA,NA,NA,NA,NA,NA,NA,NA,"2011-02-06T09:24:26",58
"PDS2014","OM","PDS2014-0014",135,"WEIGHT","Weight","4.0469","g","4.0469",4.0469,"g",NA,NA,"TESTIS",NA,NA,NA,NA,NA,NA,NA,NA,"2011-02-06T09:25:35",58
"PDS2014","OM","PDS2014-0014",136,"WEIGHT","Weight","0.0134","g","0.0134",0.0134,"g",NA,NA,"GLAND, PITUITARY",NA,"FIXED",NA,NA,NA,NA,NA,NA,"2011-02-06T00:00:00",58
"PDS2014","OM","PDS2014-0014",137,"WEIGHT","Weight","0.0351","g","0.0351",0.0351,"g",NA,NA,"GLAND, THYROID",NA,"FIXED",NA,NA,NA,NA,NA,NA,"2011-02-06T00:00:00",58
"PDS2014","OM","PDS2014-0014",138,"WEIGHT","Weight","0.0886","g","0.0886",0.0886,"g",NA,NA,"GLAND, ADRENAL",NA,NA,NA,NA,NA,NA,NA,NA,"2011-02-06T09:24:10",58
"PDS2014","OM","PDS2014-0014",139,"WEIGHT","Weight","0.655","g","0.655",0.655,"g",NA,NA,"SPLEEN",NA,NA,NA,NA,NA,NA,NA,NA,"2011-02-06T09:22:05",58
"PDS2014","OM","PDS2014-0014",140,"WEIGHT","Weight","0.2274","g","0.2274",0.2274,"g",NA,NA,"THYMUS",NA,NA,NA,NA,NA,NA,NA,NA,"2011-02-06T09:26:03",58
"PDS2014","OM","PDS2014-0015",141,"WEIGHT","Weight","2.0916","g","2.0916",2.0916,"g",NA,NA,"BRAIN",NA,NA,NA,NA,NA,NA,NA,NA,"2011-02-06T10:38:49",58
"PDS2014","OM","PDS2014-0015",142,"WEIGHT","Weight","1.4021","g","1.4021",1.4021,"g",NA,NA,"HEART",NA,NA,NA,NA,NA,NA,NA,NA,"2011-02-06T10:44:38",58
"PDS2014","OM","PDS2014-0015",143,"WEIGHT","Weight","9.511","g","9.511",9.511,"g",NA,NA,"LIVER",NA,NA,NA,NA,NA,NA,NA,NA,"2011-02-06T10:40:55",58
"PDS2014","OM","PDS2014-0015",144,"WEIGHT","Weight","2.7381","g","2.7381",2.7381,"g",NA,NA,"KIDNEY",NA,NA,NA,NA,NA,NA,NA,NA,"2011-02-06T10:42:26",58
"PDS2014","OM","PDS2014-0015",145,"WEIGHT","Weight","3.9078","g","3.9078",3.9078,"g",NA,NA,"TESTIS",NA,NA,NA,NA,NA,NA,NA,NA,"2011-02-06T10:43:01",58
"PDS2014","OM","PDS2014-0015",146,"WEIGHT","Weight","0.0126","g","0.0126",0.0126,"g",NA,NA,"GLAND, PITUITARY",NA,"FIXED",NA,NA,NA,NA,NA,NA,"2011-02-06T00:00:00",58
"PDS2014","OM","PDS2014-0015",147,"WEIGHT","Weight","0.0363","g","0.0363",0.0363,"g",NA,NA,"GLAND, THYROID",NA,"FIXED",NA,NA,NA,NA,NA,NA,"2011-02-06T00:00:00",58
"PDS2014","OM","PDS2014-0015",148,"WEIGHT","Weight","0.0623","g","0.0623",0.0623,"g",NA,NA,"GLAND, ADRENAL",NA,NA,NA,NA,NA,NA,NA,NA,"2011-02-06T10:41:39",58
"PDS2014","OM","PDS2014-0015",149,"WEIGHT","Weight","0.7685","g","0.7685",0.7685,"g",NA,NA,"SPLEEN",NA,NA,NA,NA,NA,NA,NA,NA,"2011-02-06T10:39:55",58
"PDS2014","OM","PDS2014-0015",150,"WEIGHT","Weight","0.2959","g","0.2959",0.2959,"g",NA,NA,"THYMUS",NA,NA,NA,NA,NA,NA,NA,NA,"2011-02-06T10:44:27",58
"PDS2014","OM","PDS2014-0021",151,"WEIGHT","Weight","2.1432","g","2.1432",2.1432,"g",NA,NA,"BRAIN",NA,NA,NA,NA,NA,NA,NA,NA,"2011-01-09T10:06:06",30
"PDS2014","OM","PDS2014-0021",152,"WEIGHT","Weight","1.4355","g","1.4355",1.4355,"g",NA,NA,"HEART",NA,NA,NA,NA,NA,NA,NA,NA,"2011-01-09T10:06:53",30
"PDS2014","OM","PDS2014-0021",153,"WEIGHT","Weight","10.6053","g","10.6053",10.6053,"g",NA,NA,"LIVER",NA,NA,NA,NA,NA,NA,NA,NA,"2011-01-09T10:01:58",30
"PDS2014","OM","PDS2014-0021",154,"WEIGHT","Weight","3.1573","g","3.1573",3.1573,"g",NA,NA,"KIDNEY",NA,NA,NA,NA,NA,NA,NA,NA,"2011-01-09T10:04:17",30
"PDS2014","OM","PDS2014-0021",155,"WEIGHT","Weight","3.7827","g","3.7827",3.7827,"g",NA,NA,"TESTIS",NA,NA,NA,NA,NA,NA,NA,NA,"2011-01-09T10:04:43",30
"PDS2014","OM","PDS2014-0021",156,"WEIGHT","Weight","0.015","g","0.015",0.015,"g",NA,NA,"GLAND, PITUITARY",NA,"FIXED",NA,NA,NA,NA,NA,NA,"2011-01-09T00:00:00",30
"PDS2014","OM","PDS2014-0021",157,"WEIGHT","Weight","0.0242","g","0.0242",0.0242,"g",NA,NA,"GLAND, THYROID",NA,"FIXED",NA,NA,NA,NA,NA,NA,"2011-01-09T00:00:00",30
"PDS2014","OM","PDS2014-0021",158,"WEIGHT","Weight","0.0909","g","0.0909",0.0909,"g",NA,NA,"GLAND, ADRENAL",NA,NA,NA,NA,NA,NA,NA,NA,"2011-01-09T10:04:00",30
"PDS2014","OM","PDS2014-0021",159,"WEIGHT","Weight","0.7922","g","0.7922",0.7922,"g",NA,NA,"SPLEEN",NA,NA,NA,NA,NA,NA,NA,NA,"2011-01-09T10:00:50",30
"PDS2014","OM","PDS2014-0021",160,"WEIGHT","Weight","0.3421","g","0.3421",0.3421,"g",NA,NA,"THYMUS",NA,NA,NA,NA,NA,NA,NA,NA,"2011-01-09T10:06:42",30
"PDS2014","OM","PDS2014-0022",161,"WEIGHT","Weight","1.7744","g","1.7744",1.7744,"g",NA,NA,"BRAIN",NA,NA,NA,NA,NA,NA,NA,NA,"2011-01-09T11:46:02",30
"PDS2014","OM","PDS2014-0022",162,"WEIGHT","Weight","1.2938","g","1.2938",1.2938,"g",NA,NA,"HEART",NA,NA,NA,NA,NA,NA,NA,NA,"2011-01-09T11:47:12",30
"PDS2014","OM","PDS2014-0022",163,"WEIGHT","Weight","8.333","g","8.333",8.333,"g",NA,NA,"LIVER",NA,NA,NA,NA,NA,NA,NA,NA,"2011-01-09T11:41:11",30
"PDS2014","OM","PDS2014-0022",164,"WEIGHT","Weight","2.4653","g","2.4653",2.4653,"g",NA,NA,"KIDNEY",NA,NA,NA,NA,NA,NA,NA,NA,"2011-01-09T11:43:47",30
"PDS2014","OM","PDS2014-0022",165,"WEIGHT","Weight","2.7799","g","2.7799",2.7799,"g",NA,NA,"TESTIS",NA,NA,NA,NA,NA,NA,NA,NA,"2011-01-09T11:44:04",30
"PDS2014","OM","PDS2014-0022",166,"WEIGHT","Weight","0.0115","g","0.0115",0.0115,"g",NA,NA,"GLAND, PITUITARY",NA,"FIXED",NA,NA,NA,NA,NA,NA,"2011-01-09T00:00:00",30
"PDS2014","OM","PDS2014-0022",167,"WEIGHT","Weight","0.0264","g","0.0264",0.0264,"g",NA,NA,"GLAND, THYROID",NA,"FIXED",NA,NA,NA,NA,NA,NA,"2011-01-09T00:00:00",30
"PDS2014","OM","PDS2014-0022",168,"WEIGHT","Weight","0.0622","g","0.0622",0.0622,"g",NA,NA,"GLAND, ADRENAL",NA,NA,NA,NA,NA,NA,NA,NA,"2011-01-09T11:43:26",30
"PDS2014","OM","PDS2014-0022",169,"WEIGHT","Weight","0.4954","g","0.4954",0.4954,"g",NA,NA,"SPLEEN",NA,NA,NA,NA,NA,NA,NA,NA,"2011-01-09T11:39:42",30
"PDS2014","OM","PDS2014-0022",170,"WEIGHT","Weight","0.4294","g","0.4294",0.4294,"g",NA,NA,"THYMUS",NA,NA,NA,NA,NA,NA,NA,NA,"2011-01-09T11:46:59",30
"PDS2014","OM","PDS2014-0023",171,"WEIGHT","Weight","2.1144","g","2.1144",2.1144,"g",NA,NA,"BRAIN",NA,NA,NA,NA,NA,NA,NA,NA,"2011-01-09T14:24:07",30
"PDS2014","OM","PDS2014-0023",172,"WEIGHT","Weight","1.3618","g","1.3618",1.3618,"g",NA,NA,"HEART",NA,NA,NA,NA,NA,NA,NA,NA,"2011-01-09T14:24:59",30
"PDS2014","OM","PDS2014-0023",173,"WEIGHT","Weight","10.4369","g","10.4369",10.4369,"g",NA,NA,"LIVER",NA,NA,NA,NA,NA,NA,NA,NA,"2011-01-09T14:19:50",30
"PDS2014","OM","PDS2014-0023",174,"WEIGHT","Weight","3.0889","g","3.0889",3.0889,"g",NA,NA,"KIDNEY",NA,NA,NA,NA,NA,NA,NA,NA,"2011-01-09T14:22:36",30
"PDS2014","OM","PDS2014-0023",175,"WEIGHT","Weight","3.1954","g","3.1954",3.1954,"g",NA,NA,"TESTIS",NA,NA,NA,NA,NA,NA,NA,NA,"2011-01-09T14:22:50",30
"PDS2014","OM","PDS2014-0023",176,"WEIGHT","Weight","0.0165","g","0.0165",0.0165,"g",NA,NA,"GLAND, PITUITARY",NA,"FIXED",NA,NA,NA,NA,NA,NA,"2011-01-09T00:00:00",30
"PDS2014","OM","PDS2014-0023",177,"WEIGHT","Weight","0.0286","g","0.0286",0.0286,"g",NA,NA,"GLAND, THYROID",NA,"FIXED",NA,NA,NA,NA,NA,NA,"2011-01-09T00:00:00",30
"PDS2014","OM","PDS2014-0023",178,"WEIGHT","Weight","0.0662","g","0.0662",0.0662,"g",NA,NA,"GLAND, ADRENAL",NA,NA,NA,NA,NA,NA,NA,NA,"2011-01-09T14:22:03",30
"PDS2014","OM","PDS2014-0023",179,"WEIGHT","Weight","0.7082","g","0.7082",0.7082,"g",NA,NA,"SPLEEN",NA,NA,NA,NA,NA,NA,NA,NA,"2011-01-09T14:18:33",30
"PDS2014","OM","PDS2014-0023",180,"WEIGHT","Weight","0.5261","g","0.5261",0.5261,"g",NA,NA,"THYMUS",NA,NA,NA,NA,NA,NA,NA,NA,"2011-01-09T14:24:47",30
"PDS2014","OM","PDS2014-0024",181,"WEIGHT","Weight","2.0499","g","2.0499",2.0499,"g",NA,NA,"BRAIN",NA,NA,NA,NA,NA,NA,NA,NA,"2011-01-09T11:23:17",30
"PDS2014","OM","PDS2014-0024",182,"WEIGHT","Weight","1.2531","g","1.2531",1.2531,"g",NA,NA,"HEART",NA,NA,NA,NA,NA,NA,NA,NA,"2011-01-09T11:24:28",30
"PDS2014","OM","PDS2014-0024",183,"WEIGHT","Weight","9.3067","g","9.3067",9.3067,"g",NA,NA,"LIVER",NA,NA,NA,NA,NA,NA,NA,NA,"2011-01-09T11:17:13",30
"PDS2014","OM","PDS2014-0024",184,"WEIGHT","Weight","2.7879","g","2.7879",2.7879,"g",NA,NA,"KIDNEY",NA,NA,NA,NA,NA,NA,NA,NA,"2011-01-09T11:19:50",30
"PDS2014","OM","PDS2014-0024",185,"WEIGHT","Weight","3.3675","g","3.3675",3.3675,"g",NA,NA,"TESTIS",NA,NA,NA,NA,NA,NA,NA,NA,"2011-01-09T11:20:29",30
"PDS2014","OM","PDS2014-0024",186,"WEIGHT","Weight","0.0139","g","0.0139",0.0139,"g",NA,NA,"GLAND, PITUITARY",NA,"FIXED",NA,NA,NA,NA,NA,NA,"2011-01-09T00:00:00",30
"PDS2014","OM","PDS2014-0024",187,"WEIGHT","Weight","0.0204","g","0.0204",0.0204,"g",NA,NA,"GLAND, THYROID",NA,"FIXED",NA,NA,NA,NA,NA,NA,"2011-01-09T00:00:00",30
"PDS2014","OM","PDS2014-0024",188,"WEIGHT","Weight","0.077","g","0.077",0.077,"g",NA,NA,"GLAND, ADRENAL",NA,NA,NA,NA,NA,NA,NA,NA,"2011-01-09T11:19:33",30
"PDS2014","OM","PDS2014-0024",189,"WEIGHT","Weight","0.5927","g","0.5927",0.5927,"g",NA,NA,"SPLEEN",NA,NA,NA,NA,NA,NA,NA,NA,"2011-01-09T11:16:26",30
"PDS2014","OM","PDS2014-0024",190,"WEIGHT","Weight","0.3583","g","0.3583",0.3583,"g",NA,NA,"THYMUS",NA,NA,NA,NA,NA,NA,NA,NA,"2011-01-09T11:24:16",30
"PDS2014","OM","PDS2014-0025",191,"WEIGHT","Weight","2.1373","g","2.1373",2.1373,"g",NA,NA,"BRAIN",NA,NA,NA,NA,NA,NA,NA,NA,"2011-01-09T14:36:40",30
"PDS2014","OM","PDS2014-0025",192,"WEIGHT","Weight","1.4346","g","1.4346",1.4346,"g",NA,NA,"HEART",NA,NA,NA,NA,NA,NA,NA,NA,"2011-01-09T14:38:01",30
"PDS2014","OM","PDS2014-0025",193,"WEIGHT","Weight","9.6558","g","9.6558",9.6558,"g",NA,NA,"LIVER",NA,NA,NA,NA,NA,NA,NA,NA,"2011-01-09T14:30:45",30
"PDS2014","OM","PDS2014-0025",194,"WEIGHT","Weight","3.0144","g","3.0144",3.0144,"g",NA,NA,"KIDNEY",NA,NA,NA,NA,NA,NA,NA,NA,"2011-01-09T14:33:48",30
"PDS2014","OM","PDS2014-0025",195,"WEIGHT","Weight","3.2195","g","3.2195",3.2195,"g",NA,NA,"TESTIS",NA,NA,NA,NA,NA,NA,NA,NA,"2011-01-09T14:34:11",30
"PDS2014","OM","PDS2014-0025",196,"WEIGHT","Weight","0.0139","g","0.0139",0.0139,"g",NA,NA,"GLAND, PITUITARY",NA,"FIXED",NA,NA,NA,NA,NA,NA,"2011-01-09T00:00:00",30
"PDS2014","OM","PDS2014-0025",197,"WEIGHT","Weight","0.0224","g","0.0224",0.0224,"g",NA,NA,"GLAND, THYROID",NA,"FIXED",NA,NA,NA,NA,NA,NA,"2011-01-09T00:00:00",30
"PDS2014","OM","PDS2014-0025",198,"WEIGHT","Weight","0.0596","g","0.0596",0.0596,"g",NA,NA,"GLAND, ADRENAL",NA,NA,NA,NA,NA,NA,NA,NA,"2011-01-09T14:32:53",30
"PDS2014","OM","PDS2014-0025",199,"WEIGHT","Weight","0.6086","g","0.6086",0.6086,"g",NA,NA,"SPLEEN",NA,NA,NA,NA,NA,NA,NA,NA,"2011-01-09T14:28:41",30
"PDS2014","OM","PDS2014-0025",200,"WEIGHT","Weight","0.3776","g","0.3776",0.3776,"g",NA,NA,"THYMUS",NA,NA,NA,NA,NA,NA,NA,NA,"2011-01-09T14:37:52",30
"PDS2014","OM","PDS2014-0026",201,"WEIGHT","Weight","2.1377","g","2.1377",2.1377,"g",NA,NA,"BRAIN",NA,NA,NA,NA,NA,NA,NA,NA,"2011-01-10T10:38:52",31
"PDS2014","OM","PDS2014-0026",202,"WEIGHT","Weight","1.3277","g","1.3277",1.3277,"g",NA,NA,"HEART",NA,NA,NA,NA,NA,NA,NA,NA,"2011-01-10T10:39:49",31
"PDS2014","OM","PDS2014-0026",203,"WEIGHT","Weight","9.8795","g","9.8795",9.8795,"g",NA,NA,"LIVER",NA,NA,NA,NA,NA,NA,NA,NA,"2011-01-10T10:33:18",31
"PDS2014","OM","PDS2014-0026",204,"WEIGHT","Weight","3.0423","g","3.0423",3.0423,"g",NA,NA,"KIDNEY",NA,NA,NA,NA,NA,NA,NA,NA,"2011-01-10T10:36:58",31
"PDS2014","OM","PDS2014-0026",205,"WEIGHT","Weight","3.6886","g","3.6886",3.6886,"g",NA,NA,"TESTIS",NA,NA,NA,NA,NA,NA,NA,NA,"2011-01-10T10:37:44",31
"PDS2014","OM","PDS2014-0026",206,"WEIGHT","Weight","0.0152","g","0.0152",0.0152,"g",NA,NA,"GLAND, PITUITARY",NA,"FIXED",NA,NA,NA,NA,NA,NA,"2011-01-10T00:00:00",31
"PDS2014","OM","PDS2014-0026",207,"WEIGHT","Weight","0.0284","g","0.0284",0.0284,"g",NA,NA,"GLAND, THYROID",NA,"FIXED",NA,NA,NA,NA,NA,NA,"2011-01-10T00:00:00",31
"PDS2014","OM","PDS2014-0026",208,"WEIGHT","Weight","0.0654","g","0.0654",0.0654,"g",NA,NA,"GLAND, ADRENAL",NA,NA,NA,NA,NA,NA,NA,NA,"2011-01-10T10:35:53",31
"PDS2014","OM","PDS2014-0026",209,"WEIGHT","Weight","0.6338","g","0.6338",0.6338,"g",NA,NA,"SPLEEN",NA,NA,NA,NA,NA,NA,NA,NA,"2011-01-10T10:35:33",31
"PDS2014","OM","PDS2014-0026",210,"WEIGHT","Weight","0.3423","g","0.3423",0.3423,"g",NA,NA,"THYMUS",NA,NA,NA,NA,NA,NA,NA,NA,"2011-01-10T10:39:09",31
"PDS2014","OM","PDS2014-0027",211,"WEIGHT","Weight","2.0403","g","2.0403",2.0403,"g",NA,NA,"BRAIN",NA,NA,NA,NA,NA,NA,NA,NA,"2011-01-10T13:55:56",31
"PDS2014","OM","PDS2014-0027",212,"WEIGHT","Weight","1.2263","g","1.2263",1.2263,"g",NA,NA,"HEART",NA,NA,NA,NA,NA,NA,NA,NA,"2011-01-10T13:56:45",31
"PDS2014","OM","PDS2014-0027",213,"WEIGHT","Weight","8.0429","g","8.0429",8.0429,"g",NA,NA,"LIVER",NA,NA,NA,NA,NA,NA,NA,NA,"2011-01-10T13:49:19",31
"PDS2014","OM","PDS2014-0027",214,"WEIGHT","Weight","2.3969","g","2.3969",2.3969,"g",NA,NA,"KIDNEY",NA,NA,NA,NA,NA,NA,NA,NA,"2011-01-10T13:53:06",31
"PDS2014","OM","PDS2014-0027",215,"WEIGHT","Weight","3.0709","g","3.0709",3.0709,"g",NA,NA,"TESTIS",NA,NA,NA,NA,NA,NA,NA,NA,"2011-01-10T13:53:41",31
"PDS2014","OM","PDS2014-0027",216,"WEIGHT","Weight","0.013","g","0.013",0.013,"g",NA,NA,"GLAND, PITUITARY",NA,"FIXED",NA,NA,NA,NA,NA,NA,"2011-01-10T00:00:00",31
"PDS2014","OM","PDS2014-0027",217,"WEIGHT","Weight","0.0232","g","0.0232",0.0232,"g",NA,NA,"GLAND, THYROID",NA,"FIXED",NA,NA,NA,NA,NA,NA,"2011-01-10T00:00:00",31
"PDS2014","OM","PDS2014-0027",218,"WEIGHT","Weight","0.0682","g","0.0682",0.0682,"g",NA,NA,"GLAND, ADRENAL",NA,NA,NA,NA,NA,NA,NA,NA,"2011-01-10T13:52:34",31
"PDS2014","OM","PDS2014-0027",219,"WEIGHT","Weight","0.546","g","0.546",0.546,"g",NA,NA,"SPLEEN",NA,NA,NA,NA,NA,NA,NA,NA,"2011-01-10T13:51:36",31
"PDS2014","OM","PDS2014-0027",220,"WEIGHT","Weight","0.2669","g","0.2669",0.2669,"g",NA,NA,"THYMUS",NA,NA,NA,NA,NA,NA,NA,NA,"2011-01-10T13:56:15",31
"PDS2014","OM","PDS2014-0028",221,"WEIGHT","Weight","2.1506","g","2.1506",2.1506,"g",NA,NA,"BRAIN",NA,NA,NA,NA,NA,NA,NA,NA,"2011-01-10T10:40:04",31
"PDS2014","OM","PDS2014-0028",222,"WEIGHT","Weight","1.3587","g","1.3587",1.3587,"g",NA,NA,"HEART",NA,NA,NA,NA,NA,NA,NA,NA,"2011-01-10T10:40:44",31
"PDS2014","OM","PDS2014-0028",223,"WEIGHT","Weight","9.0496","g","9.0496",9.0496,"g",NA,NA,"LIVER",NA,NA,NA,NA,NA,NA,NA,NA,"2011-01-10T10:34:58",31
"PDS2014","OM","PDS2014-0028",224,"WEIGHT","Weight","2.5416","g","2.5416",2.5416,"g",NA,NA,"KIDNEY",NA,NA,NA,NA,NA,NA,NA,NA,"2011-01-10T10:37:03",31
"PDS2014","OM","PDS2014-0028",225,"WEIGHT","Weight","2.8943","g","2.8943",2.8943,"g",NA,NA,"TESTIS",NA,NA,NA,NA,NA,NA,NA,NA,"2011-01-10T10:37:44",31
"PDS2014","OM","PDS2014-0028",226,"WEIGHT","Weight","0.0127","g","0.0127",0.0127,"g",NA,NA,"GLAND, PITUITARY",NA,"FIXED",NA,NA,NA,NA,NA,NA,"2011-01-10T00:00:00",31
"PDS2014","OM","PDS2014-0028",227,"WEIGHT","Weight","0.0199","g","0.0199",0.0199,"g",NA,NA,"GLAND, THYROID",NA,"FIXED",NA,NA,NA,NA,NA,NA,"2011-01-10T00:00:00",31
"PDS2014","OM","PDS2014-0028",228,"WEIGHT","Weight","0.0643","g","0.0643",0.0643,"g",NA,NA,"GLAND, ADRENAL",NA,NA,NA,NA,NA,NA,NA,NA,"2011-01-10T10:36:40",31
"PDS2014","OM","PDS2014-0028",229,"WEIGHT","Weight","0.6156","g","0.6156",0.6156,"g",NA,NA,"SPLEEN",NA,NA,NA,NA,NA,NA,NA,NA,"2011-01-10T10:36:20",31
"PDS2014","OM","PDS2014-0028",230,"WEIGHT","Weight","0.3183","g","0.3183",0.3183,"g",NA,NA,"THYMUS",NA,NA,NA,NA,NA,NA,NA,NA,"2011-01-10T10:40:31",31
"PDS2014","OM","PDS2014-0029",231,"WEIGHT","Weight","2.1375","g","2.1375",2.1375,"g",NA,NA,"BRAIN",NA,NA,NA,NA,NA,NA,NA,NA,"2011-01-10T13:55:32",31
"PDS2014","OM","PDS2014-0029",232,"WEIGHT","Weight","1.4685","g","1.4685",1.4685,"g",NA,NA,"HEART",NA,NA,NA,NA,NA,NA,NA,NA,"2011-01-10T13:56:37",31
"PDS2014","OM","PDS2014-0029",233,"WEIGHT","Weight","10.2031","g","10.2031",10.2031,"g",NA,NA,"LIVER",NA,NA,NA,NA,NA,NA,NA,NA,"2011-01-10T13:50:27",31
"PDS2014","OM","PDS2014-0029",234,"WEIGHT","Weight","3.0387","g","3.0387",3.0387,"g",NA,NA,"KIDNEY",NA,NA,NA,NA,NA,NA,NA,NA,"2011-01-10T13:53:22",31
"PDS2014","OM","PDS2014-0029",235,"WEIGHT","Weight","3.3379","g","3.3379",3.3379,"g",NA,NA,"TESTIS",NA,NA,NA,NA,NA,NA,NA,NA,"2011-01-10T13:53:52",31
"PDS2014","OM","PDS2014-0029",236,"WEIGHT","Weight","0.0147","g","0.0147",0.0147,"g",NA,NA,"GLAND, PITUITARY",NA,"FIXED",NA,NA,NA,NA,NA,NA,"2011-01-10T00:00:00",31
"PDS2014","OM","PDS2014-0029",237,"WEIGHT","Weight","0.0281","g","0.0281",0.0281,"g",NA,NA,"GLAND, THYROID",NA,"FIXED",NA,NA,NA,NA,NA,NA,"2011-01-10T00:00:00",31
"PDS2014","OM","PDS2014-0029",238,"WEIGHT","Weight","0.0753","g","0.0753",0.0753,"g",NA,NA,"GLAND, ADRENAL",NA,NA,NA,NA,NA,NA,NA,NA,"2011-01-10T13:52:59",31
"PDS2014","OM","PDS2014-0029",239,"WEIGHT","Weight","0.7503","g","0.7503",0.7503,"g",NA,NA,"SPLEEN",NA,NA,NA,NA,NA,NA,NA,NA,"2011-01-10T13:50:47",31
"PDS2014","OM","PDS2014-0029",240,"WEIGHT","Weight","0.3216","g","0.3216",0.3216,"g",NA,NA,"THYMUS",NA,NA,NA,NA,NA,NA,NA,NA,"2011-01-10T13:56:20",31
"PDS2014","OM","PDS2014-0030",241,"WEIGHT","Weight",NA,NA,NA,NA,NA,"NOT DONE","perfusion","BRAIN",NA,NA,NA,NA,NA,NA,NA,NA,NA,NA
"PDS2014","OM","PDS2014-0030",242,"WEIGHT","Weight",NA,NA,NA,NA,NA,"NOT DONE","perfusion animal","HEART",NA,NA,NA,NA,NA,NA,NA,NA,NA,NA
"PDS2014","OM","PDS2014-0030",243,"WEIGHT","Weight",NA,NA,NA,NA,NA,"NOT DONE","perfusion animal","LIVER",NA,NA,NA,NA,NA,NA,NA,NA,NA,NA
"PDS2014","OM","PDS2014-0030",244,"WEIGHT","Weight",NA,NA,NA,NA,NA,"NOT DONE","perfusion animal","KIDNEY",NA,NA,NA,NA,NA,NA,NA,NA,NA,NA
"PDS2014","OM","PDS2014-0030",245,"WEIGHT","Weight",NA,NA,NA,NA,NA,"NOT DONE","perfusion animal","TESTIS",NA,NA,NA,NA,NA,NA,NA,NA,NA,NA
"PDS2014","OM","PDS2014-0030",246,"WEIGHT","Weight",NA,NA,NA,NA,NA,"NOT DONE","perfusion animal","GLAND, PITUITARY",NA,NA,NA,NA,NA,NA,NA,NA,NA,NA
"PDS2014","OM","PDS2014-0030",247,"WEIGHT","Weight",NA,NA,NA,NA,NA,"NOT DONE","perfusion animal","GLAND, THYROID",NA,NA,NA,NA,NA,NA,NA,NA,NA,NA
"PDS2014","OM","PDS2014-0030",248,"WEIGHT","Weight",NA,NA,NA,NA,NA,"NOT DONE","perfusion animal","GLAND, ADRENAL",NA,NA,NA,NA,NA,NA,NA,NA,NA,NA
"PDS2014","OM","PDS2014-0030",249,"WEIGHT","Weight",NA,NA,NA,NA,NA,"NOT DONE","perfusion animal","SPLEEN",NA,NA,NA,NA,NA,NA,NA,NA,NA,NA
"PDS2014","OM","PDS2014-0030",250,"WEIGHT","Weight",NA,NA,NA,NA,NA,"NOT DONE","perfusion","THYMUS",NA,NA,NA,NA,NA,NA,NA,NA,NA,NA
"PDS2014","OM","PDS2014-0041",251,"WEIGHT","Weight","2.1529","g","2.1529",2.1529,"g",NA,NA,"BRAIN",NA,NA,NA,NA,NA,NA,NA,NA,"2011-01-09T10:16:15",30
"PDS2014","OM","PDS2014-0041",252,"WEIGHT","Weight","1.2816","g","1.2816",1.2816,"g",NA,NA,"HEART",NA,NA,NA,NA,NA,NA,NA,NA,"2011-01-09T10:17:06",30
"PDS2014","OM","PDS2014-0041",253,"WEIGHT","Weight","10.011","g","10.011",10.011,"g",NA,NA,"LIVER",NA,NA,NA,NA,NA,NA,NA,NA,"2011-01-09T10:12:43",30
"PDS2014","OM","PDS2014-0041",254,"WEIGHT","Weight","2.9011","g","2.9011",2.9011,"g",NA,NA,"KIDNEY",NA,NA,NA,NA,NA,NA,NA,NA,"2011-01-09T10:15:04",30
"PDS2014","OM","PDS2014-0041",255,"WEIGHT","Weight","3.2599","g","3.2599",3.2599,"g",NA,NA,"TESTIS",NA,NA,NA,NA,NA,NA,NA,NA,"2011-01-09T10:15:42",30
"PDS2014","OM","PDS2014-0041",256,"WEIGHT","Weight","0.0133","g","0.0133",0.0133,"g",NA,NA,"GLAND, PITUITARY",NA,"FIXED",NA,NA,NA,NA,NA,NA,"2011-01-09T00:00:00",30
"PDS2014","OM","PDS2014-0041",257,"WEIGHT","Weight","0.0218","g","0.0218",0.0218,"g",NA,NA,"GLAND, THYROID",NA,"FIXED",NA,NA,NA,NA,NA,NA,"2011-01-09T00:00:00",30
"PDS2014","OM","PDS2014-0041",258,"WEIGHT","Weight","0.0814","g","0.0814",0.0814,"g",NA,NA,"GLAND, ADRENAL",NA,NA,NA,NA,NA,NA,NA,NA,"2011-01-09T10:14:24",30
"PDS2014","OM","PDS2014-0041",259,"WEIGHT","Weight","0.6547","g","0.6547",0.6547,"g",NA,NA,"SPLEEN",NA,NA,NA,NA,NA,NA,NA,NA,"2011-01-09T10:11:22",30
"PDS2014","OM","PDS2014-0041",260,"WEIGHT","Weight","0.4335","g","0.4335",0.4335,"g",NA,NA,"THYMUS",NA,NA,NA,NA,NA,NA,NA,NA,"2011-01-09T10:16:57",30
"PDS2014","OM","PDS2014-0042",261,"WEIGHT","Weight","2.179","g","2.179",2.179,"g",NA,NA,"BRAIN",NA,NA,NA,NA,NA,NA,NA,NA,"2011-01-09T11:59:05",30
"PDS2014","OM","PDS2014-0042",262,"WEIGHT","Weight","1.3173","g","1.3173",1.3173,"g",NA,NA,"HEART",NA,NA,NA,NA,NA,NA,NA,NA,"2011-01-09T12:00:19",30
"PDS2014","OM","PDS2014-0042",263,"WEIGHT","Weight","9.4977","g","9.4977",9.4977,"g",NA,NA,"LIVER",NA,NA,NA,NA,NA,NA,NA,NA,"2011-01-09T11:55:15",30
"PDS2014","OM","PDS2014-0042",264,"WEIGHT","Weight","2.5553","g","2.5553",2.5553,"g",NA,NA,"KIDNEY",NA,NA,NA,NA,NA,NA,NA,NA,"2011-01-09T11:57:26",30
"PDS2014","OM","PDS2014-0042",265,"WEIGHT","Weight","3.5633","g","3.5633",3.5633,"g",NA,NA,"TESTIS",NA,NA,NA,NA,NA,NA,NA,NA,"2011-01-09T11:57:42",30
"PDS2014","OM","PDS2014-0042",266,"WEIGHT","Weight","0.0156","g","0.0156",0.0156,"g",NA,NA,"GLAND, PITUITARY",NA,"FIXED",NA,NA,NA,NA,NA,NA,"2011-01-09T00:00:00",30
"PDS2014","OM","PDS2014-0042",267,"WEIGHT","Weight","0.0257","g","0.0257",0.0257,"g",NA,NA,"GLAND, THYROID",NA,"FIXED",NA,NA,NA,NA,NA,NA,"2011-01-09T00:00:00",30
"PDS2014","OM","PDS2014-0042",268,"WEIGHT","Weight","0.0854","g","0.0854",0.0854,"g",NA,NA,"GLAND, ADRENAL",NA,NA,NA,NA,NA,NA,NA,NA,"2011-01-09T11:57:04",30
"PDS2014","OM","PDS2014-0042",269,"WEIGHT","Weight","0.5988","g","0.5988",0.5988,"g",NA,NA,"SPLEEN",NA,NA,NA,NA,NA,NA,NA,NA,"2011-01-09T11:53:37",30
"PDS2014","OM","PDS2014-0042",270,"WEIGHT","Weight","0.2608","g","0.2608",0.2608,"g",NA,NA,"THYMUS",NA,NA,NA,NA,NA,NA,NA,NA,"2011-01-09T12:00:03",30
"PDS2014","OM","PDS2014-0043",271,"WEIGHT","Weight","2.0867","g","2.0867",2.0867,"g",NA,NA,"BRAIN",NA,NA,NA,NA,NA,NA,NA,NA,"2011-01-09T14:36:34",30
"PDS2014","OM","PDS2014-0043",272,"WEIGHT","Weight","1.2507","g","1.2507",1.2507,"g",NA,NA,"HEART",NA,NA,NA,NA,NA,NA,NA,NA,"2011-01-09T14:37:03",30
"PDS2014","OM","PDS2014-0043",273,"WEIGHT","Weight","9.0181","g","9.0181",9.0181,"g",NA,NA,"LIVER",NA,NA,NA,NA,NA,NA,NA,NA,"2011-01-09T14:31:02",30
"PDS2014","OM","PDS2014-0043",274,"WEIGHT","Weight","2.6108","g","2.6108",2.6108,"g",NA,NA,"KIDNEY",NA,NA,NA,NA,NA,NA,NA,NA,"2011-01-09T14:35:52",30
"PDS2014","OM","PDS2014-0043",275,"WEIGHT","Weight","3.4398","g","3.4398",3.4398,"g",NA,NA,"TESTIS",NA,NA,NA,NA,NA,NA,NA,NA,"2011-01-09T14:36:06",30
"PDS2014","OM","PDS2014-0043",276,"WEIGHT","Weight","0.0128","g","0.0128",0.0128,"g",NA,NA,"GLAND, PITUITARY",NA,"FIXED",NA,NA,NA,NA,NA,NA,"2011-01-09T00:00:00",30
"PDS2014","OM","PDS2014-0043",277,"WEIGHT","Weight","0.0215","g","0.0215",0.0215,"g",NA,NA,"GLAND, THYROID",NA,"FIXED",NA,NA,NA,NA,NA,NA,"2011-01-09T00:00:00",30
"PDS2014","OM","PDS2014-0043",278,"WEIGHT","Weight","0.0816","g","0.0816",0.0816,"g",NA,NA,"GLAND, ADRENAL",NA,NA,NA,NA,NA,NA,NA,NA,"2011-01-09T14:33:05",30
"PDS2014","OM","PDS2014-0043",279,"WEIGHT","Weight","0.599","g","0.599",0.599,"g",NA,NA,"SPLEEN",NA,NA,NA,NA,NA,NA,NA,NA,"2011-01-09T14:29:30",30
"PDS2014","OM","PDS2014-0043",280,"WEIGHT","Weight","0.32","g","0.32",0.32,"g",NA,NA,"THYMUS",NA,NA,NA,NA,NA,NA,NA,NA,"2011-01-09T14:36:54",30
"PDS2014","OM","PDS2014-0044",281,"WEIGHT","Weight","2.0962","g","2.0962",2.0962,"g",NA,NA,"BRAIN",NA,NA,NA,NA,NA,NA,NA,NA,"2011-01-09T11:40:19",30
"PDS2014","OM","PDS2014-0044",282,"WEIGHT","Weight","1.5747","g","1.5747",1.5747,"g",NA,NA,"HEART",NA,NA,NA,NA,NA,NA,NA,NA,"2011-01-09T11:41:46",30
"PDS2014","OM","PDS2014-0044",283,"WEIGHT","Weight","10.6051","g","10.6051",10.6051,"g",NA,NA,"LIVER",NA,NA,NA,NA,NA,NA,NA,NA,"2011-01-09T11:33:59",30
"PDS2014","OM","PDS2014-0044",284,"WEIGHT","Weight","3.1363","g","3.1363",3.1363,"g",NA,NA,"KIDNEY",NA,NA,NA,NA,NA,NA,NA,NA,"2011-01-09T11:37:39",30
"PDS2014","OM","PDS2014-0044",285,"WEIGHT","Weight","3.4861","g","3.4861",3.4861,"g",NA,NA,"TESTIS",NA,NA,NA,NA,NA,NA,NA,NA,"2011-01-09T11:37:56",30
"PDS2014","OM","PDS2014-0044",286,"WEIGHT","Weight","0.016","g","0.016",0.016,"g",NA,NA,"GLAND, PITUITARY",NA,"FIXED",NA,NA,NA,NA,NA,NA,"2011-01-09T00:00:00",30
"PDS2014","OM","PDS2014-0044",287,"WEIGHT","Weight","0.0324","g","0.0324",0.0324,"g",NA,NA,"GLAND, THYROID",NA,"FIXED",NA,NA,NA,NA,NA,NA,"2011-01-09T00:00:00",30
"PDS2014","OM","PDS2014-0044",288,"WEIGHT","Weight","0.0737","g","0.0737",0.0737,"g",NA,NA,"GLAND, ADRENAL",NA,NA,NA,NA,NA,NA,NA,NA,"2011-01-09T11:37:18",30
"PDS2014","OM","PDS2014-0044",289,"WEIGHT","Weight","0.6658","g","0.6658",0.6658,"g",NA,NA,"SPLEEN",NA,NA,NA,NA,NA,NA,NA,NA,"2011-01-09T11:32:19",30
"PDS2014","OM","PDS2014-0044",290,"WEIGHT","Weight","0.4656","g","0.4656",0.4656,"g",NA,NA,"THYMUS",NA,NA,NA,NA,NA,NA,NA,NA,"2011-01-09T11:41:33",30
"PDS2014","OM","PDS2014-0045",291,"WEIGHT","Weight","2.1367","g","2.1367",2.1367,"g",NA,NA,"BRAIN",NA,NA,NA,NA,NA,NA,NA,NA,"2011-01-09T14:53:07",30
"PDS2014","OM","PDS2014-0045",292,"WEIGHT","Weight","1.2874","g","1.2874",1.2874,"g",NA,NA,"HEART",NA,NA,NA,NA,NA,NA,NA,NA,"2011-01-09T14:54:42",30
"PDS2014","OM","PDS2014-0045",293,"WEIGHT","Weight","9.0051","g","9.0051",9.0051,"g",NA,NA,"LIVER",NA,NA,NA,NA,NA,NA,NA,NA,"2011-01-09T14:47:26",30
"PDS2014","OM","PDS2014-0045",294,"WEIGHT","Weight","2.7013","g","2.7013",2.7013,"g",NA,NA,"KIDNEY",NA,NA,NA,NA,NA,NA,NA,NA,"2011-01-09T14:50:16",30
"PDS2014","OM","PDS2014-0045",295,"WEIGHT","Weight","3.9838","g","3.9838",3.9838,"g",NA,NA,"TESTIS",NA,NA,NA,NA,NA,NA,NA,NA,"2011-01-09T14:50:38",30
"PDS2014","OM","PDS2014-0045",296,"WEIGHT","Weight","0.0158","g","0.0158",0.0158,"g",NA,NA,"GLAND, PITUITARY",NA,"FIXED",NA,NA,NA,NA,NA,NA,"2011-01-09T00:00:00",30
"PDS2014","OM","PDS2014-0045",297,"WEIGHT","Weight","0.0301","g","0.0301",0.0301,"g",NA,NA,"GLAND, THYROID",NA,"FIXED",NA,NA,NA,NA,NA,NA,"2011-01-09T00:00:00",30
"PDS2014","OM","PDS2014-0045",298,"WEIGHT","Weight","0.0561","g","0.0561",0.0561,"g",NA,NA,"GLAND, ADRENAL",NA,NA,NA,NA,NA,NA,NA,NA,"2011-01-09T14:50:00",30
"PDS2014","OM","PDS2014-0045",299,"WEIGHT","Weight","0.5987","g","0.5987",0.5987,"g",NA,NA,"SPLEEN",NA,NA,NA,NA,NA,NA,NA,NA,"2011-01-09T14:45:52",30
"PDS2014","OM","PDS2014-0045",300,"WEIGHT","Weight","0.2082","g","0.2082",0.2082,"g",NA,NA,"THYMUS",NA,NA,NA,NA,NA,NA,NA,NA,"2011-01-09T14:54:25",30
"PDS2014","OM","PDS2014-0046",301,"WEIGHT","Weight","2.2067","g","2.2067",2.2067,"g",NA,NA,"BRAIN",NA,NA,NA,NA,NA,NA,NA,NA,"2011-01-10T10:51:07",31
"PDS2014","OM","PDS2014-0046",302,"WEIGHT","Weight","1.2524","g","1.2524",1.2524,"g",NA,NA,"HEART",NA,NA,NA,NA,NA,NA,NA,NA,"2011-01-10T10:51:52",31
"PDS2014","OM","PDS2014-0046",303,"WEIGHT","Weight","10.9057","g","10.9057",10.9057,"g",NA,NA,"LIVER",NA,NA,NA,NA,NA,NA,NA,NA,"2011-01-10T10:45:40",31
"PDS2014","OM","PDS2014-0046",304,"WEIGHT","Weight","2.9546","g","2.9546",2.9546,"g",NA,NA,"KIDNEY",NA,NA,NA,NA,NA,NA,NA,NA,"2011-01-10T10:48:52",31
"PDS2014","OM","PDS2014-0046",305,"WEIGHT","Weight","3.5219","g","3.5219",3.5219,"g",NA,NA,"TESTIS",NA,NA,NA,NA,NA,NA,NA,NA,"2011-01-10T10:49:19",31
"PDS2014","OM","PDS2014-0046",306,"WEIGHT","Weight","0.0131","g","0.0131",0.0131,"g",NA,NA,"GLAND, PITUITARY",NA,"FIXED",NA,NA,NA,NA,NA,NA,"2011-01-10T00:00:00",31
"PDS2014","OM","PDS2014-0046",307,"WEIGHT","Weight","0.0259","g","0.0259",0.0259,"g",NA,NA,"GLAND, THYROID",NA,"FIXED",NA,NA,NA,NA,NA,NA,"2011-01-10T00:00:00",31
"PDS2014","OM","PDS2014-0046",308,"WEIGHT","Weight","0.0676","g","0.0676",0.0676,"g",NA,NA,"GLAND, ADRENAL",NA,NA,NA,NA,NA,NA,NA,NA,"2011-01-10T10:47:59",31
"PDS2014","OM","PDS2014-0046",309,"WEIGHT","Weight","0.6535","g","0.6535",0.6535,"g",NA,NA,"SPLEEN",NA,NA,NA,NA,NA,NA,NA,NA,"2011-01-10T10:47:33",31
"PDS2014","OM","PDS2014-0046",310,"WEIGHT","Weight","0.3673","g","0.3673",0.3673,"g",NA,NA,"THYMUS",NA,NA,NA,NA,NA,NA,NA,NA,"2011-01-10T10:51:32",31
"PDS2014","OM","PDS2014-0047",311,"WEIGHT","Weight","2.2103","g","2.2103",2.2103,"g",NA,NA,"BRAIN",NA,NA,NA,NA,NA,NA,NA,NA,"2011-01-10T14:05:41",31
"PDS2014","OM","PDS2014-0047",312,"WEIGHT","Weight","1.6686","g","1.6686",1.6686,"g",NA,NA,"HEART",NA,NA,NA,NA,NA,NA,NA,NA,"2011-01-10T14:06:27",31
"PDS2014","OM","PDS2014-0047",313,"WEIGHT","Weight","11.569","g","11.569",11.569,"g",NA,NA,"LIVER",NA,NA,NA,NA,NA,NA,NA,NA,"2011-01-10T14:00:53",31
"PDS2014","OM","PDS2014-0047",314,"WEIGHT","Weight","3.5776","g","3.5776",3.5776,"g",NA,NA,"KIDNEY",NA,NA,NA,NA,NA,NA,NA,NA,"2011-01-10T14:04:18",31
"PDS2014","OM","PDS2014-0047",315,"WEIGHT","Weight","3.5121","g","3.5121",3.5121,"g",NA,NA,"TESTIS",NA,NA,NA,NA,NA,NA,NA,NA,"2011-01-10T14:04:38",31
"PDS2014","OM","PDS2014-0047",316,"WEIGHT","Weight","0.015","g","0.015",0.015,"g",NA,NA,"GLAND, PITUITARY",NA,"FIXED",NA,NA,NA,NA,NA,NA,"2011-01-10T00:00:00",31
"PDS2014","OM","PDS2014-0047",317,"WEIGHT","Weight","0.0228","g","0.0228",0.0228,"g",NA,NA,"GLAND, THYROID",NA,"FIXED",NA,NA,NA,NA,NA,NA,"2011-01-10T00:00:00",31
"PDS2014","OM","PDS2014-0047",318,"WEIGHT","Weight","0.0737","g","0.0737",0.0737,"g",NA,NA,"GLAND, ADRENAL",NA,NA,NA,NA,NA,NA,NA,NA,"2011-01-10T14:04:10",31
"PDS2014","OM","PDS2014-0047",319,"WEIGHT","Weight","0.8468","g","0.8468",0.8468,"g",NA,NA,"SPLEEN",NA,NA,NA,NA,NA,NA,NA,NA,"2011-01-10T14:03:07",31
"PDS2014","OM","PDS2014-0047",320,"WEIGHT","Weight","0.4901","g","0.4901",0.4901,"g",NA,NA,"THYMUS",NA,NA,NA,NA,NA,NA,NA,NA,"2011-01-10T14:06:13",31
"PDS2014","OM","PDS2014-0048",321,"WEIGHT","Weight","2.0296","g","2.0296",2.0296,"g",NA,NA,"BRAIN",NA,NA,NA,NA,NA,NA,NA,NA,"2011-01-10T10:52:30",31
"PDS2014","OM","PDS2014-0048",322,"WEIGHT","Weight","1.2874","g","1.2874",1.2874,"g",NA,NA,"HEART",NA,NA,NA,NA,NA,NA,NA,NA,"2011-01-10T10:53:26",31
"PDS2014","OM","PDS2014-0048",323,"WEIGHT","Weight","9.2312","g","9.2312",9.2312,"g",NA,NA,"LIVER",NA,NA,NA,NA,NA,NA,NA,NA,"2011-01-10T10:47:46",31
"PDS2014","OM","PDS2014-0048",324,"WEIGHT","Weight","2.5893","g","2.5893",2.5893,"g",NA,NA,"KIDNEY",NA,NA,NA,NA,NA,NA,NA,NA,"2011-01-10T10:50:06",31
"PDS2014","OM","PDS2014-0048",325,"WEIGHT","Weight","3.2161","g","3.2161",3.2161,"g",NA,NA,"TESTIS",NA,NA,NA,NA,NA,NA,NA,NA,"2011-01-10T10:51:06",31
"PDS2014","OM","PDS2014-0048",326,"WEIGHT","Weight","0.0137","g","0.0137",0.0137,"g",NA,NA,"GLAND, PITUITARY",NA,"FIXED",NA,NA,NA,NA,NA,NA,"2011-01-10T00:00:00",31
"PDS2014","OM","PDS2014-0048",327,"WEIGHT","Weight","0.0229","g","0.0229",0.0229,"g",NA,NA,"GLAND, THYROID",NA,"FIXED",NA,NA,NA,NA,NA,NA,"2011-01-10T00:00:00",31
"PDS2014","OM","PDS2014-0048",328,"WEIGHT","Weight","0.0696","g","0.0696",0.0696,"g",NA,NA,"GLAND, ADRENAL",NA,NA,NA,NA,NA,NA,NA,NA,"2011-01-10T10:49:40",31
"PDS2014","OM","PDS2014-0048",329,"WEIGHT","Weight","0.5366","g","0.5366",0.5366,"g",NA,NA,"SPLEEN",NA,NA,NA,NA,NA,NA,NA,NA,"2011-01-10T10:49:14",31
"PDS2014","OM","PDS2014-0048",330,"WEIGHT","Weight","0.3476","g","0.3476",0.3476,"g",NA,NA,"THYMUS",NA,NA,NA,NA,NA,NA,NA,NA,"2011-01-10T10:53:12",31
"PDS2014","OM","PDS2014-0049",331,"WEIGHT","Weight","2.1057","g","2.1057",2.1057,"g",NA,NA,"BRAIN",NA,NA,NA,NA,NA,NA,NA,NA,"2011-01-10T14:05:32",31
"PDS2014","OM","PDS2014-0049",332,"WEIGHT","Weight","1.4644","g","1.4644",1.4644,"g",NA,NA,"HEART",NA,NA,NA,NA,NA,NA,NA,NA,"2011-01-10T14:06:29",31
"PDS2014","OM","PDS2014-0049",333,"WEIGHT","Weight","9.0317","g","9.0317",9.0317,"g",NA,NA,"LIVER",NA,NA,NA,NA,NA,NA,NA,NA,"2011-01-10T14:01:19",31
"PDS2014","OM","PDS2014-0049",334,"WEIGHT","Weight","2.678","g","2.678",2.678,"g",NA,NA,"KIDNEY",NA,NA,NA,NA,NA,NA,NA,NA,"2011-01-10T14:03:39",31
"PDS2014","OM","PDS2014-0049",335,"WEIGHT","Weight","3.2914","g","3.2914",3.2914,"g",NA,NA,"TESTIS",NA,NA,NA,NA,NA,NA,NA,NA,"2011-01-10T14:04:46",31
"PDS2014","OM","PDS2014-0049",336,"WEIGHT","Weight","0.0135","g","0.0135",0.0135,"g",NA,NA,"GLAND, PITUITARY",NA,"FIXED",NA,NA,NA,NA,NA,NA,"2011-01-10T00:00:00",31
"PDS2014","OM","PDS2014-0049",337,"WEIGHT","Weight","0.0221","g","0.0221",0.0221,"g",NA,NA,"GLAND, THYROID",NA,"FIXED",NA,NA,NA,NA,NA,NA,"2011-01-10T00:00:00",31
"PDS2014","OM","PDS2014-0049",338,"WEIGHT","Weight","0.075","g","0.075",0.075,"g",NA,NA,"GLAND, ADRENAL",NA,NA,NA,NA,NA,NA,NA,NA,"2011-01-10T14:03:17",31
"PDS2014","OM","PDS2014-0049",339,"WEIGHT","Weight","0.5458","g","0.5458",0.5458,"g",NA,NA,"SPLEEN",NA,NA,NA,NA,NA,NA,NA,NA,"2011-01-10T14:02:20",31
"PDS2014","OM","PDS2014-0049",340,"WEIGHT","Weight","0.4388","g","0.4388",0.4388,"g",NA,NA,"THYMUS",NA,NA,NA,NA,NA,NA,NA,NA,"2011-01-10T14:06:09",31
"PDS2014","OM","PDS2014-0050",341,"WEIGHT","Weight",NA,NA,NA,NA,NA,"NOT DONE","perfusion animal","BRAIN",NA,NA,NA,NA,NA,NA,NA,NA,NA,NA
"PDS2014","OM","PDS2014-0050",342,"WEIGHT","Weight",NA,NA,NA,NA,NA,"NOT DONE","perfusion animal","HEART",NA,NA,NA,NA,NA,NA,NA,NA,NA,NA
"PDS2014","OM","PDS2014-0050",343,"WEIGHT","Weight",NA,NA,NA,NA,NA,"NOT DONE","perfusion animal","LIVER",NA,NA,NA,NA,NA,NA,NA,NA,NA,NA
"PDS2014","OM","PDS2014-0050",344,"WEIGHT","Weight",NA,NA,NA,NA,NA,"NOT DONE","perfusion animal","KIDNEY",NA,NA,NA,NA,NA,NA,NA,NA,NA,NA
"PDS2014","OM","PDS2014-0050",345,"WEIGHT","Weight",NA,NA,NA,NA,NA,"NOT DONE","perfusion animal","TESTIS",NA,NA,NA,NA,NA,NA,NA,NA,NA,NA
"PDS2014","OM","PDS2014-0050",346,"WEIGHT","Weight",NA,NA,NA,NA,NA,"NOT DONE","perfusion animal","GLAND, PITUITARY",NA,NA,NA,NA,NA,NA,NA,NA,NA,NA
"PDS2014","OM","PDS2014-0050",347,"WEIGHT","Weight",NA,NA,NA,NA,NA,"NOT DONE","perfusion animal","GLAND, THYROID",NA,NA,NA,NA,NA,NA,NA,NA,NA,NA
"PDS2014","OM","PDS2014-0050",348,"WEIGHT","Weight",NA,NA,NA,NA,NA,"NOT DONE","perfusion animal","GLAND, ADRENAL",NA,NA,NA,NA,NA,NA,NA,NA,NA,NA
"PDS2014","OM","PDS2014-0050",349,"WEIGHT","Weight",NA,NA,NA,NA,NA,"NOT DONE","perfusion animal","SPLEEN",NA,NA,NA,NA,NA,NA,NA,NA,NA,NA
"PDS2014","OM","PDS2014-0050",350,"WEIGHT","Weight",NA,NA,NA,NA,NA,"NOT DONE","perfusion animal","THYMUS",NA,NA,NA,NA,NA,NA,NA,NA,NA,NA
"PDS2014","OM","PDS2014-0061",351,"WEIGHT","Weight","2.1457","g","2.1457",2.1457,"g",NA,NA,"BRAIN",NA,NA,NA,NA,NA,NA,NA,NA,"2011-01-09T10:34:59",30
"PDS2014","OM","PDS2014-0061",352,"WEIGHT","Weight","1.4322","g","1.4322",1.4322,"g",NA,NA,"HEART",NA,NA,NA,NA,NA,NA,NA,NA,"2011-01-09T10:36:19",30
"PDS2014","OM","PDS2014-0061",353,"WEIGHT","Weight","10.7023","g","10.7023",10.7023,"g",NA,NA,"LIVER",NA,NA,NA,NA,NA,NA,NA,NA,"2011-01-09T10:30:44",30
"PDS2014","OM","PDS2014-0061",354,"WEIGHT","Weight","3.2674","g","3.2674",3.2674,"g",NA,NA,"KIDNEY",NA,NA,NA,NA,NA,NA,NA,NA,"2011-01-09T10:33:39",30
"PDS2014","OM","PDS2014-0061",355,"WEIGHT","Weight","3.6771","g","3.6771",3.6771,"g",NA,NA,"TESTIS",NA,NA,NA,NA,NA,NA,NA,NA,"2011-01-09T10:33:52",30
"PDS2014","OM","PDS2014-0061",356,"WEIGHT","Weight","0.0192","g","0.0192",0.0192,"g",NA,NA,"GLAND, PITUITARY",NA,"FIXED",NA,NA,NA,NA,NA,NA,"2011-01-09T00:00:00",30
"PDS2014","OM","PDS2014-0061",357,"WEIGHT","Weight","0.0272","g","0.0272",0.0272,"g",NA,NA,"GLAND, THYROID",NA,"FIXED",NA,NA,NA,NA,NA,NA,"2011-01-09T00:00:00",30
"PDS2014","OM","PDS2014-0061",358,"WEIGHT","Weight","0.0798","g","0.0798",0.0798,"g",NA,NA,"GLAND, ADRENAL",NA,NA,NA,NA,NA,NA,NA,NA,"2011-01-09T10:32:47",30
"PDS2014","OM","PDS2014-0061",359,"WEIGHT","Weight","0.6594","g","0.6594",0.6594,"g",NA,NA,"SPLEEN",NA,NA,NA,NA,NA,NA,NA,NA,"2011-01-09T10:29:29",30
"PDS2014","OM","PDS2014-0061",360,"WEIGHT","Weight","0.4694","g","0.4694",0.4694,"g",NA,NA,"THYMUS",NA,NA,NA,NA,NA,NA,NA,NA,"2011-01-09T10:35:55",30
"PDS2014","OM","PDS2014-0062",361,"WEIGHT","Weight","2.1795","g","2.1795",2.1795,"g",NA,NA,"BRAIN",NA,NA,NA,NA,NA,NA,NA,NA,"2011-01-09T13:08:20",30
"PDS2014","OM","PDS2014-0062",362,"WEIGHT","Weight","1.2218","g","1.2218",1.2218,"g",NA,NA,"HEART",NA,NA,NA,NA,NA,NA,NA,NA,"2011-01-09T13:09:53",30
"PDS2014","OM","PDS2014-0062",363,"WEIGHT","Weight","9.8983","g","9.8983",9.8983,"g",NA,NA,"LIVER",NA,NA,NA,NA,NA,NA,NA,NA,"2011-01-09T13:04:37",30
"PDS2014","OM","PDS2014-0062",364,"WEIGHT","Weight","3.0104","g","3.0104",3.0104,"g",NA,NA,"KIDNEY",NA,NA,NA,NA,NA,NA,NA,NA,"2011-01-09T13:06:47",30
"PDS2014","OM","PDS2014-0062",365,"WEIGHT","Weight","3.8882","g","3.8882",3.8882,"g",NA,NA,"TESTIS",NA,NA,NA,NA,NA,NA,NA,NA,"2011-01-09T13:07:02",30
"PDS2014","OM","PDS2014-0062",366,"WEIGHT","Weight","0.0155","g","0.0155",0.0155,"g",NA,NA,"GLAND, PITUITARY",NA,"FIXED",NA,NA,NA,NA,NA,NA,"2011-01-09T00:00:00",30
"PDS2014","OM","PDS2014-0062",367,"WEIGHT","Weight","0.0298","g","0.0298",0.0298,"g",NA,NA,"GLAND, THYROID",NA,"FIXED",NA,NA,NA,NA,NA,NA,"2011-01-09T00:00:00",30
"PDS2014","OM","PDS2014-0062",368,"WEIGHT","Weight","0.0831","g","0.0831",0.0831,"g",NA,NA,"GLAND, ADRENAL",NA,NA,NA,NA,NA,NA,NA,NA,"2011-01-09T13:06:36",30
"PDS2014","OM","PDS2014-0062",369,"WEIGHT","Weight","0.6833","g","0.6833",0.6833,"g",NA,NA,"SPLEEN",NA,NA,NA,NA,NA,NA,NA,NA,"2011-01-09T13:03:20",30
"PDS2014","OM","PDS2014-0062",370,"WEIGHT","Weight","0.4155","g","0.4155",0.4155,"g",NA,NA,"THYMUS",NA,NA,NA,NA,NA,NA,NA,NA,"2011-01-09T13:09:32",30
"PDS2014","OM","PDS2014-0063",371,"WEIGHT","Weight","2.0942","g","2.0942",2.0942,"g",NA,NA,"BRAIN",NA,NA,NA,NA,NA,NA,NA,NA,"2011-01-09T14:46:26",30
"PDS2014","OM","PDS2014-0063",372,"WEIGHT","Weight","1.3791","g","1.3791",1.3791,"g",NA,NA,"HEART",NA,NA,NA,NA,NA,NA,NA,NA,"2011-01-09T14:47:29",30
"PDS2014","OM","PDS2014-0063",373,"WEIGHT","Weight","10.6348","g","10.6348",10.6348,"g",NA,NA,"LIVER",NA,NA,NA,NA,NA,NA,NA,NA,"2011-01-09T14:42:42",30
"PDS2014","OM","PDS2014-0063",374,"WEIGHT","Weight","3.1464","g","3.1464",3.1464,"g",NA,NA,"KIDNEY",NA,NA,NA,NA,NA,NA,NA,NA,"2011-01-09T14:44:58",30
"PDS2014","OM","PDS2014-0063",375,"WEIGHT","Weight","3.4472","g","3.4472",3.4472,"g",NA,NA,"TESTIS",NA,NA,NA,NA,NA,NA,NA,NA,"2011-01-09T14:45:14",30
"PDS2014","OM","PDS2014-0063",376,"WEIGHT","Weight","0.0156","g","0.0156",0.0156,"g",NA,NA,"GLAND, PITUITARY",NA,"FIXED",NA,NA,NA,NA,NA,NA,"2011-01-09T00:00:00",30
"PDS2014","OM","PDS2014-0063",377,"WEIGHT","Weight","0.023","g","0.023",0.023,"g",NA,NA,"GLAND, THYROID",NA,"FIXED",NA,NA,NA,NA,NA,NA,"2011-01-09T00:00:00",30
"PDS2014","OM","PDS2014-0063",378,"WEIGHT","Weight","0.0739","g","0.0739",0.0739,"g",NA,NA,"GLAND, ADRENAL",NA,NA,NA,NA,NA,NA,NA,NA,"2011-01-09T14:44:37",30
"PDS2014","OM","PDS2014-0063",379,"WEIGHT","Weight","0.6749","g","0.6749",0.6749,"g",NA,NA,"SPLEEN",NA,NA,NA,NA,NA,NA,NA,NA,"2011-01-09T14:41:37",30
"PDS2014","OM","PDS2014-0063",380,"WEIGHT","Weight","0.3294","g","0.3294",0.3294,"g",NA,NA,"THYMUS",NA,NA,NA,NA,NA,NA,NA,NA,"2011-01-09T14:47:13",30
"PDS2014","OM","PDS2014-0064",381,"WEIGHT","Weight","2.1399","g","2.1399",2.1399,"g",NA,NA,"BRAIN",NA,NA,NA,NA,NA,NA,NA,NA,"2011-01-09T11:58:32",30
"PDS2014","OM","PDS2014-0064",382,"WEIGHT","Weight","1.3596","g","1.3596",1.3596,"g",NA,NA,"HEART",NA,NA,NA,NA,NA,NA,NA,NA,"2011-01-09T11:59:49",30
"PDS2014","OM","PDS2014-0064",383,"WEIGHT","Weight","10.6073","g","10.6073",10.6073,"g",NA,NA,"LIVER",NA,NA,NA,NA,NA,NA,NA,NA,"2011-01-09T11:50:55",30
"PDS2014","OM","PDS2014-0064",384,"WEIGHT","Weight","2.717","g","2.717",2.717,"g",NA,NA,"KIDNEY",NA,NA,NA,NA,NA,NA,NA,NA,"2011-01-09T11:54:46",30
"PDS2014","OM","PDS2014-0064",385,"WEIGHT","Weight","3.5592","g","3.5592",3.5592,"g",NA,NA,"TESTIS",NA,NA,NA,NA,NA,NA,NA,NA,"2011-01-09T11:55:04",30
"PDS2014","OM","PDS2014-0064",386,"WEIGHT","Weight","0.0172","g","0.0172",0.0172,"g",NA,NA,"GLAND, PITUITARY",NA,"FIXED",NA,NA,NA,NA,NA,NA,"2011-01-09T00:00:00",30
"PDS2014","OM","PDS2014-0064",387,"WEIGHT","Weight","0.0229","g","0.0229",0.0229,"g",NA,NA,"GLAND, THYROID",NA,"FIXED",NA,NA,NA,NA,NA,NA,"2011-01-09T00:00:00",30
"PDS2014","OM","PDS2014-0064",388,"WEIGHT","Weight","0.0699","g","0.0699",0.0699,"g",NA,NA,"GLAND, ADRENAL",NA,NA,NA,NA,NA,NA,NA,NA,"2011-01-09T11:54:19",30
"PDS2014","OM","PDS2014-0064",389,"WEIGHT","Weight","0.5705","g","0.5705",0.5705,"g",NA,NA,"SPLEEN",NA,NA,NA,NA,NA,NA,NA,NA,"2011-01-09T11:52:58",30
"PDS2014","OM","PDS2014-0064",390,"WEIGHT","Weight","0.4141","g","0.4141",0.4141,"g",NA,NA,"THYMUS",NA,NA,NA,NA,NA,NA,NA,NA,"2011-01-09T11:59:37",30
"PDS2014","OM","PDS2014-0065",391,"WEIGHT","Weight","2.0125","g","2.0125",2.0125,"g",NA,NA,"BRAIN",NA,NA,NA,NA,NA,NA,NA,NA,"2011-01-09T15:07:54",30
"PDS2014","OM","PDS2014-0065",392,"WEIGHT","Weight","1.189","g","1.189",1.189,"g",NA,NA,"HEART",NA,NA,NA,NA,NA,NA,NA,NA,"2011-01-09T15:09:19",30
"PDS2014","OM","PDS2014-0065",393,"WEIGHT","Weight","9.5445","g","9.5445",9.5445,"g",NA,NA,"LIVER",NA,NA,NA,NA,NA,NA,NA,NA,"2011-01-09T15:02:27",30
"PDS2014","OM","PDS2014-0065",394,"WEIGHT","Weight","2.4584","g","2.4584",2.4584,"g",NA,NA,"KIDNEY",NA,NA,NA,NA,NA,NA,NA,NA,"2011-01-09T15:05:06",30
"PDS2014","OM","PDS2014-0065",395,"WEIGHT","Weight","3.6944","g","3.6944",3.6944,"g",NA,NA,"TESTIS",NA,NA,NA,NA,NA,NA,NA,NA,"2011-01-09T15:05:49",30
"PDS2014","OM","PDS2014-0065",396,"WEIGHT","Weight","0.012","g","0.012",0.012,"g",NA,NA,"GLAND, PITUITARY",NA,"FIXED",NA,NA,NA,NA,NA,NA,"2011-01-09T00:00:00",30
"PDS2014","OM","PDS2014-0065",397,"WEIGHT","Weight","0.0255","g","0.0255",0.0255,"g",NA,NA,"GLAND, THYROID",NA,"FIXED",NA,NA,NA,NA,NA,NA,"2011-01-09T00:00:00",30
"PDS2014","OM","PDS2014-0065",398,"WEIGHT","Weight","0.0637","g","0.0637",0.0637,"g",NA,NA,"GLAND, ADRENAL",NA,NA,NA,NA,NA,NA,NA,NA,"2011-01-09T15:04:45",30
"PDS2014","OM","PDS2014-0065",399,"WEIGHT","Weight","0.5487","g","0.5487",0.5487,"g",NA,NA,"SPLEEN",NA,NA,NA,NA,NA,NA,NA,NA,"2011-01-09T15:00:45",30
"PDS2014","OM","PDS2014-0065",400,"WEIGHT","Weight","0.2822","g","0.2822",0.2822,"g",NA,NA,"THYMUS",NA,NA,NA,NA,NA,NA,NA,NA,"2011-01-09T15:09:11",30
"PDS2014","OM","PDS2014-0066",401,"WEIGHT","Weight","2.1685","g","2.1685",2.1685,"g",NA,NA,"BRAIN",NA,NA,NA,NA,NA,NA,NA,NA,"2011-01-10T11:04:36",31
"PDS2014","OM","PDS2014-0066",402,"WEIGHT","Weight","1.0878","g","1.0878",1.0878,"g",NA,NA,"HEART",NA,NA,NA,NA,NA,NA,NA,NA,"2011-01-10T11:05:07",31
"PDS2014","OM","PDS2014-0066",403,"WEIGHT","Weight","10.4056","g","10.4056",10.4056,"g",NA,NA,"LIVER",NA,NA,NA,NA,NA,NA,NA,NA,"2011-01-10T10:58:56",31
"PDS2014","OM","PDS2014-0066",404,"WEIGHT","Weight","2.7688","g","2.7688",2.7688,"g",NA,NA,"KIDNEY",NA,NA,NA,NA,NA,NA,NA,NA,"2011-01-10T11:02:37",31
"PDS2014","OM","PDS2014-0066",405,"WEIGHT","Weight","3.2232","g","3.2232",3.2232,"g",NA,NA,"TESTIS",NA,NA,NA,NA,NA,NA,NA,NA,"2011-01-10T11:04:05",31
"PDS2014","OM","PDS2014-0066",406,"WEIGHT","Weight","0.0152","g","0.0152",0.0152,"g",NA,NA,"GLAND, PITUITARY",NA,"FIXED",NA,NA,NA,NA,NA,NA,"2011-01-10T00:00:00",31
"PDS2014","OM","PDS2014-0066",407,"WEIGHT","Weight","0.0219","g","0.0219",0.0219,"g",NA,NA,"GLAND, THYROID",NA,"FIXED",NA,NA,NA,NA,NA,NA,"2011-01-10T00:00:00",31
"PDS2014","OM","PDS2014-0066",408,"WEIGHT","Weight","0.0701","g","0.0701",0.0701,"g",NA,NA,"GLAND, ADRENAL",NA,NA,NA,NA,NA,NA,NA,NA,"2011-01-10T11:01:42",31
"PDS2014","OM","PDS2014-0066",409,"WEIGHT","Weight","0.5203","g","0.5203",0.5203,"g",NA,NA,"SPLEEN",NA,NA,NA,NA,NA,NA,NA,NA,"2011-01-10T10:59:41",31
"PDS2014","OM","PDS2014-0066",410,"WEIGHT","Weight","0.2706","g","0.2706",0.2706,"g",NA,NA,"THYMUS",NA,NA,NA,NA,NA,NA,NA,NA,"2011-01-10T11:04:57",31
"PDS2014","OM","PDS2014-0067",411,"WEIGHT","Weight","2.1763","g","2.1763",2.1763,"g",NA,NA,"BRAIN",NA,NA,NA,NA,NA,NA,NA,NA,"2011-01-10T14:19:38",31
"PDS2014","OM","PDS2014-0067",412,"WEIGHT","Weight","1.3473","g","1.3473",1.3473,"g",NA,NA,"HEART",NA,NA,NA,NA,NA,NA,NA,NA,"2011-01-10T14:20:23",31
"PDS2014","OM","PDS2014-0067",413,"WEIGHT","Weight","9.3444","g","9.3444",9.3444,"g",NA,NA,"LIVER",NA,NA,NA,NA,NA,NA,NA,NA,"2011-01-10T14:12:00",31
"PDS2014","OM","PDS2014-0067",414,"WEIGHT","Weight","2.9747","g","2.9747",2.9747,"g",NA,NA,"KIDNEY",NA,NA,NA,NA,NA,NA,NA,NA,"2011-01-10T14:18:44",31
"PDS2014","OM","PDS2014-0067",415,"WEIGHT","Weight","3.9554","g","3.9554",3.9554,"g",NA,NA,"TESTIS",NA,NA,NA,NA,NA,NA,NA,NA,"2011-01-10T14:19:02",31
"PDS2014","OM","PDS2014-0067",416,"WEIGHT","Weight","0.0159","g","0.0159",0.0159,"g",NA,NA,"GLAND, PITUITARY",NA,"FIXED",NA,NA,NA,NA,NA,NA,"2011-01-10T00:00:00",31
"PDS2014","OM","PDS2014-0067",417,"WEIGHT","Weight","0.0205","g","0.0205",0.0205,"g",NA,NA,"GLAND, THYROID",NA,"FIXED",NA,NA,NA,NA,NA,NA,"2011-01-10T00:00:00",31
"PDS2014","OM","PDS2014-0067",418,"WEIGHT","Weight","0.0832","g","0.0832",0.0832,"g",NA,NA,"GLAND, ADRENAL",NA,NA,NA,NA,NA,NA,NA,NA,"2011-01-10T14:17:43",31
"PDS2014","OM","PDS2014-0067",419,"WEIGHT","Weight","0.6274","g","0.6274",0.6274,"g",NA,NA,"SPLEEN",NA,NA,NA,NA,NA,NA,NA,NA,"2011-01-10T14:15:30",31
"PDS2014","OM","PDS2014-0067",420,"WEIGHT","Weight","0.3381","g","0.3381",0.3381,"g",NA,NA,"THYMUS",NA,NA,NA,NA,NA,NA,NA,NA,"2011-01-10T14:19:53",31
"PDS2014","OM","PDS2014-0068",421,"WEIGHT","Weight","2.123","g","2.123",2.123,"g",NA,NA,"BRAIN",NA,NA,NA,NA,NA,NA,NA,NA,"2011-01-10T11:05:09",31
"PDS2014","OM","PDS2014-0068",422,"WEIGHT","Weight","1.394","g","1.394",1.394,"g",NA,NA,"HEART",NA,NA,NA,NA,NA,NA,NA,NA,"2011-01-10T11:05:50",31
"PDS2014","OM","PDS2014-0068",423,"WEIGHT","Weight","9.0108","g","9.0108",9.0108,"g",NA,NA,"LIVER",NA,NA,NA,NA,NA,NA,NA,NA,"2011-01-10T11:00:40",31
"PDS2014","OM","PDS2014-0068",424,"WEIGHT","Weight","2.7676","g","2.7676",2.7676,"g",NA,NA,"KIDNEY",NA,NA,NA,NA,NA,NA,NA,NA,"2011-01-10T11:03:19",31
"PDS2014","OM","PDS2014-0068",425,"WEIGHT","Weight","3.3895","g","3.3895",3.3895,"g",NA,NA,"TESTIS",NA,NA,NA,NA,NA,NA,NA,NA,"2011-01-10T11:03:50",31
"PDS2014","OM","PDS2014-0068",426,"WEIGHT","Weight","0.0167","g","0.0167",0.0167,"g",NA,NA,"GLAND, PITUITARY",NA,"FIXED",NA,NA,NA,NA,NA,NA,"2011-01-10T00:00:00",31
"PDS2014","OM","PDS2014-0068",427,"WEIGHT","Weight","0.0221","g","0.0221",0.0221,"g",NA,NA,"GLAND, THYROID",NA,"FIXED",NA,NA,NA,NA,NA,NA,"2011-01-10T00:00:00",31
"PDS2014","OM","PDS2014-0068",428,"WEIGHT","Weight","0.0788","g","0.0788",0.0788,"g",NA,NA,"GLAND, ADRENAL",NA,NA,NA,NA,NA,NA,NA,NA,"2011-01-10T11:03:04",31
"PDS2014","OM","PDS2014-0068",429,"WEIGHT","Weight","0.5535","g","0.5535",0.5535,"g",NA,NA,"SPLEEN",NA,NA,NA,NA,NA,NA,NA,NA,"2011-01-10T11:02:27",31
"PDS2014","OM","PDS2014-0068",430,"WEIGHT","Weight","0.34","g","0.34",0.34,"g",NA,NA,"THYMUS",NA,NA,NA,NA,NA,NA,NA,NA,"2011-01-10T11:05:34",31
"PDS2014","OM","PDS2014-0069",431,"WEIGHT","Weight","2.0811","g","2.0811",2.0811,"g",NA,NA,"BRAIN",NA,NA,NA,NA,NA,NA,NA,NA,"2011-01-10T14:17:39",31
"PDS2014","OM","PDS2014-0069",432,"WEIGHT","Weight","1.4833","g","1.4833",1.4833,"g",NA,NA,"HEART",NA,NA,NA,NA,NA,NA,NA,NA,"2011-01-10T14:18:51",31
"PDS2014","OM","PDS2014-0069",433,"WEIGHT","Weight","10.9225","g","10.9225",10.9225,"g",NA,NA,"LIVER",NA,NA,NA,NA,NA,NA,NA,NA,"2011-01-10T14:13:47",31
"PDS2014","OM","PDS2014-0069",434,"WEIGHT","Weight","2.8793","g","2.8793",2.8793,"g",NA,NA,"KIDNEY",NA,NA,NA,NA,NA,NA,NA,NA,"2011-01-10T14:16:08",31
"PDS2014","OM","PDS2014-0069",435,"WEIGHT","Weight","3.7696","g","3.7696",3.7696,"g",NA,NA,"TESTIS",NA,NA,NA,NA,NA,NA,NA,NA,"2011-01-10T14:16:28",31
"PDS2014","OM","PDS2014-0069",436,"WEIGHT","Weight","0.0103","g","0.0103",0.0103,"g",NA,NA,"GLAND, PITUITARY",NA,"FIXED",NA,NA,NA,NA,NA,NA,"2011-01-10T00:00:00",31
"PDS2014","OM","PDS2014-0069",437,"WEIGHT","Weight","0.0225","g","0.0225",0.0225,"g",NA,NA,"GLAND, THYROID",NA,"FIXED",NA,NA,NA,NA,NA,NA,"2011-01-10T00:00:00",31
"PDS2014","OM","PDS2014-0069",438,"WEIGHT","Weight","0.0809","g","0.0809",0.0809,"g",NA,NA,"GLAND, ADRENAL",NA,NA,NA,NA,NA,NA,NA,NA,"2011-01-10T14:15:37",31
"PDS2014","OM","PDS2014-0069",439,"WEIGHT","Weight","0.6548","g","0.6548",0.6548,"g",NA,NA,"SPLEEN",NA,NA,NA,NA,NA,NA,NA,NA,"2011-01-10T14:15:48",31
"PDS2014","OM","PDS2014-0069",440,"WEIGHT","Weight","0.3764","g","0.3764",0.3764,"g",NA,NA,"THYMUS",NA,NA,NA,NA,NA,NA,NA,NA,"2011-01-10T14:18:23",31
"PDS2014","OM","PDS2014-0070",441,"WEIGHT","Weight",NA,NA,NA,NA,NA,"NOT DONE","animal perfusion","BRAIN",NA,NA,NA,NA,NA,NA,NA,NA,NA,NA
"PDS2014","OM","PDS2014-0070",442,"WEIGHT","Weight",NA,NA,NA,NA,NA,"NOT DONE","animal perfusion","HEART",NA,NA,NA,NA,NA,NA,NA,NA,NA,NA
"PDS2014","OM","PDS2014-0070",443,"WEIGHT","Weight",NA,NA,NA,NA,NA,"NOT DONE","animal perfusion","LIVER",NA,NA,NA,NA,NA,NA,NA,NA,NA,NA
"PDS2014","OM","PDS2014-0070",444,"WEIGHT","Weight",NA,NA,NA,NA,NA,"NOT DONE","animal perfusion","KIDNEY",NA,NA,NA,NA,NA,NA,NA,NA,NA,NA
"PDS2014","OM","PDS2014-0070",445,"WEIGHT","Weight",NA,NA,NA,NA,NA,"NOT DONE","animal perfusion","TESTIS",NA,NA,NA,NA,NA,NA,NA,NA,NA,NA
"PDS2014","OM","PDS2014-0070",446,"WEIGHT","Weight",NA,NA,NA,NA,NA,"NOT DONE","perfusion animal","GLAND, PITUITARY",NA,NA,NA,NA,NA,NA,NA,NA,NA,NA
"PDS2014","OM","PDS2014-0070",447,"WEIGHT","Weight",NA,NA,NA,NA,NA,"NOT DONE","perfusion animal","GLAND, THYROID",NA,NA,NA,NA,NA,NA,NA,NA,NA,NA
"PDS2014","OM","PDS2014-0070",448,"WEIGHT","Weight",NA,NA,NA,NA,NA,"NOT DONE","animal perfusion","GLAND, ADRENAL",NA,NA,NA,NA,NA,NA,NA,NA,NA,NA
"PDS2014","OM","PDS2014-0070",449,"WEIGHT","Weight",NA,NA,NA,NA,NA,"NOT DONE","animal perfusion","SPLEEN",NA,NA,NA,NA,NA,NA,NA,NA,NA,NA
"PDS2014","OM","PDS2014-0070",450,"WEIGHT","Weight",NA,NA,NA,NA,NA,"NOT DONE","animal perfusion","THYMUS",NA,NA,NA,NA,NA,NA,NA,NA,NA,NA
"PDS2014","OM","PDS2014-0071",451,"WEIGHT","Weight","2.0673","g","2.0673",2.0673,"g",NA,NA,"BRAIN",NA,NA,NA,NA,NA,NA,NA,NA,"2011-02-06T09:08:09",58
"PDS2014","OM","PDS2014-0071",452,"WEIGHT","Weight","1.4728","g","1.4728",1.4728,"g",NA,NA,"HEART",NA,NA,NA,NA,NA,NA,NA,NA,"2011-02-06T09:09:26",58
"PDS2014","OM","PDS2014-0071",453,"WEIGHT","Weight","8.5653","g","8.5653",8.5653,"g",NA,NA,"LIVER",NA,NA,NA,NA,NA,NA,NA,NA,"2011-02-06T09:04:06",58
"PDS2014","OM","PDS2014-0071",454,"WEIGHT","Weight","2.8478","g","2.8478",2.8478,"g",NA,NA,"KIDNEY",NA,NA,NA,NA,NA,NA,NA,NA,"2011-02-06T09:05:40",58
"PDS2014","OM","PDS2014-0071",455,"WEIGHT","Weight","3.155","g","3.155",3.155,"g",NA,NA,"TESTIS",NA,NA,NA,NA,NA,NA,NA,NA,"2011-02-06T09:06:47",58
"PDS2014","OM","PDS2014-0071",456,"WEIGHT","Weight","0.0153","g","0.0153",0.0153,"g",NA,NA,"GLAND, PITUITARY",NA,"FIXED",NA,NA,NA,NA,NA,NA,"2011-02-06T00:00:00",58
"PDS2014","OM","PDS2014-0071",457,"WEIGHT","Weight","0.034","g","0.034",0.034,"g",NA,NA,"GLAND, THYROID",NA,"FIXED",NA,NA,NA,NA,NA,NA,"2011-02-06T00:00:00",58
"PDS2014","OM","PDS2014-0071",458,"WEIGHT","Weight","0.069","g","0.069",0.069,"g",NA,NA,"GLAND, ADRENAL",NA,NA,NA,NA,NA,NA,NA,NA,"2011-02-06T09:05:17",58
"PDS2014","OM","PDS2014-0071",459,"WEIGHT","Weight","0.6141","g","0.6141",0.6141,"g",NA,NA,"SPLEEN",NA,NA,NA,NA,NA,NA,NA,NA,"2011-02-06T09:02:45",58
"PDS2014","OM","PDS2014-0071",460,"WEIGHT","Weight","0.2735","g","0.2735",0.2735,"g",NA,NA,"THYMUS",NA,NA,NA,NA,NA,NA,NA,NA,"2011-02-06T09:09:16",58
"PDS2014","OM","PDS2014-0072",461,"WEIGHT","Weight","2.0848","g","2.0848",2.0848,"g",NA,NA,"BRAIN",NA,NA,NA,NA,NA,NA,NA,NA,"2011-02-06T09:56:06",58
"PDS2014","OM","PDS2014-0072",462,"WEIGHT","Weight","1.4078","g","1.4078",1.4078,"g",NA,NA,"HEART",NA,NA,NA,NA,NA,NA,NA,NA,"2011-02-06T09:57:27",58
"PDS2014","OM","PDS2014-0072",463,"WEIGHT","Weight","10.3486","g","10.3486",10.3486,"g",NA,NA,"LIVER",NA,NA,NA,NA,NA,NA,NA,NA,"2011-02-06T09:52:20",58
"PDS2014","OM","PDS2014-0072",464,"WEIGHT","Weight","2.9702","g","2.9702",2.9702,"g",NA,NA,"KIDNEY",NA,NA,NA,NA,NA,NA,NA,NA,"2011-02-06T09:53:53",58
"PDS2014","OM","PDS2014-0072",465,"WEIGHT","Weight","3.6893","g","3.6893",3.6893,"g",NA,NA,"TESTIS",NA,NA,NA,NA,NA,NA,NA,NA,"2011-02-06T09:54:28",58
"PDS2014","OM","PDS2014-0072",466,"WEIGHT","Weight","0.0176","g","0.0176",0.0176,"g",NA,NA,"GLAND, PITUITARY",NA,"FIXED",NA,NA,NA,NA,NA,NA,"2011-02-06T00:00:00",58
"PDS2014","OM","PDS2014-0072",467,"WEIGHT","Weight","0.0492","g","0.0492",0.0492,"g",NA,NA,"GLAND, THYROID",NA,"FIXED",NA,NA,NA,NA,NA,NA,"2011-02-06T00:00:00",58
"PDS2014","OM","PDS2014-0072",468,"WEIGHT","Weight","0.0681","g","0.0681",0.0681,"g",NA,NA,"GLAND, ADRENAL",NA,NA,NA,NA,NA,NA,NA,NA,"2011-02-06T09:52:55",58
"PDS2014","OM","PDS2014-0072",469,"WEIGHT","Weight","0.7123","g","0.7123",0.7123,"g",NA,NA,"SPLEEN",NA,NA,NA,NA,NA,NA,NA,NA,"2011-02-06T09:51:05",58
"PDS2014","OM","PDS2014-0072",470,"WEIGHT","Weight","0.3204","g","0.3204",0.3204,"g",NA,NA,"THYMUS",NA,NA,NA,NA,NA,NA,NA,NA,"2011-02-06T09:57:16",58
"PDS2014","OM","PDS2014-0073",471,"WEIGHT","Weight","2.1261","g","2.1261",2.1261,"g",NA,NA,"BRAIN",NA,NA,NA,NA,NA,NA,NA,NA,"2011-02-06T11:15:23",58
"PDS2014","OM","PDS2014-0073",472,"WEIGHT","Weight","1.3549","g","1.3549",1.3549,"g",NA,NA,"HEART",NA,NA,NA,NA,NA,NA,NA,NA,"2011-02-06T11:16:19",58
"PDS2014","OM","PDS2014-0073",473,"WEIGHT","Weight","9.1142","g","9.1142",9.1142,"g",NA,NA,"LIVER",NA,NA,NA,NA,NA,NA,NA,NA,"2011-02-06T11:11:50",58
"PDS2014","OM","PDS2014-0073",474,"WEIGHT","Weight","2.9741","g","2.9741",2.9741,"g",NA,NA,"KIDNEY",NA,NA,NA,NA,NA,NA,NA,NA,"2011-02-06T11:13:27",58
"PDS2014","OM","PDS2014-0073",475,"WEIGHT","Weight","4.3283","g","4.3283",4.3283,"g",NA,NA,"TESTIS",NA,NA,NA,NA,NA,NA,NA,NA,"2011-02-06T11:14:04",58
"PDS2014","OM","PDS2014-0073",476,"WEIGHT","Weight","0.0113","g","0.0113",0.0113,"g",NA,NA,"GLAND, PITUITARY",NA,"FIXED",NA,NA,NA,NA,NA,NA,"2011-02-06T00:00:00",58
"PDS2014","OM","PDS2014-0073",477,"WEIGHT","Weight","0.0474","g","0.0474",0.0474,"g",NA,NA,"GLAND, THYROID",NA,"FIXED",NA,NA,NA,NA,NA,NA,"2011-02-06T00:00:00",58
"PDS2014","OM","PDS2014-0073",478,"WEIGHT","Weight","0.0692","g","0.0692",0.0692,"g",NA,NA,"GLAND, ADRENAL",NA,NA,NA,NA,NA,NA,NA,NA,"2011-02-06T11:12:35",58
"PDS2014","OM","PDS2014-0073",479,"WEIGHT","Weight","0.625","g","0.625",0.625,"g",NA,NA,"SPLEEN",NA,NA,NA,NA,NA,NA,NA,NA,"2011-02-06T11:10:33",58
"PDS2014","OM","PDS2014-0073",480,"WEIGHT","Weight","0.3383","g","0.3383",0.3383,"g",NA,NA,"THYMUS",NA,NA,NA,NA,NA,NA,NA,NA,"2011-02-06T11:16:08",58
"PDS2014","OM","PDS2014-0074",481,"WEIGHT","Weight","2.0023","g","2.0023",2.0023,"g",NA,NA,"BRAIN",NA,NA,NA,NA,NA,NA,NA,NA,"2011-02-06T09:31:48",58
"PDS2014","OM","PDS2014-0074",482,"WEIGHT","Weight","1.2787","g","1.2787",1.2787,"g",NA,NA,"HEART",NA,NA,NA,NA,NA,NA,NA,NA,"2011-02-06T09:38:04",58
"PDS2014","OM","PDS2014-0074",483,"WEIGHT","Weight","8.6456","g","8.6456",8.6456,"g",NA,NA,"LIVER",NA,NA,NA,NA,NA,NA,NA,NA,"2011-02-06T09:34:21",58
"PDS2014","OM","PDS2014-0074",484,"WEIGHT","Weight","2.4568","g","2.4568",2.4568,"g",NA,NA,"KIDNEY",NA,NA,NA,NA,NA,NA,NA,NA,"2011-02-06T09:36:38",58
"PDS2014","OM","PDS2014-0074",485,"WEIGHT","Weight","3.2674","g","3.2674",3.2674,"g",NA,NA,"TESTIS",NA,NA,NA,NA,NA,NA,NA,NA,"2011-02-06T09:37:20",58
"PDS2014","OM","PDS2014-0074",486,"WEIGHT","Weight","0.0181","g","0.0181",0.0181,"g",NA,NA,"GLAND, PITUITARY",NA,"FIXED",NA,NA,NA,NA,NA,NA,"2011-02-06T00:00:00",58
"PDS2014","OM","PDS2014-0074",487,"WEIGHT","Weight","0.0312","g","0.0312",0.0312,"g",NA,NA,"GLAND, THYROID",NA,"FIXED",NA,NA,NA,NA,NA,NA,"2011-02-06T00:00:00",58
"PDS2014","OM","PDS2014-0074",488,"WEIGHT","Weight","0.0762","g","0.0762",0.0762,"g",NA,NA,"GLAND, ADRENAL",NA,NA,NA,NA,NA,NA,NA,NA,"2011-02-06T09:36:04",58
"PDS2014","OM","PDS2014-0074",489,"WEIGHT","Weight","0.5509","g","0.5509",0.5509,"g",NA,NA,"SPLEEN",NA,NA,NA,NA,NA,NA,NA,NA,"2011-02-06T09:33:10",58
"PDS2014","OM","PDS2014-0074",490,"WEIGHT","Weight","0.2697","g","0.2697",0.2697,"g",NA,NA,"THYMUS",NA,NA,NA,NA,NA,NA,NA,NA,"2011-02-06T09:37:48",58
"PDS2014","OM","PDS2014-0075",491,"WEIGHT","Weight","2.158","g","2.158",2.158,"g",NA,NA,"BRAIN",NA,NA,NA,NA,NA,NA,NA,NA,"2011-02-06T10:54:19",58
"PDS2014","OM","PDS2014-0075",492,"WEIGHT","Weight","1.4409","g","1.4409",1.4409,"g",NA,NA,"HEART",NA,NA,NA,NA,NA,NA,NA,NA,"2011-02-06T11:04:44",58
"PDS2014","OM","PDS2014-0075",493,"WEIGHT","Weight","10.3322","g","10.3322",10.3322,"g",NA,NA,"LIVER",NA,NA,NA,NA,NA,NA,NA,NA,"2011-02-06T10:56:51",58
"PDS2014","OM","PDS2014-0075",494,"WEIGHT","Weight","2.9255","g","2.9255",2.9255,"g",NA,NA,"KIDNEY",NA,NA,NA,NA,NA,NA,NA,NA,"2011-02-06T11:03:32",58
"PDS2014","OM","PDS2014-0075",495,"WEIGHT","Weight","3.1731","g","3.1731",3.1731,"g",NA,NA,"TESTIS",NA,NA,NA,NA,NA,NA,NA,NA,"2011-02-06T11:04:09",58
"PDS2014","OM","PDS2014-0075",496,"WEIGHT","Weight","0.0159","g","0.0159",0.0159,"g",NA,NA,"GLAND, PITUITARY",NA,"FIXED",NA,NA,NA,NA,NA,NA,"2011-02-06T00:00:00",58
"PDS2014","OM","PDS2014-0075",497,"WEIGHT","Weight","0.0435","g","0.0435",0.0435,"g",NA,NA,"GLAND, THYROID",NA,"FIXED",NA,NA,NA,NA,NA,NA,"2011-02-06T00:00:00",58
"PDS2014","OM","PDS2014-0075",498,"WEIGHT","Weight","0.0809","g","0.0809",0.0809,"g",NA,NA,"GLAND, ADRENAL",NA,NA,NA,NA,NA,NA,NA,NA,"2011-02-06T11:03:04",58
"PDS2014","OM","PDS2014-0075",499,"WEIGHT","Weight","0.7418","g","0.7418",0.7418,"g",NA,NA,"SPLEEN",NA,NA,NA,NA,NA,NA,NA,NA,"2011-02-06T10:55:38",58
"PDS2014","OM","PDS2014-0075",500,"WEIGHT","Weight","0.2922","g","0.2922",0.2922,"g",NA,NA,"THYMUS",NA,NA,NA,NA,NA,NA,NA,NA,"2011-02-06T11:04:30",58
"PDS2014","OM","PDS2014-0101",501,"WEIGHT","Weight","1.9032","g","1.9032",1.9032,"g",NA,NA,"BRAIN",NA,NA,NA,NA,NA,NA,NA,NA,"2011-01-09T10:48:25",30
"PDS2014","OM","PDS2014-0101",502,"WEIGHT","Weight","0.983","g","0.983",0.983,"g",NA,NA,"HEART",NA,NA,NA,NA,NA,NA,NA,NA,"2011-01-09T10:49:33",30
"PDS2014","OM","PDS2014-0101",503,"WEIGHT","Weight","7.9695","g","7.9695",7.9695,"g",NA,NA,"LIVER",NA,NA,NA,NA,NA,NA,NA,NA,"2011-01-09T10:44:08",30
"PDS2014","OM","PDS2014-0101",504,"WEIGHT","Weight","1.9724","g","1.9724",1.9724,"g",NA,NA,"KIDNEY",NA,NA,NA,NA,NA,NA,NA,NA,"2011-01-09T10:47:30",30
"PDS2014","OM","PDS2014-0101",505,"WEIGHT","Weight","0.1411","g","0.1411",0.1411,"g",NA,NA,"OVARY",NA,NA,NA,NA,NA,NA,NA,NA,"2011-01-09T10:47:46",30
"PDS2014","OM","PDS2014-0101",506,"WEIGHT","Weight","0.0174","g","0.0174",0.0174,"g",NA,NA,"GLAND, PITUITARY",NA,"FIXED",NA,NA,NA,NA,NA,NA,"2011-01-09T00:00:00",30
"PDS2014","OM","PDS2014-0101",507,"WEIGHT","Weight","0.0298","g","0.0298",0.0298,"g",NA,NA,"GLAND, THYROID",NA,"FIXED",NA,NA,NA,NA,NA,NA,"2011-01-09T00:00:00",30
"PDS2014","OM","PDS2014-0101",508,"WEIGHT","Weight","0.1014","g","0.1014",0.1014,"g",NA,NA,"GLAND, ADRENAL",NA,NA,NA,NA,NA,NA,NA,NA,"2011-01-09T10:47:10",30
"PDS2014","OM","PDS2014-0101",509,"WEIGHT","Weight","0.6042","g","0.6042",0.6042,"g",NA,NA,"SPLEEN",NA,NA,NA,NA,NA,NA,NA,NA,"2011-01-09T10:42:53",30
"PDS2014","OM","PDS2014-0101",510,"WEIGHT","Weight","0.4861","g","0.4861",0.4861,"g",NA,NA,"THYMUS",NA,NA,NA,NA,NA,NA,NA,NA,"2011-01-09T10:49:23",30
"PDS2014","OM","PDS2014-0102",511,"WEIGHT","Weight","1.9764","g","1.9764",1.9764,"g",NA,NA,"BRAIN",NA,NA,NA,NA,NA,NA,NA,NA,"2011-01-09T13:19:58",30
"PDS2014","OM","PDS2014-0102",512,"WEIGHT","Weight","0.8957","g","0.8957",0.8957,"g",NA,NA,"HEART",NA,NA,NA,NA,NA,NA,NA,NA,"2011-01-09T13:21:00",30
"PDS2014","OM","PDS2014-0102",513,"WEIGHT","Weight","6.546","g","6.546",6.546,"g",NA,NA,"LIVER",NA,NA,NA,NA,NA,NA,NA,NA,"2011-01-09T13:16:27",30
"PDS2014","OM","PDS2014-0102",514,"WEIGHT","Weight","2.0256","g","2.0256",2.0256,"g",NA,NA,"KIDNEY",NA,NA,NA,NA,NA,NA,NA,NA,"2011-01-09T13:18:51",30
"PDS2014","OM","PDS2014-0102",515,"WEIGHT","Weight","0.1609","g","0.1609",0.1609,"g",NA,NA,"OVARY",NA,NA,NA,NA,NA,NA,NA,NA,"2011-01-09T13:19:19",30
"PDS2014","OM","PDS2014-0102",516,"WEIGHT","Weight","0.0193","g","0.0193",0.0193,"g",NA,NA,"GLAND, PITUITARY",NA,"FIXED",NA,NA,NA,NA,NA,NA,"2011-01-09T00:00:00",30
"PDS2014","OM","PDS2014-0102",517,"WEIGHT","Weight","0.0263","g","0.0263",0.0263,"g",NA,NA,"GLAND, THYROID",NA,"FIXED",NA,NA,NA,NA,NA,NA,"2011-01-09T00:00:00",30
"PDS2014","OM","PDS2014-0102",518,"WEIGHT","Weight","0.0815","g","0.0815",0.0815,"g",NA,NA,"GLAND, ADRENAL",NA,NA,NA,NA,NA,NA,NA,NA,"2011-01-09T13:18:28",30
"PDS2014","OM","PDS2014-0102",519,"WEIGHT","Weight","0.562","g","0.562",0.562,"g",NA,NA,"SPLEEN",NA,NA,NA,NA,NA,NA,NA,NA,"2011-01-09T13:15:26",30
"PDS2014","OM","PDS2014-0102",520,"WEIGHT","Weight","0.3549","g","0.3549",0.3549,"g",NA,NA,"THYMUS",NA,NA,NA,NA,NA,NA,NA,NA,"2011-01-09T13:20:51",30
"PDS2014","OM","PDS2014-0103",521,"WEIGHT","Weight","1.926","g","1.926",1.926,"g",NA,NA,"BRAIN",NA,NA,NA,NA,NA,NA,NA,NA,"2011-01-09T10:00:49",30
"PDS2014","OM","PDS2014-0103",522,"WEIGHT","Weight","0.8756","g","0.8756",0.8756,"g",NA,NA,"HEART",NA,NA,NA,NA,NA,NA,NA,NA,"2011-01-09T10:02:27",30
"PDS2014","OM","PDS2014-0103",523,"WEIGHT","Weight","6.4262","g","6.4262",6.4262,"g",NA,NA,"LIVER",NA,NA,NA,NA,NA,NA,NA,NA,"2011-01-09T09:53:56",30
"PDS2014","OM","PDS2014-0103",524,"WEIGHT","Weight","1.7501","g","1.7501",1.7501,"g",NA,NA,"KIDNEY",NA,NA,NA,NA,NA,NA,NA,NA,"2011-01-09T09:57:59",30
"PDS2014","OM","PDS2014-0103",525,"WEIGHT","Weight","0.1151","g","0.1151",0.1151,"g",NA,NA,"OVARY",NA,NA,NA,NA,NA,NA,NA,NA,"2011-01-09T10:00:05",30
"PDS2014","OM","PDS2014-0103",526,"WEIGHT","Weight","0.0179","g","0.0179",0.0179,"g",NA,NA,"GLAND, PITUITARY",NA,"FIXED",NA,NA,NA,NA,NA,NA,"2011-01-09T00:00:00",30
"PDS2014","OM","PDS2014-0103",527,"WEIGHT","Weight","0.0255","g","0.0255",0.0255,"g",NA,NA,"GLAND, THYROID",NA,"FIXED",NA,NA,NA,NA,NA,NA,"2011-01-09T00:00:00",30
"PDS2014","OM","PDS2014-0103",528,"WEIGHT","Weight","0.0817","g","0.0817",0.0817,"g",NA,NA,"GLAND, ADRENAL",NA,NA,NA,NA,NA,NA,NA,NA,"2011-01-09T09:57:22",30
"PDS2014","OM","PDS2014-0103",529,"WEIGHT","Weight","0.4655","g","0.4655",0.4655,"g",NA,NA,"SPLEEN",NA,NA,NA,NA,NA,NA,NA,NA,"2011-01-09T09:52:01",30
"PDS2014","OM","PDS2014-0103",530,"WEIGHT","Weight","0.3954","g","0.3954",0.3954,"g",NA,NA,"THYMUS",NA,NA,NA,NA,NA,NA,NA,NA,"2011-01-09T10:02:15",30
"PDS2014","OM","PDS2014-0104",531,"WEIGHT","Weight","2.0487","g","2.0487",2.0487,"g",NA,NA,"BRAIN",NA,NA,NA,NA,NA,NA,NA,NA,"2011-01-09T13:14:38",30
"PDS2014","OM","PDS2014-0104",532,"WEIGHT","Weight","0.9264","g","0.9264",0.9264,"g",NA,NA,"HEART",NA,NA,NA,NA,NA,NA,NA,NA,"2011-01-09T13:16:04",30
"PDS2014","OM","PDS2014-0104",533,"WEIGHT","Weight","6.0886","g","6.0886",6.0886,"g",NA,NA,"LIVER",NA,NA,NA,NA,NA,NA,NA,NA,"2011-01-09T13:09:39",30
"PDS2014","OM","PDS2014-0104",534,"WEIGHT","Weight","1.659","g","1.659",1.659,"g",NA,NA,"KIDNEY",NA,NA,NA,NA,NA,NA,NA,NA,"2011-01-09T13:12:13",30
"PDS2014","OM","PDS2014-0104",535,"WEIGHT","Weight","0.1335","g","0.1335",0.1335,"g",NA,NA,"OVARY",NA,NA,NA,NA,NA,NA,NA,NA,"2011-01-09T13:12:29",30
"PDS2014","OM","PDS2014-0104",536,"WEIGHT","Weight","0.0196","g","0.0196",0.0196,"g",NA,NA,"GLAND, PITUITARY",NA,"FIXED",NA,NA,NA,NA,NA,NA,"2011-01-09T00:00:00",30
"PDS2014","OM","PDS2014-0104",537,"WEIGHT","Weight","0.0182","g","0.0182",0.0182,"g",NA,NA,"GLAND, THYROID",NA,"FIXED",NA,NA,NA,NA,NA,NA,"2011-01-09T00:00:00",30
"PDS2014","OM","PDS2014-0104",538,"WEIGHT","Weight","0.083","g","0.083",0.083,"g",NA,NA,"GLAND, ADRENAL",NA,NA,NA,NA,NA,NA,NA,NA,"2011-01-09T13:11:46",30
"PDS2014","OM","PDS2014-0104",539,"WEIGHT","Weight","0.5442","g","0.5442",0.5442,"g",NA,NA,"SPLEEN",NA,NA,NA,NA,NA,NA,NA,NA,"2011-01-09T13:11:27",30
"PDS2014","OM","PDS2014-0104",540,"WEIGHT","Weight","0.4093","g","0.4093",0.4093,"g",NA,NA,"THYMUS",NA,NA,NA,NA,NA,NA,NA,NA,"2011-01-09T13:15:43",30
"PDS2014","OM","PDS2014-0105",541,"WEIGHT","Weight","1.6944","g","1.6944",1.6944,"g",NA,NA,"BRAIN",NA,NA,NA,NA,NA,NA,NA,NA,"2011-01-09T14:57:47",30
"PDS2014","OM","PDS2014-0105",542,"WEIGHT","Weight","0.7863","g","0.7863",0.7863,"g",NA,NA,"HEART",NA,NA,NA,NA,NA,NA,NA,NA,"2011-01-09T14:58:56",30
"PDS2014","OM","PDS2014-0105",543,"WEIGHT","Weight","6.3907","g","6.3907",6.3907,"g",NA,NA,"LIVER",NA,NA,NA,NA,NA,NA,NA,NA,"2011-01-09T14:54:04",30
"PDS2014","OM","PDS2014-0105",544,"WEIGHT","Weight","1.7588","g","1.7588",1.7588,"g",NA,NA,"KIDNEY",NA,NA,NA,NA,NA,NA,NA,NA,"2011-01-09T14:57:03",30
"PDS2014","OM","PDS2014-0105",545,"WEIGHT","Weight","0.1181","g","0.1181",0.1181,"g",NA,NA,"OVARY",NA,NA,NA,NA,NA,NA,NA,NA,"2011-01-09T14:57:33",30
"PDS2014","OM","PDS2014-0105",546,"WEIGHT","Weight","0.017","g","0.017",0.017,"g",NA,NA,"GLAND, PITUITARY",NA,"FIXED",NA,NA,NA,NA,NA,NA,"2011-01-09T00:00:00",30
"PDS2014","OM","PDS2014-0105",547,"WEIGHT","Weight","0.0209","g","0.0209",0.0209,"g",NA,NA,"GLAND, THYROID",NA,"FIXED",NA,NA,NA,NA,NA,NA,"2011-01-09T00:00:00",30
"PDS2014","OM","PDS2014-0105",548,"WEIGHT","Weight","0.0754","g","0.0754",0.0754,"g",NA,NA,"GLAND, ADRENAL",NA,NA,NA,NA,NA,NA,NA,NA,"2011-01-09T14:56:38",30
"PDS2014","OM","PDS2014-0105",549,"WEIGHT","Weight","0.6766","g","0.6766",0.6766,"g",NA,NA,"SPLEEN",NA,NA,NA,NA,NA,NA,NA,NA,"2011-01-09T14:53:38",30
"PDS2014","OM","PDS2014-0105",550,"WEIGHT","Weight","0.4388","g","0.4388",0.4388,"g",NA,NA,"THYMUS",NA,NA,NA,NA,NA,NA,NA,NA,"2011-01-09T14:58:46",30
"PDS2014","OM","PDS2014-0106",551,"WEIGHT","Weight","2.0369","g","2.0369",2.0369,"g",NA,NA,"BRAIN",NA,NA,NA,NA,NA,NA,NA,NA,"2011-01-10T11:20:58",31
"PDS2014","OM","PDS2014-0106",552,"WEIGHT","Weight","0.922","g","0.922",0.922,"g",NA,NA,"HEART",NA,NA,NA,NA,NA,NA,NA,NA,"2011-01-10T11:21:27",31
"PDS2014","OM","PDS2014-0106",553,"WEIGHT","Weight",NA,NA,NA,NA,NA,"NOT DONE","weight out of range, no confirmation, weight deleted by programm, liver could not be weighed again because it was already processed","LIVER",NA,NA,NA,NA,NA,NA,NA,NA,NA,NA
"PDS2014","OM","PDS2014-0106",554,"WEIGHT","Weight","1.8519","g","1.8519",1.8519,"g",NA,NA,"KIDNEY",NA,NA,NA,NA,NA,NA,NA,NA,"2011-01-10T11:20:28",31
"PDS2014","OM","PDS2014-0106",555,"WEIGHT","Weight","0.1468","g","0.1468",0.1468,"g",NA,NA,"OVARY",NA,NA,NA,NA,NA,NA,NA,NA,"2011-01-10T11:19:30",31
"PDS2014","OM","PDS2014-0106",556,"WEIGHT","Weight","0.0195","g","0.0195",0.0195,"g",NA,NA,"GLAND, PITUITARY",NA,"FIXED",NA,NA,NA,NA,NA,NA,"2011-01-10T00:00:00",31
"PDS2014","OM","PDS2014-0106",557,"WEIGHT","Weight","0.0193","g","0.0193",0.0193,"g",NA,NA,"GLAND, THYROID",NA,"FIXED",NA,NA,NA,NA,NA,NA,"2011-01-10T00:00:00",31
"PDS2014","OM","PDS2014-0106",558,"WEIGHT","Weight","0.068","g","0.068",0.068,"g",NA,NA,"GLAND, ADRENAL",NA,NA,NA,NA,NA,NA,NA,NA,"2011-01-10T11:17:39",31
"PDS2014","OM","PDS2014-0106",559,"WEIGHT","Weight","0.527","g","0.527",0.527,"g",NA,NA,"SPLEEN",NA,NA,NA,NA,NA,NA,NA,NA,"2011-01-10T11:14:28",31
"PDS2014","OM","PDS2014-0106",560,"WEIGHT","Weight","0.4547","g","0.4547",0.4547,"g",NA,NA,"THYMUS",NA,NA,NA,NA,NA,NA,NA,NA,"2011-01-10T11:21:14",31
"PDS2014","OM","PDS2014-0107",561,"WEIGHT","Weight","1.8884","g","1.8884",1.8884,"g",NA,NA,"BRAIN",NA,NA,NA,NA,NA,NA,NA,NA,"2011-01-10T14:29:09",31
"PDS2014","OM","PDS2014-0107",562,"WEIGHT","Weight","0.9954","g","0.9954",0.9954,"g",NA,NA,"HEART",NA,NA,NA,NA,NA,NA,NA,NA,"2011-01-10T14:30:09",31
"PDS2014","OM","PDS2014-0107",563,"WEIGHT","Weight","7.6997","g","7.6997",7.6997,"g",NA,NA,"LIVER",NA,NA,NA,NA,NA,NA,NA,NA,"2011-01-10T14:23:18",31
"PDS2014","OM","PDS2014-0107",564,"WEIGHT","Weight","2.1188","g","2.1188",2.1188,"g",NA,NA,"KIDNEY",NA,NA,NA,NA,NA,NA,NA,NA,"2011-01-10T14:27:46",31
"PDS2014","OM","PDS2014-0107",565,"WEIGHT","Weight","0.148","g","0.148",0.148,"g",NA,NA,"OVARY",NA,NA,NA,NA,NA,NA,NA,NA,"2011-01-10T14:28:33",31
"PDS2014","OM","PDS2014-0107",566,"WEIGHT","Weight","0.0185","g","0.0185",0.0185,"g",NA,NA,"GLAND, PITUITARY",NA,"FIXED",NA,NA,NA,NA,NA,NA,"2011-01-10T00:00:00",31
"PDS2014","OM","PDS2014-0107",567,"WEIGHT","Weight","0.0173","g","0.0173",0.0173,"g",NA,NA,"GLAND, THYROID",NA,"FIXED",NA,NA,NA,NA,NA,NA,"2011-01-10T00:00:00",31
"PDS2014","OM","PDS2014-0107",568,"WEIGHT","Weight","0.079","g","0.079",0.079,"g",NA,NA,"GLAND, ADRENAL",NA,NA,NA,NA,NA,NA,NA,NA,"2011-01-10T14:25:47",31
"PDS2014","OM","PDS2014-0107",569,"WEIGHT","Weight","0.6164","g","0.6164",0.6164,"g",NA,NA,"SPLEEN",NA,NA,NA,NA,NA,NA,NA,NA,"2011-01-10T14:24:21",31
"PDS2014","OM","PDS2014-0107",570,"WEIGHT","Weight","0.7335","g","0.7335",0.7335,"g",NA,NA,"THYMUS",NA,NA,NA,NA,NA,NA,NA,NA,"2011-01-10T14:29:47",31
"PDS2014","OM","PDS2014-0108",571,"WEIGHT","Weight","2.1205","g","2.1205",2.1205,"g",NA,NA,"BRAIN",NA,NA,NA,NA,NA,NA,NA,NA,"2011-01-10T11:16:37",31
"PDS2014","OM","PDS2014-0108",572,"WEIGHT","Weight","1.0033","g","1.0033",1.0033,"g",NA,NA,"HEART",NA,NA,NA,NA,NA,NA,NA,NA,"2011-01-10T11:17:51",31
"PDS2014","OM","PDS2014-0108",573,"WEIGHT","Weight","6.3912","g","6.3912",6.3912,"g",NA,NA,"LIVER",NA,NA,NA,NA,NA,NA,NA,NA,"2011-01-10T11:12:14",31
"PDS2014","OM","PDS2014-0108",574,"WEIGHT","Weight","1.8182","g","1.8182",1.8182,"g",NA,NA,"KIDNEY",NA,NA,NA,NA,NA,NA,NA,NA,"2011-01-10T11:14:44",31
"PDS2014","OM","PDS2014-0108",575,"WEIGHT","Weight","0.0998","g","0.0998",0.0998,"g",NA,NA,"OVARY",NA,NA,NA,NA,NA,NA,NA,NA,"2011-01-10T11:15:08",31
"PDS2014","OM","PDS2014-0108",576,"WEIGHT","Weight","0.0141","g","0.0141",0.0141,"g",NA,NA,"GLAND, PITUITARY",NA,"FIXED",NA,NA,NA,NA,NA,NA,"2011-01-10T00:00:00",31
"PDS2014","OM","PDS2014-0108",577,"WEIGHT","Weight","0.0153","g","0.0153",0.0153,"g",NA,NA,"GLAND, THYROID",NA,"FIXED",NA,NA,NA,NA,NA,NA,"2011-01-10T00:00:00",31
"PDS2014","OM","PDS2014-0108",578,"WEIGHT","Weight","0.0911","g","0.0911",0.0911,"g",NA,NA,"GLAND, ADRENAL",NA,NA,NA,NA,NA,NA,NA,NA,"2011-01-10T11:14:26",31
"PDS2014","OM","PDS2014-0108",579,"WEIGHT","Weight","0.6764","g","0.6764",0.6764,"g",NA,NA,"SPLEEN",NA,NA,NA,NA,NA,NA,NA,NA,"2011-01-10T11:13:26",31
"PDS2014","OM","PDS2014-0108",580,"WEIGHT","Weight","0.5545","g","0.5545",0.5545,"g",NA,NA,"THYMUS",NA,NA,NA,NA,NA,NA,NA,NA,"2011-01-10T11:17:34",31
"PDS2014","OM","PDS2014-0109",581,"WEIGHT","Weight","2.0737","g","2.0737",2.0737,"g",NA,NA,"BRAIN",NA,NA,NA,NA,NA,NA,NA,NA,"2011-01-10T14:28:57",31
"PDS2014","OM","PDS2014-0109",582,"WEIGHT","Weight","0.9636","g","0.9636",0.9636,"g",NA,NA,"HEART",NA,NA,NA,NA,NA,NA,NA,NA,"2011-01-10T14:29:46",31
"PDS2014","OM","PDS2014-0109",583,"WEIGHT","Weight","6.1568","g","6.1568",6.1568,"g",NA,NA,"LIVER",NA,NA,NA,NA,NA,NA,NA,NA,"2011-01-10T14:24:09",31
"PDS2014","OM","PDS2014-0109",584,"WEIGHT","Weight","1.8311","g","1.8311",1.8311,"g",NA,NA,"KIDNEY",NA,NA,NA,NA,NA,NA,NA,NA,"2011-01-10T14:26:33",31
"PDS2014","OM","PDS2014-0109",585,"WEIGHT","Weight","0.1239","g","0.1239",0.1239,"g",NA,NA,"OVARY",NA,NA,NA,NA,NA,NA,NA,NA,"2011-01-10T14:27:19",31
"PDS2014","OM","PDS2014-0109",586,"WEIGHT","Weight","0.0243","g","0.0243",0.0243,"g",NA,NA,"GLAND, PITUITARY",NA,"FIXED",NA,NA,NA,NA,NA,NA,"2011-01-10T00:00:00",31
"PDS2014","OM","PDS2014-0109",587,"WEIGHT","Weight","0.016","g","0.016",0.016,"g",NA,NA,"GLAND, THYROID",NA,"FIXED",NA,NA,NA,NA,NA,NA,"2011-01-10T00:00:00",31
"PDS2014","OM","PDS2014-0109",588,"WEIGHT","Weight","0.0768","g","0.0768",0.0768,"g",NA,NA,"GLAND, ADRENAL",NA,NA,NA,NA,NA,NA,NA,NA,"2011-01-10T14:26:02",31
"PDS2014","OM","PDS2014-0109",589,"WEIGHT","Weight","0.5528","g","0.5528",0.5528,"g",NA,NA,"SPLEEN",NA,NA,NA,NA,NA,NA,NA,NA,"2011-01-10T14:25:33",31
"PDS2014","OM","PDS2014-0109",590,"WEIGHT","Weight","0.7279","g","0.7279",0.7279,"g",NA,NA,"THYMUS",NA,NA,NA,NA,NA,NA,NA,NA,"2011-01-10T14:29:27",31
"PDS2014","OM","PDS2014-0110",591,"WEIGHT","Weight",NA,NA,NA,NA,NA,"NOT DONE","perfusion animal","BRAIN",NA,NA,NA,NA,NA,NA,NA,NA,NA,NA
"PDS2014","OM","PDS2014-0110",592,"WEIGHT","Weight",NA,NA,NA,NA,NA,"NOT DONE","perfusion animal","HEART",NA,NA,NA,NA,NA,NA,NA,NA,NA,NA
"PDS2014","OM","PDS2014-0110",593,"WEIGHT","Weight",NA,NA,NA,NA,NA,"NOT DONE","perfusion animal","LIVER",NA,NA,NA,NA,NA,NA,NA,NA,NA,NA
"PDS2014","OM","PDS2014-0110",594,"WEIGHT","Weight",NA,NA,NA,NA,NA,"NOT DONE","perfusion animal","KIDNEY",NA,NA,NA,NA,NA,NA,NA,NA,NA,NA
"PDS2014","OM","PDS2014-0110",595,"WEIGHT","Weight",NA,NA,NA,NA,NA,"NOT DONE","perfusion animal","OVARY",NA,NA,NA,NA,NA,NA,NA,NA,NA,NA
"PDS2014","OM","PDS2014-0110",596,"WEIGHT","Weight",NA,NA,NA,NA,NA,"NOT DONE","perfusion animal","GLAND, PITUITARY",NA,NA,NA,NA,NA,NA,NA,NA,NA,NA
"PDS2014","OM","PDS2014-0110",597,"WEIGHT","Weight",NA,NA,NA,NA,NA,"NOT DONE","perfusion animal","GLAND, THYROID",NA,NA,NA,NA,NA,NA,NA,NA,NA,NA
"PDS2014","OM","PDS2014-0110",598,"WEIGHT","Weight",NA,NA,NA,NA,NA,"NOT DONE","perfusion animal","GLAND, ADRENAL",NA,NA,NA,NA,NA,NA,NA,NA,NA,NA
"PDS2014","OM","PDS2014-0110",599,"WEIGHT","Weight",NA,NA,NA,NA,NA,"NOT DONE","perfusion animal","SPLEEN",NA,NA,NA,NA,NA,NA,NA,NA,NA,NA
"PDS2014","OM","PDS2014-0110",600,"WEIGHT","Weight",NA,NA,NA,NA,NA,"NOT DONE","perfusion animal","THYMUS",NA,NA,NA,NA,NA,NA,NA,NA,NA,NA
"PDS2014","OM","PDS2014-0111",601,"WEIGHT","Weight","2.0274","g","2.0274",2.0274,"g",NA,NA,"BRAIN",NA,NA,NA,NA,NA,NA,NA,NA,"2011-02-06T09:19:33",58
"PDS2014","OM","PDS2014-0111",602,"WEIGHT","Weight","1.0763","g","1.0763",1.0763,"g",NA,NA,"HEART",NA,NA,NA,NA,NA,NA,NA,NA,"2011-02-06T09:21:11",58
"PDS2014","OM","PDS2014-0111",603,"WEIGHT","Weight","7.258","g","7.258",7.258,"g",NA,NA,"LIVER",NA,NA,NA,NA,NA,NA,NA,NA,"2011-02-06T09:15:52",58
"PDS2014","OM","PDS2014-0111",604,"WEIGHT","Weight","2.2102","g","2.2102",2.2102,"g",NA,NA,"KIDNEY",NA,NA,NA,NA,NA,NA,NA,NA,"2011-02-06T09:17:21",58
"PDS2014","OM","PDS2014-0111",605,"WEIGHT","Weight","0.1449","g","0.1449",0.1449,"g",NA,NA,"OVARY",NA,NA,NA,NA,NA,NA,NA,NA,"2011-02-06T09:17:37",58
"PDS2014","OM","PDS2014-0111",606,"WEIGHT","Weight","0.0211","g","0.0211",0.0211,"g",NA,NA,"GLAND, PITUITARY",NA,"FIXED",NA,NA,NA,NA,NA,NA,"2011-02-06T00:00:00",58
"PDS2014","OM","PDS2014-0111",607,"WEIGHT","Weight","0.0254","g","0.0254",0.0254,"g",NA,NA,"GLAND, THYROID",NA,"FIXED",NA,NA,NA,NA,NA,NA,"2011-02-06T00:00:00",58
"PDS2014","OM","PDS2014-0111",608,"WEIGHT","Weight","0.0876","g","0.0876",0.0876,"g",NA,NA,"GLAND, ADRENAL",NA,NA,NA,NA,NA,NA,NA,NA,"2011-02-06T09:17:06",58
"PDS2014","OM","PDS2014-0111",609,"WEIGHT","Weight","0.585","g","0.585",0.585,"g",NA,NA,"SPLEEN",NA,NA,NA,NA,NA,NA,NA,NA,"2011-02-06T09:14:34",58
"PDS2014","OM","PDS2014-0111",610,"WEIGHT","Weight","0.516","g","0.516",0.516,"g",NA,NA,"THYMUS",NA,NA,NA,NA,NA,NA,NA,NA,"2011-02-06T09:21:00",58
"PDS2014","OM","PDS2014-0112",611,"WEIGHT","Weight","2.0128","g","2.0128",2.0128,"g",NA,NA,"BRAIN",NA,NA,NA,NA,NA,NA,NA,NA,"2011-02-06T10:36:49",58
"PDS2014","OM","PDS2014-0112",612,"WEIGHT","Weight","1.1811","g","1.1811",1.1811,"g",NA,NA,"HEART",NA,NA,NA,NA,NA,NA,NA,NA,"2011-02-06T10:37:47",58
"PDS2014","OM","PDS2014-0112",613,"WEIGHT","Weight","8.241","g","8.241",8.241,"g",NA,NA,"LIVER",NA,NA,NA,NA,NA,NA,NA,NA,"2011-02-06T10:32:57",58
"PDS2014","OM","PDS2014-0112",614,"WEIGHT","Weight","1.9753","g","1.9753",1.9753,"g",NA,NA,"KIDNEY",NA,NA,NA,NA,NA,NA,NA,NA,"2011-02-06T10:34:37",58
"PDS2014","OM","PDS2014-0112",615,"WEIGHT","Weight","0.1199","g","0.1199",0.1199,"g",NA,NA,"OVARY",NA,NA,NA,NA,NA,NA,NA,NA,"2011-02-06T10:35:00",58
"PDS2014","OM","PDS2014-0112",616,"WEIGHT","Weight","0.0195","g","0.0195",0.0195,"g",NA,NA,"GLAND, PITUITARY",NA,"FIXED",NA,NA,NA,NA,NA,NA,"2011-02-06T00:00:00",58
"PDS2014","OM","PDS2014-0112",617,"WEIGHT","Weight","0.0291","g","0.0291",0.0291,"g",NA,NA,"GLAND, THYROID",NA,"FIXED",NA,NA,NA,NA,NA,NA,"2011-02-06T00:00:00",58
"PDS2014","OM","PDS2014-0112",618,"WEIGHT","Weight","0.0662","g","0.0662",0.0662,"g",NA,NA,"GLAND, ADRENAL",NA,NA,NA,NA,NA,NA,NA,NA,"2011-02-06T10:33:39",58
"PDS2014","OM","PDS2014-0112",619,"WEIGHT","Weight","0.5129","g","0.5129",0.5129,"g",NA,NA,"SPLEEN",NA,NA,NA,NA,NA,NA,NA,NA,"2011-02-06T10:31:38",58
"PDS2014","OM","PDS2014-0112",620,"WEIGHT","Weight","0.3632","g","0.3632",0.3632,"g",NA,NA,"THYMUS",NA,NA,NA,NA,NA,NA,NA,NA,"2011-02-06T10:37:38",58
"PDS2014","OM","PDS2014-0113",621,"WEIGHT","Weight","1.9686","g","1.9686",1.9686,"g",NA,NA,"BRAIN",NA,NA,NA,NA,NA,NA,NA,NA,"2011-02-06T08:55:05",58
"PDS2014","OM","PDS2014-0113",622,"WEIGHT","Weight","1.1464","g","1.1464",1.1464,"g",NA,NA,"HEART",NA,NA,NA,NA,NA,NA,NA,NA,"2011-02-06T09:01:27",58
"PDS2014","OM","PDS2014-0113",623,"WEIGHT","Weight","6.6845","g","6.6845",6.6845,"g",NA,NA,"LIVER",NA,NA,NA,NA,NA,NA,NA,NA,"2011-02-06T08:57:29",58
"PDS2014","OM","PDS2014-0113",624,"WEIGHT","Weight","1.6358","g","1.6358",1.6358,"g",NA,NA,"KIDNEY",NA,NA,NA,NA,NA,NA,NA,NA,"2011-02-06T08:59:23",58
"PDS2014","OM","PDS2014-0113",625,"WEIGHT","Weight","0.0903","g","0.0903",0.0903,"g",NA,NA,"OVARY",NA,NA,NA,NA,NA,NA,NA,NA,"2011-02-06T08:59:55",58
"PDS2014","OM","PDS2014-0113",626,"WEIGHT","Weight","0.0156","g","0.0156",0.0156,"g",NA,NA,"GLAND, PITUITARY",NA,"FIXED",NA,NA,NA,NA,NA,NA,"2011-02-06T00:00:00",58
"PDS2014","OM","PDS2014-0113",627,"WEIGHT","Weight","0.019","g","0.019",0.019,"g",NA,NA,"GLAND, THYROID",NA,"FIXED",NA,NA,NA,NA,NA,NA,"2011-02-06T00:00:00",58
"PDS2014","OM","PDS2014-0113",628,"WEIGHT","Weight","0.0776","g","0.0776",0.0776,"g",NA,NA,"GLAND, ADRENAL",NA,NA,NA,NA,NA,NA,NA,NA,"2011-02-06T08:59:02",58
"PDS2014","OM","PDS2014-0113",629,"WEIGHT","Weight","0.4435","g","0.4435",0.4435,"g",NA,NA,"SPLEEN",NA,NA,NA,NA,NA,NA,NA,NA,"2011-02-06T08:56:29",58
"PDS2014","OM","PDS2014-0113",630,"WEIGHT","Weight","0.2673","g","0.2673",0.2673,"g",NA,NA,"THYMUS",NA,NA,NA,NA,NA,NA,NA,NA,"2011-02-06T09:01:02",58
"PDS2014","OM","PDS2014-0114",631,"WEIGHT","Weight","2.0468","g","2.0468",2.0468,"g",NA,NA,"BRAIN",NA,NA,NA,NA,NA,NA,NA,NA,"2011-02-06T09:43:23",58
"PDS2014","OM","PDS2014-0114",632,"WEIGHT","Weight","1.0373","g","1.0373",1.0373,"g",NA,NA,"HEART",NA,NA,NA,NA,NA,NA,NA,NA,"2011-02-06T09:51:35",58
"PDS2014","OM","PDS2014-0114",633,"WEIGHT","Weight","6.4099","g","6.4099",6.4099,"g",NA,NA,"LIVER",NA,NA,NA,NA,NA,NA,NA,NA,"2011-02-06T09:46:26",58
"PDS2014","OM","PDS2014-0114",634,"WEIGHT","Weight","1.7015","g","1.7015",1.7015,"g",NA,NA,"KIDNEY",NA,NA,NA,NA,NA,NA,NA,NA,"2011-02-06T09:50:24",58
"PDS2014","OM","PDS2014-0114",635,"WEIGHT","Weight","0.0863","g","0.0863",0.0863,"g",NA,NA,"OVARY",NA,NA,NA,NA,NA,NA,NA,NA,"2011-02-06T09:50:50",58
"PDS2014","OM","PDS2014-0114",636,"WEIGHT","Weight","0.0176","g","0.0176",0.0176,"g",NA,NA,"GLAND, PITUITARY",NA,"FIXED",NA,NA,NA,NA,NA,NA,"2011-02-06T00:00:00",58
"PDS2014","OM","PDS2014-0114",637,"WEIGHT","Weight","0.0238","g","0.0238",0.0238,"g",NA,NA,"GLAND, THYROID",NA,"FIXED",NA,NA,NA,NA,NA,NA,"2011-02-06T00:00:00",58
"PDS2014","OM","PDS2014-0114",638,"WEIGHT","Weight","0.0767","g","0.0767",0.0767,"g",NA,NA,"GLAND, ADRENAL",NA,NA,NA,NA,NA,NA,NA,NA,"2011-02-06T09:48:28",58
"PDS2014","OM","PDS2014-0114",639,"WEIGHT","Weight","0.3832","g","0.3832",0.3832,"g",NA,NA,"SPLEEN",NA,NA,NA,NA,NA,NA,NA,NA,"2011-02-06T09:45:14",58
"PDS2014","OM","PDS2014-0114",640,"WEIGHT","Weight","0.279","g","0.279",0.279,"g",NA,NA,"THYMUS",NA,NA,NA,NA,NA,NA,NA,NA,"2011-02-06T09:51:14",58
"PDS2014","OM","PDS2014-0115",641,"WEIGHT","Weight","1.9682","g","1.9682",1.9682,"g",NA,NA,"BRAIN",NA,NA,NA,NA,NA,NA,NA,NA,"2011-02-06T11:08:49",58
"PDS2014","OM","PDS2014-0115",642,"WEIGHT","Weight","1.0344","g","1.0344",1.0344,"g",NA,NA,"HEART",NA,NA,NA,NA,NA,NA,NA,NA,"2011-02-06T11:16:17",58
"PDS2014","OM","PDS2014-0115",643,"WEIGHT","Weight","8.3788","g","8.3788",8.3788,"g",NA,NA,"LIVER",NA,NA,NA,NA,NA,NA,NA,NA,"2011-02-06T11:11:02",58
"PDS2014","OM","PDS2014-0115",644,"WEIGHT","Weight","1.8141","g","1.8141",1.8141,"g",NA,NA,"KIDNEY",NA,NA,NA,NA,NA,NA,NA,NA,"2011-02-06T11:13:10",58
"PDS2014","OM","PDS2014-0115",645,"WEIGHT","Weight","0.1113","g","0.1113",0.1113,"g",NA,NA,"OVARY",NA,NA,NA,NA,NA,NA,NA,NA,"2011-02-06T11:15:53",58
"PDS2014","OM","PDS2014-0115",646,"WEIGHT","Weight","0.0185","g","0.0185",0.0185,"g",NA,NA,"GLAND, PITUITARY",NA,"FIXED",NA,NA,NA,NA,NA,NA,"2011-02-06T00:00:00",58
"PDS2014","OM","PDS2014-0115",647,"WEIGHT","Weight","0.0256","g","0.0256",0.0256,"g",NA,NA,"GLAND, THYROID",NA,"FIXED",NA,NA,NA,NA,NA,NA,"2011-02-06T00:00:00",58
"PDS2014","OM","PDS2014-0115",648,"WEIGHT","Weight","0.0861","g","0.0861",0.0861,"g",NA,NA,"GLAND, ADRENAL",NA,NA,NA,NA,NA,NA,NA,NA,"2011-02-06T11:12:42",58
"PDS2014","OM","PDS2014-0115",649,"WEIGHT","Weight","0.523","g","0.523",0.523,"g",NA,NA,"SPLEEN",NA,NA,NA,NA,NA,NA,NA,NA,"2011-02-06T11:09:59",58
"PDS2014","OM","PDS2014-0115",650,"WEIGHT","Weight","0.2888","g","0.2888",0.2888,"g",NA,NA,"THYMUS",NA,NA,NA,NA,NA,NA,NA,NA,"2011-02-06T11:16:06",58
"PDS2014","OM","PDS2014-0121",651,"WEIGHT","Weight","1.9348","g","1.9348",1.9348,"g",NA,NA,"BRAIN",NA,NA,NA,NA,NA,NA,NA,NA,"2011-01-09T11:00:39",30
"PDS2014","OM","PDS2014-0121",652,"WEIGHT","Weight","0.8474","g","0.8474",0.8474,"g",NA,NA,"HEART",NA,NA,NA,NA,NA,NA,NA,NA,"2011-01-09T11:01:40",30
"PDS2014","OM","PDS2014-0121",653,"WEIGHT","Weight","7.6295","g","7.6295",7.6295,"g",NA,NA,"LIVER",NA,NA,NA,NA,NA,NA,NA,NA,"2011-01-09T10:57:33",30
"PDS2014","OM","PDS2014-0121",654,"WEIGHT","Weight","1.8872","g","1.8872",1.8872,"g",NA,NA,"KIDNEY",NA,NA,NA,NA,NA,NA,NA,NA,"2011-01-09T10:59:51",30
"PDS2014","OM","PDS2014-0121",655,"WEIGHT","Weight","0.1585","g","0.1585",0.1585,"g",NA,NA,"OVARY",NA,NA,NA,NA,NA,NA,NA,NA,"2011-01-09T11:00:12",30
"PDS2014","OM","PDS2014-0121",656,"WEIGHT","Weight","0.0182","g","0.0182",0.0182,"g",NA,NA,"GLAND, PITUITARY",NA,"FIXED",NA,NA,NA,NA,NA,NA,"2011-01-09T00:00:00",30
"PDS2014","OM","PDS2014-0121",657,"WEIGHT","Weight","0.0239","g","0.0239",0.0239,"g",NA,NA,"GLAND, THYROID",NA,"FIXED",NA,NA,NA,NA,NA,NA,"2011-01-09T00:00:00",30
"PDS2014","OM","PDS2014-0121",658,"WEIGHT","Weight","0.0892","g","0.0892",0.0892,"g",NA,NA,"GLAND, ADRENAL",NA,NA,NA,NA,NA,NA,NA,NA,"2011-01-09T10:59:28",30
"PDS2014","OM","PDS2014-0121",659,"WEIGHT","Weight","0.5938","g","0.5938",0.5938,"g",NA,NA,"SPLEEN",NA,NA,NA,NA,NA,NA,NA,NA,"2011-01-09T10:55:24",30
"PDS2014","OM","PDS2014-0121",660,"WEIGHT","Weight","0.445","g","0.445",0.445,"g",NA,NA,"THYMUS",NA,NA,NA,NA,NA,NA,NA,NA,"2011-01-09T11:01:29",30
"PDS2014","OM","PDS2014-0122",661,"WEIGHT","Weight","1.7676","g","1.7676",1.7676,"g",NA,NA,"BRAIN",NA,NA,NA,NA,NA,NA,NA,NA,"2011-01-09T13:34:06",30
"PDS2014","OM","PDS2014-0122",662,"WEIGHT","Weight","0.762","g","0.762",0.762,"g",NA,NA,"HEART",NA,NA,NA,NA,NA,NA,NA,NA,"2011-01-09T13:35:20",30
"PDS2014","OM","PDS2014-0122",663,"WEIGHT","Weight","5.9648","g","5.9648",5.9648,"g",NA,NA,"LIVER",NA,NA,NA,NA,NA,NA,NA,NA,"2011-01-09T13:27:19",30
"PDS2014","OM","PDS2014-0122",664,"WEIGHT","Weight","1.5946","g","1.5946",1.5946,"g",NA,NA,"KIDNEY",NA,NA,NA,NA,NA,NA,NA,NA,"2011-01-09T13:30:11",30
"PDS2014","OM","PDS2014-0122",665,"WEIGHT","Weight","0.1194","g","0.1194",0.1194,"g",NA,NA,"OVARY",NA,NA,NA,NA,NA,NA,NA,NA,"2011-01-09T13:30:59",30
"PDS2014","OM","PDS2014-0122",666,"WEIGHT","Weight","0.0129","g","0.0129",0.0129,"g",NA,NA,"GLAND, PITUITARY",NA,"FIXED",NA,NA,NA,NA,NA,NA,"2011-01-09T00:00:00",30
"PDS2014","OM","PDS2014-0122",667,"WEIGHT","Weight","0.0212","g","0.0212",0.0212,"g",NA,NA,"GLAND, THYROID",NA,"FIXED",NA,NA,NA,NA,NA,NA,"2011-01-09T00:00:00",30
"PDS2014","OM","PDS2014-0122",668,"WEIGHT","Weight","0.0679","g","0.0679",0.0679,"g",NA,NA,"GLAND, ADRENAL",NA,NA,NA,NA,NA,NA,NA,NA,"2011-01-09T13:29:25",30
"PDS2014","OM","PDS2014-0122",669,"WEIGHT","Weight","0.5792","g","0.5792",0.5792,"g",NA,NA,"SPLEEN",NA,NA,NA,NA,NA,NA,NA,NA,"2011-01-09T13:26:06",30
"PDS2014","OM","PDS2014-0122",670,"WEIGHT","Weight","0.3938","g","0.3938",0.3938,"g",NA,NA,"THYMUS",NA,NA,NA,NA,NA,NA,NA,NA,"2011-01-09T13:35:00",30
"PDS2014","OM","PDS2014-0123",671,"WEIGHT","Weight","1.8603","g","1.8603",1.8603,"g",NA,NA,"BRAIN",NA,NA,NA,NA,NA,NA,NA,NA,"2011-01-09T10:16:14",30
"PDS2014","OM","PDS2014-0123",672,"WEIGHT","Weight","0.8291","g","0.8291",0.8291,"g",NA,NA,"HEART",NA,NA,NA,NA,NA,NA,NA,NA,"2011-01-09T10:16:46",30
"PDS2014","OM","PDS2014-0123",673,"WEIGHT","Weight","6.0197","g","6.0197",6.0197,"g",NA,NA,"LIVER",NA,NA,NA,NA,NA,NA,NA,NA,"2011-01-09T10:10:08",30
"PDS2014","OM","PDS2014-0123",674,"WEIGHT","Weight","1.6091","g","1.6091",1.6091,"g",NA,NA,"KIDNEY",NA,NA,NA,NA,NA,NA,NA,NA,"2011-01-09T10:12:39",30
"PDS2014","OM","PDS2014-0123",675,"WEIGHT","Weight","0.0752","g","0.0752",0.0752,"g",NA,NA,"OVARY",NA,NA,NA,NA,NA,NA,NA,NA,"2011-01-09T10:13:54",30
"PDS2014","OM","PDS2014-0123",676,"WEIGHT","Weight","0.0167","g","0.0167",0.0167,"g",NA,NA,"GLAND, PITUITARY",NA,"FIXED",NA,NA,NA,NA,NA,NA,"2011-01-09T00:00:00",30
"PDS2014","OM","PDS2014-0123",677,"WEIGHT","Weight","0.0203","g","0.0203",0.0203,"g",NA,NA,"GLAND, THYROID",NA,"FIXED",NA,NA,NA,NA,NA,NA,"2011-01-09T00:00:00",30
"PDS2014","OM","PDS2014-0123",678,"WEIGHT","Weight","0.077","g","0.077",0.077,"g",NA,NA,"GLAND, ADRENAL",NA,NA,NA,NA,NA,NA,NA,NA,"2011-01-09T10:12:22",30
"PDS2014","OM","PDS2014-0123",679,"WEIGHT","Weight","0.469","g","0.469",0.469,"g",NA,NA,"SPLEEN",NA,NA,NA,NA,NA,NA,NA,NA,"2011-01-09T10:08:24",30
"PDS2014","OM","PDS2014-0123",680,"WEIGHT","Weight","0.3027","g","0.3027",0.3027,"g",NA,NA,"THYMUS",NA,NA,NA,NA,NA,NA,NA,NA,"2011-01-09T10:16:29",30
"PDS2014","OM","PDS2014-0124",681,"WEIGHT","Weight","1.8668","g","1.8668",1.8668,"g",NA,NA,"BRAIN",NA,NA,NA,NA,NA,NA,NA,NA,"2011-01-09T13:29:33",30
"PDS2014","OM","PDS2014-0124",682,"WEIGHT","Weight","0.9153","g","0.9153",0.9153,"g",NA,NA,"HEART",NA,NA,NA,NA,NA,NA,NA,NA,"2011-01-09T13:30:50",30
"PDS2014","OM","PDS2014-0124",683,"WEIGHT","Weight","6.8981","g","6.8981",6.8981,"g",NA,NA,"LIVER",NA,NA,NA,NA,NA,NA,NA,NA,"2011-01-09T13:23:48",30
"PDS2014","OM","PDS2014-0124",684,"WEIGHT","Weight","1.7978","g","1.7978",1.7978,"g",NA,NA,"KIDNEY",NA,NA,NA,NA,NA,NA,NA,NA,"2011-01-09T13:26:53",30
"PDS2014","OM","PDS2014-0124",685,"WEIGHT","Weight","0.1496","g","0.1496",0.1496,"g",NA,NA,"OVARY",NA,NA,NA,NA,NA,NA,NA,NA,"2011-01-09T13:27:09",30
"PDS2014","OM","PDS2014-0124",686,"WEIGHT","Weight","0.0166","g","0.0166",0.0166,"g",NA,NA,"GLAND, PITUITARY",NA,"FIXED",NA,NA,NA,NA,NA,NA,"2011-01-09T00:00:00",30
"PDS2014","OM","PDS2014-0124",687,"WEIGHT","Weight","0.0211","g","0.0211",0.0211,"g",NA,NA,"GLAND, THYROID",NA,"FIXED",NA,NA,NA,NA,NA,NA,"2011-01-09T00:00:00",30
"PDS2014","OM","PDS2014-0124",688,"WEIGHT","Weight","0.0823","g","0.0823",0.0823,"g",NA,NA,"GLAND, ADRENAL",NA,NA,NA,NA,NA,NA,NA,NA,"2011-01-09T13:26:25",30
"PDS2014","OM","PDS2014-0124",689,"WEIGHT","Weight","0.5382","g","0.5382",0.5382,"g",NA,NA,"SPLEEN",NA,NA,NA,NA,NA,NA,NA,NA,"2011-01-09T13:22:09",30
"PDS2014","OM","PDS2014-0124",690,"WEIGHT","Weight","0.3112","g","0.3112",0.3112,"g",NA,NA,"THYMUS",NA,NA,NA,NA,NA,NA,NA,NA,"2011-01-09T13:30:36",30
"PDS2014","OM","PDS2014-0125",691,"WEIGHT","Weight","1.8888","g","1.8888",1.8888,"g",NA,NA,"BRAIN",NA,NA,NA,NA,NA,NA,NA,NA,"2011-01-09T15:09:06",30
"PDS2014","OM","PDS2014-0125",692,"WEIGHT","Weight","0.9828","g","0.9828",0.9828,"g",NA,NA,"HEART",NA,NA,NA,NA,NA,NA,NA,NA,"2011-01-09T15:10:17",30
"PDS2014","OM","PDS2014-0125",693,"WEIGHT","Weight","7.2953","g","7.2953",7.2953,"g",NA,NA,"LIVER",NA,NA,NA,NA,NA,NA,NA,NA,"2011-01-09T15:05:17",30
"PDS2014","OM","PDS2014-0125",694,"WEIGHT","Weight","2.1198","g","2.1198",2.1198,"g",NA,NA,"KIDNEY",NA,NA,NA,NA,NA,NA,NA,NA,"2011-01-09T15:08:01",30
"PDS2014","OM","PDS2014-0125",695,"WEIGHT","Weight","0.1532","g","0.1532",0.1532,"g",NA,NA,"OVARY",NA,NA,NA,NA,NA,NA,NA,NA,"2011-01-09T15:08:30",30
"PDS2014","OM","PDS2014-0125",696,"WEIGHT","Weight","0.0151","g","0.0151",0.0151,"g",NA,NA,"GLAND, PITUITARY",NA,"FIXED",NA,NA,NA,NA,NA,NA,"2011-01-09T00:00:00",30
"PDS2014","OM","PDS2014-0125",697,"WEIGHT","Weight","0.0196","g","0.0196",0.0196,"g",NA,NA,"GLAND, THYROID",NA,"FIXED",NA,NA,NA,NA,NA,NA,"2011-01-09T00:00:00",30
"PDS2014","OM","PDS2014-0125",698,"WEIGHT","Weight","0.0758","g","0.0758",0.0758,"g",NA,NA,"GLAND, ADRENAL",NA,NA,NA,NA,NA,NA,NA,NA,"2011-01-09T15:07:33",30
"PDS2014","OM","PDS2014-0125",699,"WEIGHT","Weight","0.5324","g","0.5324",0.5324,"g",NA,NA,"SPLEEN",NA,NA,NA,NA,NA,NA,NA,NA,"2011-01-09T15:04:12",30
"PDS2014","OM","PDS2014-0125",700,"WEIGHT","Weight","0.3915","g","0.3915",0.3915,"g",NA,NA,"THYMUS",NA,NA,NA,NA,NA,NA,NA,NA,"2011-01-09T15:10:03",30
"PDS2014","OM","PDS2014-0126",701,"WEIGHT","Weight","2.0554","g","2.0554",2.0554,"g",NA,NA,"BRAIN",NA,NA,NA,NA,NA,NA,NA,NA,"2011-01-10T11:33:18",31
"PDS2014","OM","PDS2014-0126",702,"WEIGHT","Weight","1.0124","g","1.0124",1.0124,"g",NA,NA,"HEART",NA,NA,NA,NA,NA,NA,NA,NA,"2011-01-10T11:34:32",31
"PDS2014","OM","PDS2014-0126",703,"WEIGHT","Weight","6.9701","g","6.9701",6.9701,"g",NA,NA,"LIVER",NA,NA,NA,NA,NA,NA,NA,NA,"2011-01-10T11:26:26",31
"PDS2014","OM","PDS2014-0126",704,"WEIGHT","Weight","1.79","g","1.79",1.79,"g",NA,NA,"KIDNEY",NA,NA,NA,NA,NA,NA,NA,NA,"2011-01-10T11:31:35",31
"PDS2014","OM","PDS2014-0126",705,"WEIGHT","Weight","0.1271","g","0.1271",0.1271,"g",NA,NA,"OVARY",NA,NA,NA,NA,NA,NA,NA,NA,"2011-01-10T11:32:42",31
"PDS2014","OM","PDS2014-0126",706,"WEIGHT","Weight","0.0196","g","0.0196",0.0196,"g",NA,NA,"GLAND, PITUITARY",NA,"FIXED",NA,NA,NA,NA,NA,NA,"2011-01-10T00:00:00",31
"PDS2014","OM","PDS2014-0126",707,"WEIGHT","Weight","0.0156","g","0.0156",0.0156,"g",NA,NA,"GLAND, THYROID",NA,"FIXED",NA,NA,NA,NA,NA,NA,"2011-01-10T00:00:00",31
"PDS2014","OM","PDS2014-0126",708,"WEIGHT","Weight","0.1045","g","0.1045",0.1045,"g",NA,NA,"GLAND, ADRENAL",NA,NA,NA,NA,NA,NA,NA,NA,"2011-01-10T11:30:33",31
"PDS2014","OM","PDS2014-0126",709,"WEIGHT","Weight","0.5884","g","0.5884",0.5884,"g",NA,NA,"SPLEEN",NA,NA,NA,NA,NA,NA,NA,NA,"2011-01-10T11:29:14",31
"PDS2014","OM","PDS2014-0126",710,"WEIGHT","Weight","0.6582","g","0.6582",0.6582,"g",NA,NA,"THYMUS",NA,NA,NA,NA,NA,NA,NA,NA,"2011-01-10T11:33:58",31
"PDS2014","OM","PDS2014-0127",711,"WEIGHT","Weight","2.1052","g","2.1052",2.1052,"g",NA,NA,"BRAIN",NA,NA,NA,NA,NA,NA,NA,NA,"2011-01-10T14:42:10",31
"PDS2014","OM","PDS2014-0127",712,"WEIGHT","Weight","0.8349","g","0.8349",0.8349,"g",NA,NA,"HEART",NA,NA,NA,NA,NA,NA,NA,NA,"2011-01-10T14:43:32",31
"PDS2014","OM","PDS2014-0127",713,"WEIGHT","Weight","6.8178","g","6.8178",6.8178,"g",NA,NA,"LIVER",NA,NA,NA,NA,NA,NA,NA,NA,"2011-01-10T14:35:41",31
"PDS2014","OM","PDS2014-0127",714,"WEIGHT","Weight","1.8533","g","1.8533",1.8533,"g",NA,NA,"KIDNEY",NA,NA,NA,NA,NA,NA,NA,NA,"2011-01-10T14:40:32",31
"PDS2014","OM","PDS2014-0127",715,"WEIGHT","Weight","0.1003","g","0.1003",0.1003,"g",NA,NA,"OVARY",NA,NA,NA,NA,NA,NA,NA,NA,"2011-01-10T14:41:19",31
"PDS2014","OM","PDS2014-0127",716,"WEIGHT","Weight","0.0193","g","0.0193",0.0193,"g",NA,NA,"GLAND, PITUITARY",NA,"FIXED",NA,NA,NA,NA,NA,NA,"2011-01-10T00:00:00",31
"PDS2014","OM","PDS2014-0127",717,"WEIGHT","Weight","0.0246","g","0.0246",0.0246,"g",NA,NA,"GLAND, THYROID",NA,"FIXED",NA,NA,NA,NA,NA,NA,"2011-01-10T00:00:00",31
"PDS2014","OM","PDS2014-0127",718,"WEIGHT","Weight","0.1124","g","0.1124",0.1124,"g",NA,NA,"GLAND, ADRENAL",NA,NA,NA,NA,NA,NA,NA,NA,"2011-01-10T14:40:06",31
"PDS2014","OM","PDS2014-0127",719,"WEIGHT","Weight","0.5251","g","0.5251",0.5251,"g",NA,NA,"SPLEEN",NA,NA,NA,NA,NA,NA,NA,NA,"2011-01-10T14:38:01",31
"PDS2014","OM","PDS2014-0127",720,"WEIGHT","Weight","0.3077","g","0.3077",0.3077,"g",NA,NA,"THYMUS",NA,NA,NA,NA,NA,NA,NA,NA,"2011-01-10T14:42:38",31
"PDS2014","OM","PDS2014-0128",721,"WEIGHT","Weight","1.8397","g","1.8397",1.8397,"g",NA,NA,"BRAIN",NA,NA,NA,NA,NA,NA,NA,NA,"2011-01-10T11:31:25",31
"PDS2014","OM","PDS2014-0128",722,"WEIGHT","Weight","0.853","g","0.853",0.853,"g",NA,NA,"HEART",NA,NA,NA,NA,NA,NA,NA,NA,"2011-01-10T11:32:26",31
"PDS2014","OM","PDS2014-0128",723,"WEIGHT","Weight","6.0079","g","6.0079",6.0079,"g",NA,NA,"LIVER",NA,NA,NA,NA,NA,NA,NA,NA,"2011-01-10T11:26:50",31
"PDS2014","OM","PDS2014-0128",724,"WEIGHT","Weight","1.7268","g","1.7268",1.7268,"g",NA,NA,"KIDNEY",NA,NA,NA,NA,NA,NA,NA,NA,"2011-01-10T11:29:38",31
"PDS2014","OM","PDS2014-0128",725,"WEIGHT","Weight","0.1069","g","0.1069",0.1069,"g",NA,NA,"OVARY",NA,NA,NA,NA,NA,NA,NA,NA,"2011-01-10T11:30:27",31
"PDS2014","OM","PDS2014-0128",726,"WEIGHT","Weight","0.015","g","0.015",0.015,"g",NA,NA,"GLAND, PITUITARY",NA,"FIXED",NA,NA,NA,NA,NA,NA,"2011-01-10T00:00:00",31
"PDS2014","OM","PDS2014-0128",727,"WEIGHT","Weight","0.0215","g","0.0215",0.0215,"g",NA,NA,"GLAND, THYROID",NA,"FIXED",NA,NA,NA,NA,NA,NA,"2011-01-10T00:00:00",31
"PDS2014","OM","PDS2014-0128",728,"WEIGHT","Weight","0.0713","g","0.0713",0.0713,"g",NA,NA,"GLAND, ADRENAL",NA,NA,NA,NA,NA,NA,NA,NA,"2011-01-10T11:28:30",31
"PDS2014","OM","PDS2014-0128",729,"WEIGHT","Weight","0.5716","g","0.5716",0.5716,"g",NA,NA,"SPLEEN",NA,NA,NA,NA,NA,NA,NA,NA,"2011-01-10T11:27:09",31
"PDS2014","OM","PDS2014-0128",730,"WEIGHT","Weight","0.5515","g","0.5515",0.5515,"g",NA,NA,"THYMUS",NA,NA,NA,NA,NA,NA,NA,NA,"2011-01-10T11:31:53",31
"PDS2014","OM","PDS2014-0129",731,"WEIGHT","Weight","1.9071","g","1.9071",1.9071,"g",NA,NA,"BRAIN",NA,NA,NA,NA,NA,NA,NA,NA,"2011-01-10T14:40:19",31
"PDS2014","OM","PDS2014-0129",732,"WEIGHT","Weight","0.8067","g","0.8067",0.8067,"g",NA,NA,"HEART",NA,NA,NA,NA,NA,NA,NA,NA,"2011-01-10T14:41:23",31
"PDS2014","OM","PDS2014-0129",733,"WEIGHT","Weight","6.1771","g","6.1771",6.1771,"g",NA,NA,"LIVER",NA,NA,NA,NA,NA,NA,NA,NA,"2011-01-10T14:35:01",31
"PDS2014","OM","PDS2014-0129",734,"WEIGHT","Weight","1.6602","g","1.6602",1.6602,"g",NA,NA,"KIDNEY",NA,NA,NA,NA,NA,NA,NA,NA,"2011-01-10T14:37:48",31
"PDS2014","OM","PDS2014-0129",735,"WEIGHT","Weight","0.1085","g","0.1085",0.1085,"g",NA,NA,"OVARY",NA,NA,NA,NA,NA,NA,NA,NA,"2011-01-10T14:38:09",31
"PDS2014","OM","PDS2014-0129",736,"WEIGHT","Weight","0.0149","g","0.0149",0.0149,"g",NA,NA,"GLAND, PITUITARY",NA,"FIXED",NA,NA,NA,NA,NA,NA,"2011-01-10T00:00:00",31
"PDS2014","OM","PDS2014-0129",737,"WEIGHT","Weight","0.0165","g","0.0165",0.0165,"g",NA,NA,"GLAND, THYROID",NA,"FIXED",NA,NA,NA,NA,NA,NA,"2011-01-10T00:00:00",31
"PDS2014","OM","PDS2014-0129",738,"WEIGHT","Weight","0.0741","g","0.0741",0.0741,"g",NA,NA,"GLAND, ADRENAL",NA,NA,NA,NA,NA,NA,NA,NA,"2011-01-10T14:36:46",31
"PDS2014","OM","PDS2014-0129",739,"WEIGHT","Weight","0.5471","g","0.5471",0.5471,"g",NA,NA,"SPLEEN",NA,NA,NA,NA,NA,NA,NA,NA,"2011-01-10T14:35:17",31
"PDS2014","OM","PDS2014-0129",740,"WEIGHT","Weight","0.3853","g","0.3853",0.3853,"g",NA,NA,"THYMUS",NA,NA,NA,NA,NA,NA,NA,NA,"2011-01-10T14:40:46",31
"PDS2014","OM","PDS2014-0130",741,"WEIGHT","Weight",NA,NA,NA,NA,NA,"NOT DONE","perfusion animal","BRAIN",NA,NA,NA,NA,NA,NA,NA,NA,NA,NA
"PDS2014","OM","PDS2014-0130",742,"WEIGHT","Weight",NA,NA,NA,NA,NA,"NOT DONE","perfusion animal","HEART",NA,NA,NA,NA,NA,NA,NA,NA,NA,NA
"PDS2014","OM","PDS2014-0130",743,"WEIGHT","Weight",NA,NA,NA,NA,NA,"NOT DONE","perfusion animal","LIVER",NA,NA,NA,NA,NA,NA,NA,NA,NA,NA
"PDS2014","OM","PDS2014-0130",744,"WEIGHT","Weight",NA,NA,NA,NA,NA,"NOT DONE","perfusion animal","KIDNEY",NA,NA,NA,NA,NA,NA,NA,NA,NA,NA
"PDS2014","OM","PDS2014-0130",745,"WEIGHT","Weight",NA,NA,NA,NA,NA,"NOT DONE","perfusion animal","OVARY",NA,NA,NA,NA,NA,NA,NA,NA,NA,NA
"PDS2014","OM","PDS2014-0130",746,"WEIGHT","Weight",NA,NA,NA,NA,NA,"NOT DONE","perfusion animal","GLAND, PITUITARY",NA,NA,NA,NA,NA,NA,NA,NA,NA,NA
"PDS2014","OM","PDS2014-0130",747,"WEIGHT","Weight",NA,NA,NA,NA,NA,"NOT DONE","perfusion animal","GLAND, THYROID",NA,NA,NA,NA,NA,NA,NA,NA,NA,NA
"PDS2014","OM","PDS2014-0130",748,"WEIGHT","Weight",NA,NA,NA,NA,NA,"NOT DONE","perfusion animal","GLAND, ADRENAL",NA,NA,NA,NA,NA,NA,NA,NA,NA,NA
"PDS2014","OM","PDS2014-0130",749,"WEIGHT","Weight",NA,NA,NA,NA,NA,"NOT DONE","perfusion animal","SPLEEN",NA,NA,NA,NA,NA,NA,NA,NA,NA,NA
"PDS2014","OM","PDS2014-0130",750,"WEIGHT","Weight",NA,NA,NA,NA,NA,"NOT DONE","perfusion animal","THYMUS",NA,NA,NA,NA,NA,NA,NA,NA,NA,NA
"PDS2014","OM","PDS2014-0141",751,"WEIGHT","Weight","1.9354","g","1.9354",1.9354,"g",NA,NA,"BRAIN",NA,NA,NA,NA,NA,NA,NA,NA,"2011-01-09T11:11:12",30
"PDS2014","OM","PDS2014-0141",752,"WEIGHT","Weight","1.0082","g","1.0082",1.0082,"g",NA,NA,"HEART",NA,NA,NA,NA,NA,NA,NA,NA,"2011-01-09T11:11:48",30
"PDS2014","OM","PDS2014-0141",753,"WEIGHT","Weight","9.067","g","9.067",9.067,"g",NA,NA,"LIVER",NA,NA,NA,NA,NA,NA,NA,NA,"2011-01-09T11:07:33",30
"PDS2014","OM","PDS2014-0141",754,"WEIGHT","Weight","1.9845","g","1.9845",1.9845,"g",NA,NA,"KIDNEY",NA,NA,NA,NA,NA,NA,NA,NA,"2011-01-09T11:10:12",30
"PDS2014","OM","PDS2014-0141",755,"WEIGHT","Weight","0.1312","g","0.1312",0.1312,"g",NA,NA,"OVARY",NA,NA,NA,NA,NA,NA,NA,NA,"2011-01-09T11:10:33",30
"PDS2014","OM","PDS2014-0141",756,"WEIGHT","Weight","0.0152","g","0.0152",0.0152,"g",NA,NA,"GLAND, PITUITARY",NA,"FIXED",NA,NA,NA,NA,NA,NA,"2011-01-09T00:00:00",30
"PDS2014","OM","PDS2014-0141",757,"WEIGHT","Weight","0.0221","g","0.0221",0.0221,"g",NA,NA,"GLAND, THYROID",NA,"FIXED",NA,NA,NA,NA,NA,NA,"2011-01-09T00:00:00",30
"PDS2014","OM","PDS2014-0141",758,"WEIGHT","Weight","0.1037","g","0.1037",0.1037,"g",NA,NA,"GLAND, ADRENAL",NA,NA,NA,NA,NA,NA,NA,NA,"2011-01-09T11:09:33",30
"PDS2014","OM","PDS2014-0141",759,"WEIGHT","Weight","0.511","g","0.511",0.511,"g",NA,NA,"SPLEEN",NA,NA,NA,NA,NA,NA,NA,NA,"2011-01-09T11:05:47",30
"PDS2014","OM","PDS2014-0141",760,"WEIGHT","Weight","0.3971","g","0.3971",0.3971,"g",NA,NA,"THYMUS",NA,NA,NA,NA,NA,NA,NA,NA,"2011-01-09T11:11:34",30
"PDS2014","OM","PDS2014-0142",761,"WEIGHT","Weight","1.8773","g","1.8773",1.8773,"g",NA,NA,"BRAIN",NA,NA,NA,NA,NA,NA,NA,NA,"2011-01-09T13:48:39",30
"PDS2014","OM","PDS2014-0142",762,"WEIGHT","Weight","0.762","g","0.762",0.762,"g",NA,NA,"HEART",NA,NA,NA,NA,NA,NA,NA,NA,"2011-01-09T13:50:06",30
"PDS2014","OM","PDS2014-0142",763,"WEIGHT","Weight","6.8462","g","6.8462",6.8462,"g",NA,NA,"LIVER",NA,NA,NA,NA,NA,NA,NA,NA,"2011-01-09T13:45:12",30
"PDS2014","OM","PDS2014-0142",764,"WEIGHT","Weight","1.7747","g","1.7747",1.7747,"g",NA,NA,"KIDNEY",NA,NA,NA,NA,NA,NA,NA,NA,"2011-01-09T13:47:34",30
"PDS2014","OM","PDS2014-0142",765,"WEIGHT","Weight","0.1273","g","0.1273",0.1273,"g",NA,NA,"OVARY",NA,NA,NA,NA,NA,NA,NA,NA,"2011-01-09T13:47:49",30
"PDS2014","OM","PDS2014-0142",766,"WEIGHT","Weight","0.0138","g","0.0138",0.0138,"g",NA,NA,"GLAND, PITUITARY",NA,"FIXED",NA,NA,NA,NA,NA,NA,"2011-01-09T00:00:00",30
"PDS2014","OM","PDS2014-0142",767,"WEIGHT","Weight","0.0211","g","0.0211",0.0211,"g",NA,NA,"GLAND, THYROID",NA,"FIXED",NA,NA,NA,NA,NA,NA,"2011-01-09T00:00:00",30
"PDS2014","OM","PDS2014-0142",768,"WEIGHT","Weight","0.0933","g","0.0933",0.0933,"g",NA,NA,"GLAND, ADRENAL",NA,NA,NA,NA,NA,NA,NA,NA,"2011-01-09T13:47:16",30
"PDS2014","OM","PDS2014-0142",769,"WEIGHT","Weight","0.5309","g","0.5309",0.5309,"g",NA,NA,"SPLEEN",NA,NA,NA,NA,NA,NA,NA,NA,"2011-01-09T13:43:38",30
"PDS2014","OM","PDS2014-0142",770,"WEIGHT","Weight","0.368","g","0.368",0.368,"g",NA,NA,"THYMUS",NA,NA,NA,NA,NA,NA,NA,NA,"2011-01-09T13:49:56",30
"PDS2014","OM","PDS2014-0143",771,"WEIGHT","Weight","2.0446","g","2.0446",2.0446,"g",NA,NA,"BRAIN",NA,NA,NA,NA,NA,NA,NA,NA,"2011-01-09T10:32:52",30
"PDS2014","OM","PDS2014-0143",772,"WEIGHT","Weight","0.8169","g","0.8169",0.8169,"g",NA,NA,"HEART",NA,NA,NA,NA,NA,NA,NA,NA,"2011-01-09T10:33:41",30
"PDS2014","OM","PDS2014-0143",773,"WEIGHT","Weight","7.2283","g","7.2283",7.2283,"g",NA,NA,"LIVER",NA,NA,NA,NA,NA,NA,NA,NA,"2011-01-09T10:25:41",30
"PDS2014","OM","PDS2014-0143",774,"WEIGHT","Weight","1.8334","g","1.8334",1.8334,"g",NA,NA,"KIDNEY",NA,NA,NA,NA,NA,NA,NA,NA,"2011-01-09T10:29:50",30
"PDS2014","OM","PDS2014-0143",775,"WEIGHT","Weight","0.1377","g","0.1377",0.1377,"g",NA,NA,"OVARY",NA,NA,NA,NA,NA,NA,NA,NA,"2011-01-09T10:30:45",30
"PDS2014","OM","PDS2014-0143",776,"WEIGHT","Weight","0.02","g","0.02",0.02,"g",NA,NA,"GLAND, PITUITARY",NA,"FIXED",NA,NA,NA,NA,NA,NA,"2011-01-09T00:00:00",30
"PDS2014","OM","PDS2014-0143",777,"WEIGHT","Weight","0.0207","g","0.0207",0.0207,"g",NA,NA,"GLAND, THYROID",NA,"FIXED",NA,NA,NA,NA,NA,NA,"2011-01-09T00:00:00",30
"PDS2014","OM","PDS2014-0143",778,"WEIGHT","Weight","0.1007","g","0.1007",0.1007,"g",NA,NA,"GLAND, ADRENAL",NA,NA,NA,NA,NA,NA,NA,NA,"2011-01-09T10:29:17",30
"PDS2014","OM","PDS2014-0143",779,"WEIGHT","Weight","0.5237","g","0.5237",0.5237,"g",NA,NA,"SPLEEN",NA,NA,NA,NA,NA,NA,NA,NA,"2011-01-09T10:24:13",30
"PDS2014","OM","PDS2014-0143",780,"WEIGHT","Weight","0.3077","g","0.3077",0.3077,"g",NA,NA,"THYMUS",NA,NA,NA,NA,NA,NA,NA,NA,"2011-01-09T10:33:30",30
"PDS2014","OM","PDS2014-0144",781,"WEIGHT","Weight","2.0681","g","2.0681",2.0681,"g",NA,NA,"BRAIN",NA,NA,NA,NA,NA,NA,NA,NA,"2011-01-09T13:45:19",30
"PDS2014","OM","PDS2014-0144",782,"WEIGHT","Weight","0.9465","g","0.9465",0.9465,"g",NA,NA,"HEART",NA,NA,NA,NA,NA,NA,NA,NA,"2011-01-09T13:46:46",30
"PDS2014","OM","PDS2014-0144",783,"WEIGHT","Weight","7.2121","g","7.2121",7.2121,"g",NA,NA,"LIVER",NA,NA,NA,NA,NA,NA,NA,NA,"2011-01-09T13:38:57",30
"PDS2014","OM","PDS2014-0144",784,"WEIGHT","Weight","2.1521","g","2.1521",2.1521,"g",NA,NA,"KIDNEY",NA,NA,NA,NA,NA,NA,NA,NA,"2011-01-09T13:42:24",30
"PDS2014","OM","PDS2014-0144",785,"WEIGHT","Weight","0.0968","g","0.0968",0.0968,"g",NA,NA,"OVARY",NA,NA,NA,NA,NA,NA,NA,NA,"2011-01-09T13:42:49",30
"PDS2014","OM","PDS2014-0144",786,"WEIGHT","Weight","0.0178","g","0.0178",0.0178,"g",NA,NA,"GLAND, PITUITARY",NA,"FIXED",NA,NA,NA,NA,NA,NA,"2011-01-09T00:00:00",30
"PDS2014","OM","PDS2014-0144",787,"WEIGHT","Weight","0.0196","g","0.0196",0.0196,"g",NA,NA,"GLAND, THYROID",NA,"FIXED",NA,NA,NA,NA,NA,NA,"2011-01-09T00:00:00",30
"PDS2014","OM","PDS2014-0144",788,"WEIGHT","Weight","0.1091","g","0.1091",0.1091,"g",NA,NA,"GLAND, ADRENAL",NA,NA,NA,NA,NA,NA,NA,NA,"2011-01-09T13:41:57",30
"PDS2014","OM","PDS2014-0144",789,"WEIGHT","Weight","0.6201","g","0.6201",0.6201,"g",NA,NA,"SPLEEN",NA,NA,NA,NA,NA,NA,NA,NA,"2011-01-09T13:37:23",30
"PDS2014","OM","PDS2014-0144",790,"WEIGHT","Weight","0.3317","g","0.3317",0.3317,"g",NA,NA,"THYMUS",NA,NA,NA,NA,NA,NA,NA,NA,"2011-01-09T13:46:37",30
"PDS2014","OM","PDS2014-0145",791,"WEIGHT","Weight","1.9791","g","1.9791",1.9791,"g",NA,NA,"BRAIN",NA,NA,NA,NA,NA,NA,NA,NA,"2011-01-09T15:21:43",30
"PDS2014","OM","PDS2014-0145",792,"WEIGHT","Weight","0.8471","g","0.8471",0.8471,"g",NA,NA,"HEART",NA,NA,NA,NA,NA,NA,NA,NA,"2011-01-09T15:22:20",30
"PDS2014","OM","PDS2014-0145",793,"WEIGHT","Weight","7.5461","g","7.5461",7.5461,"g",NA,NA,"LIVER",NA,NA,NA,NA,NA,NA,NA,NA,"2011-01-09T15:16:03",30
"PDS2014","OM","PDS2014-0145",794,"WEIGHT","Weight","1.8838","g","1.8838",1.8838,"g",NA,NA,"KIDNEY",NA,NA,NA,NA,NA,NA,NA,NA,"2011-01-09T15:18:37",30
"PDS2014","OM","PDS2014-0145",795,"WEIGHT","Weight","0.1462","g","0.1462",0.1462,"g",NA,NA,"OVARY",NA,NA,NA,NA,NA,NA,NA,NA,"2011-01-09T15:18:54",30
"PDS2014","OM","PDS2014-0145",796,"WEIGHT","Weight","0.0157","g","0.0157",0.0157,"g",NA,NA,"GLAND, PITUITARY",NA,"FIXED",NA,NA,NA,NA,NA,NA,"2011-01-09T00:00:00",30
"PDS2014","OM","PDS2014-0145",797,"WEIGHT","Weight","0.0221","g","0.0221",0.0221,"g",NA,NA,"GLAND, THYROID",NA,"FIXED",NA,NA,NA,NA,NA,NA,"2011-01-09T00:00:00",30
"PDS2014","OM","PDS2014-0145",798,"WEIGHT","Weight","0.1014","g","0.1014",0.1014,"g",NA,NA,"GLAND, ADRENAL",NA,NA,NA,NA,NA,NA,NA,NA,"2011-01-09T15:18:16",30
"PDS2014","OM","PDS2014-0145",799,"WEIGHT","Weight","0.5623","g","0.5623",0.5623,"g",NA,NA,"SPLEEN",NA,NA,NA,NA,NA,NA,NA,NA,"2011-01-09T15:14:39",30
"PDS2014","OM","PDS2014-0145",800,"WEIGHT","Weight","0.5532","g","0.5532",0.5532,"g",NA,NA,"THYMUS",NA,NA,NA,NA,NA,NA,NA,NA,"2011-01-09T15:22:08",30
"PDS2014","OM","PDS2014-0146",801,"WEIGHT","Weight","1.9099","g","1.9099",1.9099,"g",NA,NA,"BRAIN",NA,NA,NA,NA,NA,NA,NA,NA,"2011-01-10T11:46:25",31
"PDS2014","OM","PDS2014-0146",802,"WEIGHT","Weight","0.9721","g","0.9721",0.9721,"g",NA,NA,"HEART",NA,NA,NA,NA,NA,NA,NA,NA,"2011-01-10T11:47:34",31
"PDS2014","OM","PDS2014-0146",803,"WEIGHT","Weight","8.6168","g","8.6168",8.6168,"g",NA,NA,"LIVER",NA,NA,NA,NA,NA,NA,NA,NA,"2011-01-10T11:39:43",31
"PDS2014","OM","PDS2014-0146",804,"WEIGHT","Weight","2.0492","g","2.0492",2.0492,"g",NA,NA,"KIDNEY",NA,NA,NA,NA,NA,NA,NA,NA,"2011-01-10T11:44:56",31
"PDS2014","OM","PDS2014-0146",805,"WEIGHT","Weight","0.1355","g","0.1355",0.1355,"g",NA,NA,"OVARY",NA,NA,NA,NA,NA,NA,NA,NA,"2011-01-10T11:43:49",31
"PDS2014","OM","PDS2014-0146",806,"WEIGHT","Weight","0.0136","g","0.0136",0.0136,"g",NA,NA,"GLAND, PITUITARY",NA,"FIXED",NA,NA,NA,NA,NA,NA,"2011-01-10T00:00:00",31
"PDS2014","OM","PDS2014-0146",807,"WEIGHT","Weight","0.0259","g","0.0259",0.0259,"g",NA,NA,"GLAND, THYROID",NA,"FIXED",NA,NA,NA,NA,NA,NA,"2011-01-10T00:00:00",31
"PDS2014","OM","PDS2014-0146",808,"WEIGHT","Weight","0.1033","g","0.1033",0.1033,"g",NA,NA,"GLAND, ADRENAL",NA,NA,NA,NA,NA,NA,NA,NA,"2011-01-10T11:43:40",31
"PDS2014","OM","PDS2014-0146",809,"WEIGHT","Weight","0.5015","g","0.5015",0.5015,"g",NA,NA,"SPLEEN",NA,NA,NA,NA,NA,NA,NA,NA,"2011-01-10T11:42:12",31
"PDS2014","OM","PDS2014-0146",810,"WEIGHT","Weight","0.4579","g","0.4579",0.4579,"g",NA,NA,"THYMUS",NA,NA,NA,NA,NA,NA,NA,NA,"2011-01-10T11:47:31",31
"PDS2014","OM","PDS2014-0147",811,"WEIGHT","Weight","1.9399","g","1.9399",1.9399,"g",NA,NA,"BRAIN",NA,NA,NA,NA,NA,NA,NA,NA,"2011-01-10T14:55:38",31
"PDS2014","OM","PDS2014-0147",812,"WEIGHT","Weight","0.885","g","0.885",0.885,"g",NA,NA,"HEART",NA,NA,NA,NA,NA,NA,NA,NA,"2011-01-10T14:56:09",31
"PDS2014","OM","PDS2014-0147",813,"WEIGHT","Weight","6.5316","g","6.5316",6.5316,"g",NA,NA,"LIVER",NA,NA,NA,NA,NA,NA,NA,NA,"2011-01-10T14:48:31",31
"PDS2014","OM","PDS2014-0147",814,"WEIGHT","Weight","1.8466","g","1.8466",1.8466,"g",NA,NA,"KIDNEY",NA,NA,NA,NA,NA,NA,NA,NA,"2011-01-10T14:54:57",31
"PDS2014","OM","PDS2014-0147",815,"WEIGHT","Weight","0.1312","g","0.1312",0.1312,"g",NA,NA,"OVARY",NA,NA,NA,NA,NA,NA,NA,NA,"2011-01-10T14:53:31",31
"PDS2014","OM","PDS2014-0147",816,"WEIGHT","Weight","0.0166","g","0.0166",0.0166,"g",NA,NA,"GLAND, PITUITARY",NA,"FIXED",NA,NA,NA,NA,NA,NA,"2011-01-10T00:00:00",31
"PDS2014","OM","PDS2014-0147",817,"WEIGHT","Weight","0.0137","g","0.0137",0.0137,"g",NA,NA,"GLAND, THYROID",NA,"FIXED",NA,NA,NA,NA,NA,NA,"2011-01-10T00:00:00",31
"PDS2014","OM","PDS2014-0147",818,"WEIGHT","Weight","0.1146","g","0.1146",0.1146,"g",NA,NA,"GLAND, ADRENAL",NA,NA,NA,NA,NA,NA,NA,NA,"2011-01-10T14:53:21",31
"PDS2014","OM","PDS2014-0147",819,"WEIGHT","Weight","0.4122","g","0.4122",0.4122,"g",NA,NA,"SPLEEN",NA,NA,NA,NA,NA,NA,NA,NA,"2011-01-10T14:51:28",31
"PDS2014","OM","PDS2014-0147",820,"WEIGHT","Weight","0.2111","g","0.2111",0.2111,"g",NA,NA,"THYMUS",NA,NA,NA,NA,NA,NA,NA,NA,"2011-01-10T14:55:49",31
"PDS2014","OM","PDS2014-0148",821,"WEIGHT","Weight","1.9285","g","1.9285",1.9285,"g",NA,NA,"BRAIN",NA,NA,NA,NA,NA,NA,NA,NA,"2011-01-10T11:44:41",31
"PDS2014","OM","PDS2014-0148",822,"WEIGHT","Weight","0.8786","g","0.8786",0.8786,"g",NA,NA,"HEART",NA,NA,NA,NA,NA,NA,NA,NA,"2011-01-10T11:45:53",31
"PDS2014","OM","PDS2014-0148",823,"WEIGHT","Weight","5.794","g","5.794",5.794,"g",NA,NA,"LIVER",NA,NA,NA,NA,NA,NA,NA,NA,"2011-01-10T11:40:22",31
"PDS2014","OM","PDS2014-0148",824,"WEIGHT","Weight","1.6648","g","1.6648",1.6648,"g",NA,NA,"KIDNEY",NA,NA,NA,NA,NA,NA,NA,NA,"2011-01-10T11:42:52",31
"PDS2014","OM","PDS2014-0148",825,"WEIGHT","Weight","0.1008","g","0.1008",0.1008,"g",NA,NA,"OVARY",NA,NA,NA,NA,NA,NA,NA,NA,"2011-01-10T11:44:08",31
"PDS2014","OM","PDS2014-0148",826,"WEIGHT","Weight","0.012","g","0.012",0.012,"g",NA,NA,"GLAND, PITUITARY",NA,"FIXED",NA,NA,NA,NA,NA,NA,"2011-01-10T00:00:00",31
"PDS2014","OM","PDS2014-0148",827,"WEIGHT","Weight","0.0202","g","0.0202",0.0202,"g",NA,NA,"GLAND, THYROID",NA,"FIXED",NA,NA,NA,NA,NA,NA,"2011-01-10T00:00:00",31
"PDS2014","OM","PDS2014-0148",828,"WEIGHT","Weight","0.0675","g","0.0675",0.0675,"g",NA,NA,"GLAND, ADRENAL",NA,NA,NA,NA,NA,NA,NA,NA,"2011-01-10T11:42:03",31
"PDS2014","OM","PDS2014-0148",829,"WEIGHT","Weight","0.4779","g","0.4779",0.4779,"g",NA,NA,"SPLEEN",NA,NA,NA,NA,NA,NA,NA,NA,"2011-01-10T11:40:54",31
"PDS2014","OM","PDS2014-0148",830,"WEIGHT","Weight","0.3691","g","0.3691",0.3691,"g",NA,NA,"THYMUS",NA,NA,NA,NA,NA,NA,NA,NA,"2011-01-10T11:45:35",31
"PDS2014","OM","PDS2014-0149",831,"WEIGHT","Weight","1.7651","g","1.7651",1.7651,"g",NA,NA,"BRAIN",NA,NA,NA,NA,NA,NA,NA,NA,"2011-01-10T14:49:55",31
"PDS2014","OM","PDS2014-0149",832,"WEIGHT","Weight","0.7468","g","0.7468",0.7468,"g",NA,NA,"HEART",NA,NA,NA,NA,NA,NA,NA,NA,"2011-01-10T14:51:51",31
"PDS2014","OM","PDS2014-0149",833,"WEIGHT","Weight","7.2582","g","7.2582",7.2582,"g",NA,NA,"LIVER",NA,NA,NA,NA,NA,NA,NA,NA,"2011-01-10T14:45:50",31
"PDS2014","OM","PDS2014-0149",834,"WEIGHT","Weight","1.5148","g","1.5148",1.5148,"g",NA,NA,"KIDNEY",NA,NA,NA,NA,NA,NA,NA,NA,"2011-01-10T14:48:07",31
"PDS2014","OM","PDS2014-0149",835,"WEIGHT","Weight","0.1029","g","0.1029",0.1029,"g",NA,NA,"OVARY",NA,NA,NA,NA,NA,NA,NA,NA,"2011-01-10T14:49:18",31
"PDS2014","OM","PDS2014-0149",836,"WEIGHT","Weight","0.0147","g","0.0147",0.0147,"g",NA,NA,"GLAND, PITUITARY",NA,"FIXED",NA,NA,NA,NA,NA,NA,"2011-01-10T00:00:00",31
"PDS2014","OM","PDS2014-0149",837,"WEIGHT","Weight","0.0156","g","0.0156",0.0156,"g",NA,NA,"GLAND, THYROID",NA,"FIXED",NA,NA,NA,NA,NA,NA,"2011-01-10T00:00:00",31
"PDS2014","OM","PDS2014-0149",838,"WEIGHT","Weight","0.0836","g","0.0836",0.0836,"g",NA,NA,"GLAND, ADRENAL",NA,NA,NA,NA,NA,NA,NA,NA,"2011-01-10T14:47:37",31
"PDS2014","OM","PDS2014-0149",839,"WEIGHT","Weight","0.4789","g","0.4789",0.4789,"g",NA,NA,"SPLEEN",NA,NA,NA,NA,NA,NA,NA,NA,"2011-01-10T14:46:58",31
"PDS2014","OM","PDS2014-0149",840,"WEIGHT","Weight","0.3887","g","0.3887",0.3887,"g",NA,NA,"THYMUS",NA,NA,NA,NA,NA,NA,NA,NA,"2011-01-10T14:50:55",31
"PDS2014","OM","PDS2014-0150",841,"WEIGHT","Weight",NA,NA,NA,NA,NA,"NOT DONE","perfusion animal","BRAIN",NA,NA,NA,NA,NA,NA,NA,NA,NA,NA
"PDS2014","OM","PDS2014-0150",842,"WEIGHT","Weight",NA,NA,NA,NA,NA,"NOT DONE","perfusion animal","HEART",NA,NA,NA,NA,NA,NA,NA,NA,NA,NA
"PDS2014","OM","PDS2014-0150",843,"WEIGHT","Weight",NA,NA,NA,NA,NA,"NOT DONE","perfusion animal","LIVER",NA,NA,NA,NA,NA,NA,NA,NA,NA,NA
"PDS2014","OM","PDS2014-0150",844,"WEIGHT","Weight",NA,NA,NA,NA,NA,"NOT DONE","perfusion animal","KIDNEY",NA,NA,NA,NA,NA,NA,NA,NA,NA,NA
"PDS2014","OM","PDS2014-0150",845,"WEIGHT","Weight",NA,NA,NA,NA,NA,"NOT DONE","perfusion animal","OVARY",NA,NA,NA,NA,NA,NA,NA,NA,NA,NA
"PDS2014","OM","PDS2014-0150",846,"WEIGHT","Weight",NA,NA,NA,NA,NA,"NOT DONE","perfusion animal","GLAND, PITUITARY",NA,NA,NA,NA,NA,NA,NA,NA,NA,NA
"PDS2014","OM","PDS2014-0150",847,"WEIGHT","Weight",NA,NA,NA,NA,NA,"NOT DONE","perfusion animal","GLAND, THYROID",NA,NA,NA,NA,NA,NA,NA,NA,NA,NA
"PDS2014","OM","PDS2014-0150",848,"WEIGHT","Weight",NA,NA,NA,NA,NA,"NOT DONE","perfusion animal","GLAND, ADRENAL",NA,NA,NA,NA,NA,NA,NA,NA,NA,NA
"PDS2014","OM","PDS2014-0150",849,"WEIGHT","Weight",NA,NA,NA,NA,NA,"NOT DONE","perfusion animal","SPLEEN",NA,NA,NA,NA,NA,NA,NA,NA,NA,NA
"PDS2014","OM","PDS2014-0150",850,"WEIGHT","Weight",NA,NA,NA,NA,NA,"NOT DONE","perfusion animal","THYMUS",NA,NA,NA,NA,NA,NA,NA,NA,NA,NA
"PDS2014","OM","PDS2014-0161",851,"WEIGHT","Weight","1.896","g","1.896",1.896,"g",NA,NA,"BRAIN",NA,NA,NA,NA,NA,NA,NA,NA,"2011-01-09T11:22:44",30
"PDS2014","OM","PDS2014-0161",852,"WEIGHT","Weight","0.6665","g","0.6665",0.6665,"g",NA,NA,"HEART",NA,NA,NA,NA,NA,NA,NA,NA,"2011-01-09T11:23:18",30
"PDS2014","OM","PDS2014-0161",853,"WEIGHT","Weight","7.6661","g","7.6661",7.6661,"g",NA,NA,"LIVER",NA,NA,NA,NA,NA,NA,NA,NA,"2011-01-09T11:18:05",30
"PDS2014","OM","PDS2014-0161",854,"WEIGHT","Weight","1.7911","g","1.7911",1.7911,"g",NA,NA,"KIDNEY",NA,NA,NA,NA,NA,NA,NA,NA,"2011-01-09T11:21:06",30
"PDS2014","OM","PDS2014-0161",855,"WEIGHT","Weight","0.1505","g","0.1505",0.1505,"g",NA,NA,"OVARY",NA,NA,NA,NA,NA,NA,NA,NA,"2011-01-09T11:21:32",30
"PDS2014","OM","PDS2014-0161",856,"WEIGHT","Weight","0.0128","g","0.0128",0.0128,"g",NA,NA,"GLAND, PITUITARY",NA,"FIXED",NA,NA,NA,NA,NA,NA,"2011-01-09T00:00:00",30
"PDS2014","OM","PDS2014-0161",857,"WEIGHT","Weight","0.0265","g","0.0265",0.0265,"g",NA,NA,"GLAND, THYROID",NA,"FIXED",NA,NA,NA,NA,NA,NA,"2011-01-09T00:00:00",30
"PDS2014","OM","PDS2014-0161",858,"WEIGHT","Weight","0.0937","g","0.0937",0.0937,"g",NA,NA,"GLAND, ADRENAL",NA,NA,NA,NA,NA,NA,NA,NA,"2011-01-09T11:20:38",30
"PDS2014","OM","PDS2014-0161",859,"WEIGHT","Weight","0.4362","g","0.4362",0.4362,"g",NA,NA,"SPLEEN",NA,NA,NA,NA,NA,NA,NA,NA,"2011-01-09T11:16:23",30
"PDS2014","OM","PDS2014-0161",860,"WEIGHT","Weight","0.2104","g","0.2104",0.2104,"g",NA,NA,"THYMUS",NA,NA,NA,NA,NA,NA,NA,NA,"2011-01-09T11:23:06",30
"PDS2014","OM","PDS2014-0162",861,"WEIGHT","Weight","1.742","g","1.742",1.742,"g",NA,NA,"BRAIN",NA,NA,NA,NA,NA,NA,NA,NA,"2011-01-09T13:59:58",30
"PDS2014","OM","PDS2014-0162",862,"WEIGHT","Weight","0.6566","g","0.6566",0.6566,"g",NA,NA,"HEART",NA,NA,NA,NA,NA,NA,NA,NA,"2011-01-09T14:00:38",30
"PDS2014","OM","PDS2014-0162",863,"WEIGHT","Weight","6.9571","g","6.9571",6.9571,"g",NA,NA,"LIVER",NA,NA,NA,NA,NA,NA,NA,NA,"2011-01-09T13:56:38",30
"PDS2014","OM","PDS2014-0162",864,"WEIGHT","Weight","1.5533","g","1.5533",1.5533,"g",NA,NA,"KIDNEY",NA,NA,NA,NA,NA,NA,NA,NA,"2011-01-09T13:58:52",30
"PDS2014","OM","PDS2014-0162",865,"WEIGHT","Weight","0.1153","g","0.1153",0.1153,"g",NA,NA,"OVARY",NA,NA,NA,NA,NA,NA,NA,NA,"2011-01-09T13:59:21",30
"PDS2014","OM","PDS2014-0162",866,"WEIGHT","Weight","0.0119","g","0.0119",0.0119,"g",NA,NA,"GLAND, PITUITARY",NA,"FIXED",NA,NA,NA,NA,NA,NA,"2011-01-09T00:00:00",30
"PDS2014","OM","PDS2014-0162",867,"WEIGHT","Weight","0.0244","g","0.0244",0.0244,"g",NA,NA,"GLAND, THYROID",NA,"FIXED",NA,NA,NA,NA,NA,NA,"2011-01-09T00:00:00",30
"PDS2014","OM","PDS2014-0162",868,"WEIGHT","Weight","0.0882","g","0.0882",0.0882,"g",NA,NA,"GLAND, ADRENAL",NA,NA,NA,NA,NA,NA,NA,NA,"2011-01-09T13:58:33",30
"PDS2014","OM","PDS2014-0162",869,"WEIGHT","Weight","0.4783","g","0.4783",0.4783,"g",NA,NA,"SPLEEN",NA,NA,NA,NA,NA,NA,NA,NA,"2011-01-09T13:54:59",30
"PDS2014","OM","PDS2014-0162",870,"WEIGHT","Weight","0.3093","g","0.3093",0.3093,"g",NA,NA,"THYMUS",NA,NA,NA,NA,NA,NA,NA,NA,"2011-01-09T14:00:21",30
"PDS2014","OM","PDS2014-0163",871,"WEIGHT","Weight","1.9094","g","1.9094",1.9094,"g",NA,NA,"BRAIN",NA,NA,NA,NA,NA,NA,NA,NA,"2011-01-09T10:47:48",30
"PDS2014","OM","PDS2014-0163",872,"WEIGHT","Weight","0.6519","g","0.6519",0.6519,"g",NA,NA,"HEART",NA,NA,NA,NA,NA,NA,NA,NA,"2011-01-09T10:49:18",30
"PDS2014","OM","PDS2014-0163",873,"WEIGHT","Weight","7.002","g","7.002",7.002,"g",NA,NA,"LIVER",NA,NA,NA,NA,NA,NA,NA,NA,"2011-01-09T10:42:58",30
"PDS2014","OM","PDS2014-0163",874,"WEIGHT","Weight","1.5459","g","1.5459",1.5459,"g",NA,NA,"KIDNEY",NA,NA,NA,NA,NA,NA,NA,NA,"2011-01-09T10:45:49",30
"PDS2014","OM","PDS2014-0163",875,"WEIGHT","Weight","0.1002","g","0.1002",0.1002,"g",NA,NA,"OVARY",NA,NA,NA,NA,NA,NA,NA,NA,"2011-01-09T10:46:44",30
"PDS2014","OM","PDS2014-0163",876,"WEIGHT","Weight","0.0105","g","0.0105",0.0105,"g",NA,NA,"GLAND, PITUITARY",NA,"FIXED",NA,NA,NA,NA,NA,NA,"2011-01-09T00:00:00",30
"PDS2014","OM","PDS2014-0163",877,"WEIGHT","Weight","0.0245","g","0.0245",0.0245,"g",NA,NA,"GLAND, THYROID",NA,"FIXED",NA,NA,NA,NA,NA,NA,"2011-01-09T00:00:00",30
"PDS2014","OM","PDS2014-0163",878,"WEIGHT","Weight","0.0632","g","0.0632",0.0632,"g",NA,NA,"GLAND, ADRENAL",NA,NA,NA,NA,NA,NA,NA,NA,"2011-01-09T10:45:32",30
"PDS2014","OM","PDS2014-0163",879,"WEIGHT","Weight","0.3879","g","0.3879",0.3879,"g",NA,NA,"SPLEEN",NA,NA,NA,NA,NA,NA,NA,NA,"2011-01-09T10:41:47",30
"PDS2014","OM","PDS2014-0163",880,"WEIGHT","Weight","0.3042","g","0.3042",0.3042,"g",NA,NA,"THYMUS",NA,NA,NA,NA,NA,NA,NA,NA,"2011-01-09T10:49:01",30
"PDS2014","OM","PDS2014-0164",881,"WEIGHT","Weight","1.852","g","1.852",1.852,"g",NA,NA,"BRAIN",NA,NA,NA,NA,NA,NA,NA,NA,"2011-01-09T14:00:52",30
"PDS2014","OM","PDS2014-0164",882,"WEIGHT","Weight","0.9178","g","0.9178",0.9178,"g",NA,NA,"HEART",NA,NA,NA,NA,NA,NA,NA,NA,"2011-01-09T14:02:02",30
"PDS2014","OM","PDS2014-0164",883,"WEIGHT","Weight","8.3623","g","8.3623",8.3623,"g",NA,NA,"LIVER",NA,NA,NA,NA,NA,NA,NA,NA,"2011-01-09T13:55:12",30
"PDS2014","OM","PDS2014-0164",884,"WEIGHT","Weight","1.8973","g","1.8973",1.8973,"g",NA,NA,"KIDNEY",NA,NA,NA,NA,NA,NA,NA,NA,"2011-01-09T13:57:41",30
"PDS2014","OM","PDS2014-0164",885,"WEIGHT","Weight","0.097","g","0.097",0.097,"g",NA,NA,"OVARY",NA,NA,NA,NA,NA,NA,NA,NA,"2011-01-09T13:58:53",30
"PDS2014","OM","PDS2014-0164",886,"WEIGHT","Weight","0.0185","g","0.0185",0.0185,"g",NA,NA,"GLAND, PITUITARY",NA,"FIXED",NA,NA,NA,NA,NA,NA,"2011-01-09T00:00:00",30
"PDS2014","OM","PDS2014-0164",887,"WEIGHT","Weight","0.0236","g","0.0236",0.0236,"g",NA,NA,"GLAND, THYROID",NA,"FIXED",NA,NA,NA,NA,NA,NA,"2011-01-09T00:00:00",30
"PDS2014","OM","PDS2014-0164",888,"WEIGHT","Weight","0.0779","g","0.0779",0.0779,"g",NA,NA,"GLAND, ADRENAL",NA,NA,NA,NA,NA,NA,NA,NA,"2011-01-09T13:57:19",30
"PDS2014","OM","PDS2014-0164",889,"WEIGHT","Weight","0.6121","g","0.6121",0.6121,"g",NA,NA,"SPLEEN",NA,NA,NA,NA,NA,NA,NA,NA,"2011-01-09T13:54:15",30
"PDS2014","OM","PDS2014-0164",890,"WEIGHT","Weight","0.3303","g","0.3303",0.3303,"g",NA,NA,"THYMUS",NA,NA,NA,NA,NA,NA,NA,NA,"2011-01-09T14:01:52",30
"PDS2014","OM","PDS2014-0165",891,"WEIGHT","Weight","1.8096","g","1.8096",1.8096,"g",NA,NA,"BRAIN",NA,NA,NA,NA,NA,NA,NA,NA,"2011-01-09T15:29:01",30
"PDS2014","OM","PDS2014-0165",892,"WEIGHT","Weight","0.6855","g","0.6855",0.6855,"g",NA,NA,"HEART",NA,NA,NA,NA,NA,NA,NA,NA,"2011-01-09T15:32:17",30
"PDS2014","OM","PDS2014-0165",893,"WEIGHT","Weight","7.337","g","7.337",7.337,"g",NA,NA,"LIVER",NA,NA,NA,NA,NA,NA,NA,NA,"2011-01-09T15:23:48",30
"PDS2014","OM","PDS2014-0165",894,"WEIGHT","Weight","1.7555","g","1.7555",1.7555,"g",NA,NA,"KIDNEY",NA,NA,NA,NA,NA,NA,NA,NA,"2011-01-09T15:27:43",30
"PDS2014","OM","PDS2014-0165",895,"WEIGHT","Weight","0.1107","g","0.1107",0.1107,"g",NA,NA,"OVARY",NA,NA,NA,NA,NA,NA,NA,NA,"2011-01-09T15:28:31",30
"PDS2014","OM","PDS2014-0165",896,"WEIGHT","Weight","0.0121","g","0.0121",0.0121,"g",NA,NA,"GLAND, PITUITARY",NA,"FIXED",NA,NA,NA,NA,NA,NA,"2011-01-09T00:00:00",30
"PDS2014","OM","PDS2014-0165",897,"WEIGHT","Weight","0.0243","g","0.0243",0.0243,"g",NA,NA,"GLAND, THYROID",NA,"FIXED",NA,NA,NA,NA,NA,NA,"2011-01-09T00:00:00",30
"PDS2014","OM","PDS2014-0165",898,"WEIGHT","Weight","0.0913","g","0.0913",0.0913,"g",NA,NA,"GLAND, ADRENAL",NA,NA,NA,NA,NA,NA,NA,NA,"2011-01-09T15:27:22",30
"PDS2014","OM","PDS2014-0165",899,"WEIGHT","Weight","0.4122","g","0.4122",0.4122,"g",NA,NA,"SPLEEN",NA,NA,NA,NA,NA,NA,NA,NA,"2011-01-09T15:19:18",30
"PDS2014","OM","PDS2014-0165",900,"WEIGHT","Weight","0.1653","g","0.1653",0.1653,"g",NA,NA,"THYMUS",NA,NA,NA,NA,NA,NA,NA,NA,"2011-01-09T15:30:21",30
"PDS2014","OM","PDS2014-0166",901,"WEIGHT","Weight","1.9659","g","1.9659",1.9659,"g",NA,NA,"BRAIN",NA,NA,NA,NA,NA,NA,NA,NA,"2011-01-10T12:00:29",31
"PDS2014","OM","PDS2014-0166",902,"WEIGHT","Weight","0.8825","g","0.8825",0.8825,"g",NA,NA,"HEART",NA,NA,NA,NA,NA,NA,NA,NA,"2011-01-10T12:01:23",31
"PDS2014","OM","PDS2014-0166",903,"WEIGHT","Weight","6.8407","g","6.8407",6.8407,"g",NA,NA,"LIVER",NA,NA,NA,NA,NA,NA,NA,NA,"2011-01-10T11:54:38",31
"PDS2014","OM","PDS2014-0166",904,"WEIGHT","Weight","1.7306","g","1.7306",1.7306,"g",NA,NA,"KIDNEY",NA,NA,NA,NA,NA,NA,NA,NA,"2011-01-10T11:58:24",31
"PDS2014","OM","PDS2014-0166",905,"WEIGHT","Weight","0.1358","g","0.1358",0.1358,"g",NA,NA,"OVARY",NA,NA,NA,NA,NA,NA,NA,NA,"2011-01-10T11:58:54",31
"PDS2014","OM","PDS2014-0166",906,"WEIGHT","Weight","0.0146","g","0.0146",0.0146,"g",NA,NA,"GLAND, PITUITARY",NA,"FIXED",NA,NA,NA,NA,NA,NA,"2011-01-10T00:00:00",31
"PDS2014","OM","PDS2014-0166",907,"WEIGHT","Weight","0.0181","g","0.0181",0.0181,"g",NA,NA,"GLAND, THYROID",NA,"FIXED",NA,NA,NA,NA,NA,NA,"2011-01-10T00:00:00",31
"PDS2014","OM","PDS2014-0166",908,"WEIGHT","Weight","0.0815","g","0.0815",0.0815,"g",NA,NA,"GLAND, ADRENAL",NA,NA,NA,NA,NA,NA,NA,NA,"2011-01-10T11:55:25",31
"PDS2014","OM","PDS2014-0166",909,"WEIGHT","Weight","0.5339","g","0.5339",0.5339,"g",NA,NA,"SPLEEN",NA,NA,NA,NA,NA,NA,NA,NA,"2011-01-10T11:55:00",31
"PDS2014","OM","PDS2014-0166",910,"WEIGHT","Weight","0.477","g","0.477",0.477,"g",NA,NA,"THYMUS",NA,NA,NA,NA,NA,NA,NA,NA,"2011-01-10T12:01:10",31
"PDS2014","OM","PDS2014-0167",911,"WEIGHT","Weight","1.6506","g","1.6506",1.6506,"g",NA,NA,"BRAIN",NA,NA,NA,NA,NA,NA,NA,NA,"2011-01-10T15:07:37",31
"PDS2014","OM","PDS2014-0167",912,"WEIGHT","Weight","0.743","g","0.743",0.743,"g",NA,NA,"HEART",NA,NA,NA,NA,NA,NA,NA,NA,"2011-01-10T15:08:40",31
"PDS2014","OM","PDS2014-0167",913,"WEIGHT","Weight","8.2952","g","8.2952",8.2952,"g",NA,NA,"LIVER",NA,NA,NA,NA,NA,NA,NA,NA,"2011-01-10T15:00:55",31
"PDS2014","OM","PDS2014-0167",914,"WEIGHT","Weight","1.8458","g","1.8458",1.8458,"g",NA,NA,"KIDNEY",NA,NA,NA,NA,NA,NA,NA,NA,"2011-01-10T15:06:16",31
"PDS2014","OM","PDS2014-0167",915,"WEIGHT","Weight","0.1089","g","0.1089",0.1089,"g",NA,NA,"OVARY",NA,NA,NA,NA,NA,NA,NA,NA,"2011-01-10T15:05:35",31
"PDS2014","OM","PDS2014-0167",916,"WEIGHT","Weight","0.0108","g","0.0108",0.0108,"g",NA,NA,"GLAND, PITUITARY",NA,"FIXED",NA,NA,NA,NA,NA,NA,"2011-01-10T00:00:00",31
"PDS2014","OM","PDS2014-0167",917,"WEIGHT","Weight","0.0112","g","0.0112",0.0112,"g",NA,NA,"GLAND, THYROID",NA,"FIXED",NA,NA,NA,NA,NA,NA,"2011-01-10T00:00:00",31
"PDS2014","OM","PDS2014-0167",918,"WEIGHT","Weight","0.0963","g","0.0963",0.0963,"g",NA,NA,"GLAND, ADRENAL",NA,NA,NA,NA,NA,NA,NA,NA,"2011-01-10T15:05:31",31
"PDS2014","OM","PDS2014-0167",919,"WEIGHT","Weight","0.357","g","0.357",0.357,"g",NA,NA,"SPLEEN",NA,NA,NA,NA,NA,NA,NA,NA,"2011-01-10T15:02:46",31
"PDS2014","OM","PDS2014-0167",920,"WEIGHT","Weight","0.1672","g","0.1672",0.1672,"g",NA,NA,"THYMUS",NA,NA,NA,NA,NA,NA,NA,NA,"2011-01-10T15:08:15",31
"PDS2014","OM","PDS2014-0168",921,"WEIGHT","Weight","1.9152","g","1.9152",1.9152,"g",NA,NA,"BRAIN",NA,NA,NA,NA,NA,NA,NA,NA,"2011-01-10T11:58:29",31
"PDS2014","OM","PDS2014-0168",922,"WEIGHT","Weight","0.9155","g","0.9155",0.9155,"g",NA,NA,"HEART",NA,NA,NA,NA,NA,NA,NA,NA,"2011-01-10T11:59:31",31
"PDS2014","OM","PDS2014-0168",923,"WEIGHT","Weight","6.882","g","6.882",6.882,"g",NA,NA,"LIVER",NA,NA,NA,NA,NA,NA,NA,NA,"2011-01-10T11:53:40",31
"PDS2014","OM","PDS2014-0168",924,"WEIGHT","Weight","1.953","g","1.953",1.953,"g",NA,NA,"KIDNEY",NA,NA,NA,NA,NA,NA,NA,NA,"2011-01-10T11:56:58",31
"PDS2014","OM","PDS2014-0168",925,"WEIGHT","Weight","0.1144","g","0.1144",0.1144,"g",NA,NA,"OVARY",NA,NA,NA,NA,NA,NA,NA,NA,"2011-01-10T11:57:35",31
"PDS2014","OM","PDS2014-0168",926,"WEIGHT","Weight","0.0193","g","0.0193",0.0193,"g",NA,NA,"GLAND, PITUITARY",NA,"FIXED",NA,NA,NA,NA,NA,NA,"2011-01-10T00:00:00",31
"PDS2014","OM","PDS2014-0168",927,"WEIGHT","Weight","0.024","g","0.024",0.024,"g",NA,NA,"GLAND, THYROID",NA,"FIXED",NA,NA,NA,NA,NA,NA,"2011-01-10T00:00:00",31
"PDS2014","OM","PDS2014-0168",928,"WEIGHT","Weight","0.1024","g","0.1024",0.1024,"g",NA,NA,"GLAND, ADRENAL",NA,NA,NA,NA,NA,NA,NA,NA,"2011-01-10T11:55:32",31
"PDS2014","OM","PDS2014-0168",929,"WEIGHT","Weight","0.4807","g","0.4807",0.4807,"g",NA,NA,"SPLEEN",NA,NA,NA,NA,NA,NA,NA,NA,"2011-01-10T11:54:00",31
"PDS2014","OM","PDS2014-0168",930,"WEIGHT","Weight","0.3794","g","0.3794",0.3794,"g",NA,NA,"THYMUS",NA,NA,NA,NA,NA,NA,NA,NA,"2011-01-10T11:59:12",31
"PDS2014","OM","PDS2014-0169",931,"WEIGHT","Weight","1.8693","g","1.8693",1.8693,"g",NA,NA,"BRAIN",NA,NA,NA,NA,NA,NA,NA,NA,"2011-01-10T15:01:38",31
"PDS2014","OM","PDS2014-0169",932,"WEIGHT","Weight","0.8305","g","0.8305",0.8305,"g",NA,NA,"HEART",NA,NA,NA,NA,NA,NA,NA,NA,"2011-01-10T15:02:37",31
"PDS2014","OM","PDS2014-0169",933,"WEIGHT","Weight","8.0649","g","8.0649",8.0649,"g",NA,NA,"LIVER",NA,NA,NA,NA,NA,NA,NA,NA,"2011-01-10T14:56:56",31
"PDS2014","OM","PDS2014-0169",934,"WEIGHT","Weight","1.6857","g","1.6857",1.6857,"g",NA,NA,"KIDNEY",NA,NA,NA,NA,NA,NA,NA,NA,"2011-01-10T15:00:43",31
"PDS2014","OM","PDS2014-0169",935,"WEIGHT","Weight","0.076","g","0.076",0.076,"g",NA,NA,"OVARY",NA,NA,NA,NA,NA,NA,NA,NA,"2011-01-10T15:01:06",31
"PDS2014","OM","PDS2014-0169",936,"WEIGHT","Weight","0.0117","g","0.0117",0.0117,"g",NA,NA,"GLAND, PITUITARY",NA,"FIXED",NA,NA,NA,NA,NA,NA,"2011-01-10T00:00:00",31
"PDS2014","OM","PDS2014-0169",937,"WEIGHT","Weight","0.0158","g","0.0158",0.0158,"g",NA,NA,"GLAND, THYROID",NA,"FIXED",NA,NA,NA,NA,NA,NA,"2011-01-10T00:00:00",31
"PDS2014","OM","PDS2014-0169",938,"WEIGHT","Weight","0.0838","g","0.0838",0.0838,"g",NA,NA,"GLAND, ADRENAL",NA,NA,NA,NA,NA,NA,NA,NA,"2011-01-10T14:59:46",31
"PDS2014","OM","PDS2014-0169",939,"WEIGHT","Weight","0.505","g","0.505",0.505,"g",NA,NA,"SPLEEN",NA,NA,NA,NA,NA,NA,NA,NA,"2011-01-10T14:58:14",31
"PDS2014","OM","PDS2014-0169",940,"WEIGHT","Weight","0.4814","g","0.4814",0.4814,"g",NA,NA,"THYMUS",NA,NA,NA,NA,NA,NA,NA,NA,"2011-01-10T15:02:15",31
"PDS2014","OM","PDS2014-0170",941,"WEIGHT","Weight",NA,NA,NA,NA,NA,"NOT DONE","perfusion animal","BRAIN",NA,NA,NA,NA,NA,NA,NA,NA,NA,NA
"PDS2014","OM","PDS2014-0170",942,"WEIGHT","Weight",NA,NA,NA,NA,NA,"NOT DONE","perfusion animal","HEART",NA,NA,NA,NA,NA,NA,NA,NA,NA,NA
"PDS2014","OM","PDS2014-0170",943,"WEIGHT","Weight",NA,NA,NA,NA,NA,"NOT DONE","perfusion animal","LIVER",NA,NA,NA,NA,NA,NA,NA,NA,NA,NA
"PDS2014","OM","PDS2014-0170",944,"WEIGHT","Weight",NA,NA,NA,NA,NA,"NOT DONE","perfusion animal","KIDNEY",NA,NA,NA,NA,NA,NA,NA,NA,NA,NA
"PDS2014","OM","PDS2014-0170",945,"WEIGHT","Weight",NA,NA,NA,NA,NA,"NOT DONE","perfusion animal","OVARY",NA,NA,NA,NA,NA,NA,NA,NA,NA,NA
"PDS2014","OM","PDS2014-0170",946,"WEIGHT","Weight",NA,NA,NA,NA,NA,"NOT DONE","perfusion animal","GLAND, PITUITARY",NA,NA,NA,NA,NA,NA,NA,NA,NA,NA
"PDS2014","OM","PDS2014-0170",947,"WEIGHT","Weight",NA,NA,NA,NA,NA,"NOT DONE","perfusion animal","GLAND, THYROID",NA,NA,NA,NA,NA,NA,NA,NA,NA,NA
"PDS2014","OM","PDS2014-0170",948,"WEIGHT","Weight",NA,NA,NA,NA,NA,"NOT DONE","perfusion animal","GLAND, ADRENAL",NA,NA,NA,NA,NA,NA,NA,NA,NA,NA
"PDS2014","OM","PDS2014-0170",949,"WEIGHT","Weight",NA,NA,NA,NA,NA,"NOT DONE","perfusion animal","SPLEEN",NA,NA,NA,NA,NA,NA,NA,NA,NA,NA
"PDS2014","OM","PDS2014-0170",950,"WEIGHT","Weight",NA,NA,NA,NA,NA,"NOT DONE","perfusion animal","THYMUS",NA,NA,NA,NA,NA,NA,NA,NA,NA,NA
"PDS2014","OM","PDS2014-0171",951,"WEIGHT","Weight","2.1368","g","2.1368",2.1368,"g",NA,NA,"BRAIN",NA,NA,NA,NA,NA,NA,NA,NA,"2011-02-06T09:30:36",58
"PDS2014","OM","PDS2014-0171",952,"WEIGHT","Weight","1.1791","g","1.1791",1.1791,"g",NA,NA,"HEART",NA,NA,NA,NA,NA,NA,NA,NA,"2011-02-06T09:31:09",58
"PDS2014","OM","PDS2014-0171",953,"WEIGHT","Weight","8.2193","g","8.2193",8.2193,"g",NA,NA,"LIVER",NA,NA,NA,NA,NA,NA,NA,NA,"2011-02-06T09:26:48",58
"PDS2014","OM","PDS2014-0171",954,"WEIGHT","Weight","2.0503","g","2.0503",2.0503,"g",NA,NA,"KIDNEY",NA,NA,NA,NA,NA,NA,NA,NA,"2011-02-06T09:29:12",58
"PDS2014","OM","PDS2014-0171",955,"WEIGHT","Weight","0.1363","g","0.1363",0.1363,"g",NA,NA,"OVARY",NA,NA,NA,NA,NA,NA,NA,NA,"2011-02-06T09:29:36",58
"PDS2014","OM","PDS2014-0171",956,"WEIGHT","Weight","0.021","g","0.021",0.021,"g",NA,NA,"GLAND, PITUITARY",NA,"FIXED",NA,NA,NA,NA,NA,NA,"2011-02-06T00:00:00",58
"PDS2014","OM","PDS2014-0171",957,"WEIGHT","Weight","0.032","g","0.032",0.032,"g",NA,NA,"GLAND, THYROID",NA,"FIXED",NA,NA,NA,NA,NA,NA,"2011-02-06T00:00:00",58
"PDS2014","OM","PDS2014-0171",958,"WEIGHT","Weight","0.0894","g","0.0894",0.0894,"g",NA,NA,"GLAND, ADRENAL",NA,NA,NA,NA,NA,NA,NA,NA,"2011-02-06T09:28:13",58
"PDS2014","OM","PDS2014-0171",959,"WEIGHT","Weight","0.5726","g","0.5726",0.5726,"g",NA,NA,"SPLEEN",NA,NA,NA,NA,NA,NA,NA,NA,"2011-02-06T09:25:33",58
"PDS2014","OM","PDS2014-0171",960,"WEIGHT","Weight","0.4641","g","0.4641",0.4641,"g",NA,NA,"THYMUS",NA,NA,NA,NA,NA,NA,NA,NA,"2011-02-06T09:30:56",58
"PDS2014","OM","PDS2014-0172",961,"WEIGHT","Weight","2.0161","g","2.0161",2.0161,"g",NA,NA,"BRAIN",NA,NA,NA,NA,NA,NA,NA,NA,"2011-02-06T10:49:14",58
"PDS2014","OM","PDS2014-0172",962,"WEIGHT","Weight","1.0004","g","1.0004",1.0004,"g",NA,NA,"HEART",NA,NA,NA,NA,NA,NA,NA,NA,"2011-02-06T10:50:11",58
"PDS2014","OM","PDS2014-0172",963,"WEIGHT","Weight","7.7022","g","7.7022",7.7022,"g",NA,NA,"LIVER",NA,NA,NA,NA,NA,NA,NA,NA,"2011-02-06T10:46:23",58
"PDS2014","OM","PDS2014-0172",964,"WEIGHT","Weight","1.8891","g","1.8891",1.8891,"g",NA,NA,"KIDNEY",NA,NA,NA,NA,NA,NA,NA,NA,"2011-02-06T10:47:43",58
"PDS2014","OM","PDS2014-0172",965,"WEIGHT","Weight","0.1188","g","0.1188",0.1188,"g",NA,NA,"OVARY",NA,NA,NA,NA,NA,NA,NA,NA,"2011-02-06T10:48:03",58
"PDS2014","OM","PDS2014-0172",966,"WEIGHT","Weight","0.0183","g","0.0183",0.0183,"g",NA,NA,"GLAND, PITUITARY",NA,"FIXED",NA,NA,NA,NA,NA,NA,"2011-02-06T00:00:00",58
"PDS2014","OM","PDS2014-0172",967,"WEIGHT","Weight","0.0294","g","0.0294",0.0294,"g",NA,NA,"GLAND, THYROID",NA,"FIXED",NA,NA,NA,NA,NA,NA,"2011-02-06T00:00:00",58
"PDS2014","OM","PDS2014-0172",968,"WEIGHT","Weight","0.0906","g","0.0906",0.0906,"g",NA,NA,"GLAND, ADRENAL",NA,NA,NA,NA,NA,NA,NA,NA,"2011-02-06T10:47:27",58
"PDS2014","OM","PDS2014-0172",969,"WEIGHT","Weight","0.6076","g","0.6076",0.6076,"g",NA,NA,"SPLEEN",NA,NA,NA,NA,NA,NA,NA,NA,"2011-02-06T10:45:24",58
"PDS2014","OM","PDS2014-0172",970,"WEIGHT","Weight","0.4528","g","0.4528",0.4528,"g",NA,NA,"THYMUS",NA,NA,NA,NA,NA,NA,NA,NA,"2011-02-06T10:50:02",58
"PDS2014","OM","PDS2014-0173",971,"WEIGHT","Weight","1.937","g","1.937",1.937,"g",NA,NA,"BRAIN",NA,NA,NA,NA,NA,NA,NA,NA,"2011-02-06T09:07:32",58
"PDS2014","OM","PDS2014-0173",972,"WEIGHT","Weight","0.9452","g","0.9452",0.9452,"g",NA,NA,"HEART",NA,NA,NA,NA,NA,NA,NA,NA,"2011-02-06T09:14:42",58
"PDS2014","OM","PDS2014-0173",973,"WEIGHT","Weight","6.459","g","6.459",6.459,"g",NA,NA,"LIVER",NA,NA,NA,NA,NA,NA,NA,NA,"2011-02-06T09:10:27",58
"PDS2014","OM","PDS2014-0173",974,"WEIGHT","Weight","1.6215","g","1.6215",1.6215,"g",NA,NA,"KIDNEY",NA,NA,NA,NA,NA,NA,NA,NA,"2011-02-06T09:12:58",58
"PDS2014","OM","PDS2014-0173",975,"WEIGHT","Weight","0.0783","g","0.0783",0.0783,"g",NA,NA,"OVARY",NA,NA,NA,NA,NA,NA,NA,NA,"2011-02-06T09:13:37",58
"PDS2014","OM","PDS2014-0173",976,"WEIGHT","Weight","0.0174","g","0.0174",0.0174,"g",NA,NA,"GLAND, PITUITARY",NA,"FIXED",NA,NA,NA,NA,NA,NA,"2011-02-06T00:00:00",58
"PDS2014","OM","PDS2014-0173",977,"WEIGHT","Weight","0.0297","g","0.0297",0.0297,"g",NA,NA,"GLAND, THYROID",NA,"FIXED",NA,NA,NA,NA,NA,NA,"2011-02-06T00:00:00",58
"PDS2014","OM","PDS2014-0173",978,"WEIGHT","Weight","0.1013","g","0.1013",0.1013,"g",NA,NA,"GLAND, ADRENAL",NA,NA,NA,NA,NA,NA,NA,NA,"2011-02-06T09:12:16",58
"PDS2014","OM","PDS2014-0173",979,"WEIGHT","Weight","0.6095","g","0.6095",0.6095,"g",NA,NA,"SPLEEN",NA,NA,NA,NA,NA,NA,NA,NA,"2011-02-06T09:09:03",58
"PDS2014","OM","PDS2014-0173",980,"WEIGHT","Weight","0.3078","g","0.3078",0.3078,"g",NA,NA,"THYMUS",NA,NA,NA,NA,NA,NA,NA,NA,"2011-02-06T09:14:23",58
"PDS2014","OM","PDS2014-0174",981,"WEIGHT","Weight","1.8839","g","1.8839",1.8839,"g",NA,NA,"BRAIN",NA,NA,NA,NA,NA,NA,NA,NA,"2011-02-06T09:57:32",58
"PDS2014","OM","PDS2014-0174",982,"WEIGHT","Weight","0.7759","g","0.7759",0.7759,"g",NA,NA,"HEART",NA,NA,NA,NA,NA,NA,NA,NA,"2011-02-06T10:04:34",58
"PDS2014","OM","PDS2014-0174",983,"WEIGHT","Weight","6.152","g","6.152",6.152,"g",NA,NA,"LIVER",NA,NA,NA,NA,NA,NA,NA,NA,"2011-02-06T09:59:22",58
"PDS2014","OM","PDS2014-0174",984,"WEIGHT","Weight","1.4978","g","1.4978",1.4978,"g",NA,NA,"KIDNEY",NA,NA,NA,NA,NA,NA,NA,NA,"2011-02-06T10:02:58",58
"PDS2014","OM","PDS2014-0174",985,"WEIGHT","Weight","0.1029","g","0.1029",0.1029,"g",NA,NA,"OVARY",NA,NA,NA,NA,NA,NA,NA,NA,"2011-02-06T10:04:00",58
"PDS2014","OM","PDS2014-0174",986,"WEIGHT","Weight","0.0161","g","0.0161",0.0161,"g",NA,NA,"GLAND, PITUITARY",NA,"FIXED",NA,NA,NA,NA,NA,NA,"2011-02-06T00:00:00",58
"PDS2014","OM","PDS2014-0174",987,"WEIGHT","Weight","0.0341","g","0.0341",0.0341,"g",NA,NA,"GLAND, THYROID",NA,"FIXED",NA,NA,NA,NA,NA,NA,"2011-02-06T00:00:00",58
"PDS2014","OM","PDS2014-0174",988,"WEIGHT","Weight","0.0755","g","0.0755",0.0755,"g",NA,NA,"GLAND, ADRENAL",NA,NA,NA,NA,NA,NA,NA,NA,"2011-02-06T10:01:16",58
"PDS2014","OM","PDS2014-0174",989,"WEIGHT","Weight","0.5272","g","0.5272",0.5272,"g",NA,NA,"SPLEEN",NA,NA,NA,NA,NA,NA,NA,NA,"2011-02-06T09:58:46",58
"PDS2014","OM","PDS2014-0174",990,"WEIGHT","Weight","0.3122","g","0.3122",0.3122,"g",NA,NA,"THYMUS",NA,NA,NA,NA,NA,NA,NA,NA,"2011-02-06T10:04:21",58
"PDS2014","OM","PDS2014-0175",991,"WEIGHT","Weight","1.9398","g","1.9398",1.9398,"g",NA,NA,"BRAIN",NA,NA,NA,NA,NA,NA,NA,NA,"2011-02-06T11:23:40",58
"PDS2014","OM","PDS2014-0175",992,"WEIGHT","Weight","0.6996","g","0.6996",0.6996,"g",NA,NA,"HEART",NA,NA,NA,NA,NA,NA,NA,NA,"2011-02-06T11:30:45",58
"PDS2014","OM","PDS2014-0175",993,"WEIGHT","Weight","5.7944","g","5.7944",5.7944,"g",NA,NA,"LIVER",NA,NA,NA,NA,NA,NA,NA,NA,"2011-02-06T11:25:21",58
"PDS2014","OM","PDS2014-0175",994,"WEIGHT","Weight","1.7293","g","1.7293",1.7293,"g",NA,NA,"KIDNEY",NA,NA,NA,NA,NA,NA,NA,NA,"2011-02-06T11:28:38",58
"PDS2014","OM","PDS2014-0175",995,"WEIGHT","Weight","0.1004","g","0.1004",0.1004,"g",NA,NA,"OVARY",NA,NA,NA,NA,NA,NA,NA,NA,"2011-02-06T11:29:23",58
"PDS2014","OM","PDS2014-0175",996,"WEIGHT","Weight","0.017","g","0.017",0.017,"g",NA,NA,"GLAND, PITUITARY",NA,"FIXED",NA,NA,NA,NA,NA,NA,"2011-02-06T00:00:00",58
"PDS2014","OM","PDS2014-0175",997,"WEIGHT","Weight","0.0327","g","0.0327",0.0327,"g",NA,NA,"GLAND, THYROID",NA,"FIXED",NA,NA,NA,NA,NA,NA,"2011-02-06T00:00:00",58
"PDS2014","OM","PDS2014-0175",998,"WEIGHT","Weight","0.0734","g","0.0734",0.0734,"g",NA,NA,"GLAND, ADRENAL",NA,NA,NA,NA,NA,NA,NA,NA,"2011-02-06T11:28:02",58
"PDS2014","OM","PDS2014-0175",999,"WEIGHT","Weight","0.5095","g","0.5095",0.5095,"g",NA,NA,"SPLEEN",NA,NA,NA,NA,NA,NA,NA,NA,"2011-02-06T11:24:46",58
"PDS2014","OM","PDS2014-0175",1000,"WEIGHT","Weight","0.3161","g","0.3161",0.3161,"g",NA,NA,"THYMUS",NA,NA,NA,NA,NA,NA,NA,NA,"2011-02-06T11:30:16",58
"PDS2014","OM","PDS2014-0001",1001,"OWBW","Organ to Body Weight Ratio","0.5050","%","0.5050",0.505,"%",NA,NA,"BRAIN",NA,NA,NA,NA,NA,NA,NA,NA,"2011-01-09T09:55:54",30
"PDS2014","OM","PDS2014-0001",1002,"OWBW","Organ to Body Weight Ratio","0.3183","%","0.3183",0.3183,"%",NA,NA,"HEART",NA,NA,NA,NA,NA,NA,NA,NA,"2011-01-09T09:56:21",30
"PDS2014","OM","PDS2014-0001",1003,"OWBW","Organ to Body Weight Ratio","2.1320","%","2.1320",2.132,"%",NA,NA,"LIVER",NA,NA,NA,NA,NA,NA,NA,NA,"2011-01-09T09:47:15",30
"PDS2014","OM","PDS2014-0001",1004,"OWBW","Organ to Body Weight Ratio","0.7786","%","0.7786",0.7786,"%",NA,NA,"KIDNEY",NA,NA,NA,NA,NA,NA,NA,NA,"2011-01-09T09:55:18",30
"PDS2014","OM","PDS2014-0001",1005,"OWBW","Organ to Body Weight Ratio","0.9883","%","0.9883",0.9883,"%",NA,NA,"TESTIS",NA,NA,NA,NA,NA,NA,NA,NA,"2011-01-09T09:55:30",30
"PDS2014","OM","PDS2014-0001",1006,"OWBW","Organ to Body Weight Ratio","0.0036","%","0.0036",0.0036,"%",NA,NA,"GLAND, PITUITARY",NA,NA,NA,NA,NA,NA,NA,NA,"2011-01-09T00:00:00",30
"PDS2014","OM","PDS2014-0001",1007,"OWBW","Organ to Body Weight Ratio","0.0065","%","0.0065",0.0065,"%",NA,NA,"GLAND, THYROID",NA,NA,NA,NA,NA,NA,NA,NA,"2011-01-09T00:00:00",30
"PDS2014","OM","PDS2014-0001",1008,"OWBW","Organ to Body Weight Ratio","0.0213","%","0.0213",0.0213,"%",NA,NA,"GLAND, ADRENAL",NA,NA,NA,NA,NA,NA,NA,NA,"2011-01-09T09:54:55",30
"PDS2014","OM","PDS2014-0001",1009,"OWBW","Organ to Body Weight Ratio","0.1356","%","0.1356",0.1356,"%",NA,NA,"SPLEEN",NA,NA,NA,NA,NA,NA,NA,NA,"2011-01-09T09:45:51",30
"PDS2014","OM","PDS2014-0001",1010,"OWBW","Organ to Body Weight Ratio","0.0929","%","0.0929",0.0929,"%",NA,NA,"THYMUS",NA,NA,NA,NA,NA,NA,NA,NA,"2011-01-09T09:56:12",30
"PDS2014","OM","PDS2014-0002",1011,"OWBW","Organ to Body Weight Ratio","0.5420","%","0.5420",0.542,"%",NA,NA,"BRAIN",NA,NA,NA,NA,NA,NA,NA,NA,"2011-01-09T11:32:58",30
"PDS2014","OM","PDS2014-0002",1012,"OWBW","Organ to Body Weight Ratio","0.3770","%","0.3770",0.377,"%",NA,NA,"HEART",NA,NA,NA,NA,NA,NA,NA,NA,"2011-01-09T11:34:01",30
"PDS2014","OM","PDS2014-0002",1013,"OWBW","Organ to Body Weight Ratio","2.5273","%","2.5273",2.5273,"%",NA,NA,"LIVER",NA,NA,NA,NA,NA,NA,NA,NA,"2011-01-09T11:29:13",30
"PDS2014","OM","PDS2014-0002",1014,"OWBW","Organ to Body Weight Ratio","0.7196","%","0.7196",0.7196,"%",NA,NA,"KIDNEY",NA,NA,NA,NA,NA,NA,NA,NA,"2011-01-09T11:31:28",30
"PDS2014","OM","PDS2014-0002",1015,"OWBW","Organ to Body Weight Ratio","0.9346","%","0.9346",0.9346,"%",NA,NA,"TESTIS",NA,NA,NA,NA,NA,NA,NA,NA,"2011-01-09T11:31:44",30
"PDS2014","OM","PDS2014-0002",1016,"OWBW","Organ to Body Weight Ratio","0.0035","%","0.0035",0.0035,"%",NA,NA,"GLAND, PITUITARY",NA,NA,NA,NA,NA,NA,NA,NA,"2011-01-09T00:00:00",30
"PDS2014","OM","PDS2014-0002",1017,"OWBW","Organ to Body Weight Ratio","0.0045","%","0.0045",0.0045,"%",NA,NA,"GLAND, THYROID",NA,NA,NA,NA,NA,NA,NA,NA,"2011-01-09T00:00:00",30
"PDS2014","OM","PDS2014-0002",1018,"OWBW","Organ to Body Weight Ratio","0.0197","%","0.0197",0.0197,"%",NA,NA,"GLAND, ADRENAL",NA,NA,NA,NA,NA,NA,NA,NA,"2011-01-09T11:31:06",30
"PDS2014","OM","PDS2014-0002",1019,"OWBW","Organ to Body Weight Ratio","0.1796","%","0.1796",0.1796,"%",NA,NA,"SPLEEN",NA,NA,NA,NA,NA,NA,NA,NA,"2011-01-09T11:28:16",30
"PDS2014","OM","PDS2014-0002",1020,"OWBW","Organ to Body Weight Ratio","0.1502","%","0.1502",0.1502,"%",NA,NA,"THYMUS",NA,NA,NA,NA,NA,NA,NA,NA,"2011-01-09T11:33:51",30
"PDS2014","OM","PDS2014-0003",1021,"OWBW","Organ to Body Weight Ratio","0.4613","%","0.4613",0.4613,"%",NA,NA,"BRAIN",NA,NA,NA,NA,NA,NA,NA,NA,"2011-01-09T14:11:43",30
"PDS2014","OM","PDS2014-0003",1022,"OWBW","Organ to Body Weight Ratio","0.3385","%","0.3385",0.3385,"%",NA,NA,"HEART",NA,NA,NA,NA,NA,NA,NA,NA,"2011-01-09T14:13:04",30
"PDS2014","OM","PDS2014-0003",1023,"OWBW","Organ to Body Weight Ratio","2.7391","%","2.7391",2.7391,"%",NA,NA,"LIVER",NA,NA,NA,NA,NA,NA,NA,NA,"2011-01-09T14:07:14",30
"PDS2014","OM","PDS2014-0003",1024,"OWBW","Organ to Body Weight Ratio","0.7190","%","0.7190",0.719,"%",NA,NA,"KIDNEY",NA,NA,NA,NA,NA,NA,NA,NA,"2011-01-09T14:09:42",30
"PDS2014","OM","PDS2014-0003",1025,"OWBW","Organ to Body Weight Ratio","0.7177","%","0.7177",0.7177,"%",NA,NA,"TESTIS",NA,NA,NA,NA,NA,NA,NA,NA,"2011-01-09T14:09:57",30
"PDS2014","OM","PDS2014-0003",1026,"OWBW","Organ to Body Weight Ratio","0.0034","%","0.0034",0.0034,"%",NA,NA,"GLAND, PITUITARY",NA,NA,NA,NA,NA,NA,NA,NA,"2011-01-09T00:00:00",30
"PDS2014","OM","PDS2014-0003",1027,"OWBW","Organ to Body Weight Ratio","0.0097","%","0.0097",0.0097,"%",NA,NA,"GLAND, THYROID",NA,NA,NA,NA,NA,NA,NA,NA,"2011-01-09T00:00:00",30
"PDS2014","OM","PDS2014-0003",1028,"OWBW","Organ to Body Weight Ratio","0.0177","%","0.0177",0.0177,"%",NA,NA,"GLAND, ADRENAL",NA,NA,NA,NA,NA,NA,NA,NA,"2011-01-09T14:09:21",30
"PDS2014","OM","PDS2014-0003",1029,"OWBW","Organ to Body Weight Ratio","0.1580","%","0.1580",0.158,"%",NA,NA,"SPLEEN",NA,NA,NA,NA,NA,NA,NA,NA,"2011-01-09T14:05:48",30
"PDS2014","OM","PDS2014-0003",1030,"OWBW","Organ to Body Weight Ratio","0.1002","%","0.1002",0.1002,"%",NA,NA,"THYMUS",NA,NA,NA,NA,NA,NA,NA,NA,"2011-01-09T14:12:48",30
"PDS2014","OM","PDS2014-0004",1031,"OWBW","Organ to Body Weight Ratio","0.5102","%","0.5102",0.5102,"%",NA,NA,"BRAIN",NA,NA,NA,NA,NA,NA,NA,NA,"2011-01-09T11:07:06",30
"PDS2014","OM","PDS2014-0004",1032,"OWBW","Organ to Body Weight Ratio","0.3496","%","0.3496",0.3496,"%",NA,NA,"HEART",NA,NA,NA,NA,NA,NA,NA,NA,"2011-01-09T11:08:33",30
"PDS2014","OM","PDS2014-0004",1033,"OWBW","Organ to Body Weight Ratio","2.4449","%","2.4449",2.4449,"%",NA,NA,"LIVER",NA,NA,NA,NA,NA,NA,NA,NA,"2011-01-09T11:01:02",30
"PDS2014","OM","PDS2014-0004",1034,"OWBW","Organ to Body Weight Ratio","0.7277","%","0.7277",0.7277,"%",NA,NA,"KIDNEY",NA,NA,NA,NA,NA,NA,NA,NA,"2011-01-09T11:04:54",30
"PDS2014","OM","PDS2014-0004",1035,"OWBW","Organ to Body Weight Ratio","0.8176","%","0.8176",0.8176,"%",NA,NA,"TESTIS",NA,NA,NA,NA,NA,NA,NA,NA,"2011-01-09T11:05:15",30
"PDS2014","OM","PDS2014-0004",1036,"OWBW","Organ to Body Weight Ratio","0.0043","%","0.0043",0.0043,"%",NA,NA,"GLAND, PITUITARY",NA,NA,NA,NA,NA,NA,NA,NA,"2011-01-09T00:00:00",30
"PDS2014","OM","PDS2014-0004",1037,"OWBW","Organ to Body Weight Ratio","0.0060","%","0.0060",0.006,"%",NA,NA,"GLAND, THYROID",NA,NA,NA,NA,NA,NA,NA,NA,"2011-01-09T00:00:00",30
"PDS2014","OM","PDS2014-0004",1038,"OWBW","Organ to Body Weight Ratio","0.0197","%","0.0197",0.0197,"%",NA,NA,"GLAND, ADRENAL",NA,NA,NA,NA,NA,NA,NA,NA,"2011-01-09T11:04:34",30
"PDS2014","OM","PDS2014-0004",1039,"OWBW","Organ to Body Weight Ratio","0.1511","%","0.1511",0.1511,"%",NA,NA,"SPLEEN",NA,NA,NA,NA,NA,NA,NA,NA,"2011-01-09T10:59:18",30
"PDS2014","OM","PDS2014-0004",1040,"OWBW","Organ to Body Weight Ratio","0.1100","%","0.1100",0.11,"%",NA,NA,"THYMUS",NA,NA,NA,NA,NA,NA,NA,NA,"2011-01-09T11:08:18",30
"PDS2014","OM","PDS2014-0005",1041,"OWBW","Organ to Body Weight Ratio","0.5373","%","0.5373",0.5373,"%",NA,NA,"BRAIN",NA,NA,NA,NA,NA,NA,NA,NA,"2011-01-09T14:18:48",30
"PDS2014","OM","PDS2014-0005",1042,"OWBW","Organ to Body Weight Ratio","0.3634","%","0.3634",0.3634,"%",NA,NA,"HEART",NA,NA,NA,NA,NA,NA,NA,NA,"2011-01-09T14:20:12",30
"PDS2014","OM","PDS2014-0005",1043,"OWBW","Organ to Body Weight Ratio","2.4033","%","2.4033",2.4033,"%",NA,NA,"LIVER",NA,NA,NA,NA,NA,NA,NA,NA,"2011-01-09T14:13:03",30
"PDS2014","OM","PDS2014-0005",1044,"OWBW","Organ to Body Weight Ratio","0.7194","%","0.7194",0.7194,"%",NA,NA,"KIDNEY",NA,NA,NA,NA,NA,NA,NA,NA,"2011-01-09T14:15:29",30
"PDS2014","OM","PDS2014-0005",1045,"OWBW","Organ to Body Weight Ratio","0.8387","%","0.8387",0.8387,"%",NA,NA,"TESTIS",NA,NA,NA,NA,NA,NA,NA,NA,"2011-01-09T14:15:46",30
"PDS2014","OM","PDS2014-0005",1046,"OWBW","Organ to Body Weight Ratio","0.0040","%","0.0040",0.004,"%",NA,NA,"GLAND, PITUITARY",NA,NA,NA,NA,NA,NA,NA,NA,"2011-01-09T00:00:00",30
"PDS2014","OM","PDS2014-0005",1047,"OWBW","Organ to Body Weight Ratio","0.0063","%","0.0063",0.0063,"%",NA,NA,"GLAND, THYROID",NA,NA,NA,NA,NA,NA,NA,NA,"2011-01-09T00:00:00",30
"PDS2014","OM","PDS2014-0005",1048,"OWBW","Organ to Body Weight Ratio","0.0176","%","0.0176",0.0176,"%",NA,NA,"GLAND, ADRENAL",NA,NA,NA,NA,NA,NA,NA,NA,"2011-01-09T14:15:16",30
"PDS2014","OM","PDS2014-0005",1049,"OWBW","Organ to Body Weight Ratio","0.1657","%","0.1657",0.1657,"%",NA,NA,"SPLEEN",NA,NA,NA,NA,NA,NA,NA,NA,"2011-01-09T14:11:10",30
"PDS2014","OM","PDS2014-0005",1050,"OWBW","Organ to Body Weight Ratio","0.1335","%","0.1335",0.1335,"%",NA,NA,"THYMUS",NA,NA,NA,NA,NA,NA,NA,NA,"2011-01-09T14:19:57",30
"PDS2014","OM","PDS2014-0006",1051,"OWBW","Organ to Body Weight Ratio","0.6088","%","0.6088",0.6088,"%",NA,NA,"BRAIN",NA,NA,NA,NA,NA,NA,NA,NA,"2011-01-10T10:27:42",31
"PDS2014","OM","PDS2014-0006",1052,"OWBW","Organ to Body Weight Ratio","0.4001","%","0.4001",0.4001,"%",NA,NA,"HEART",NA,NA,NA,NA,NA,NA,NA,NA,"2011-01-10T10:28:14",31
"PDS2014","OM","PDS2014-0006",1053,"OWBW","Organ to Body Weight Ratio","2.2611","%","2.2611",2.2611,"%",NA,NA,"LIVER",NA,NA,NA,NA,NA,NA,NA,NA,"2011-01-10T10:18:43",31
"PDS2014","OM","PDS2014-0006",1054,"OWBW","Organ to Body Weight Ratio","0.7729","%","0.7729",0.7729,"%",NA,NA,"KIDNEY",NA,NA,NA,NA,NA,NA,NA,NA,"2011-01-10T10:26:23",31
"PDS2014","OM","PDS2014-0006",1055,"OWBW","Organ to Body Weight Ratio","1.0443","%","1.0443",1.0443,"%",NA,NA,"TESTIS",NA,NA,NA,NA,NA,NA,NA,NA,"2011-01-10T10:26:43",31
"PDS2014","OM","PDS2014-0006",1056,"OWBW","Organ to Body Weight Ratio","0.0026","%","0.0026",0.0026,"%",NA,NA,"GLAND, PITUITARY",NA,NA,NA,NA,NA,NA,NA,NA,"2011-01-10T00:00:00",31
"PDS2014","OM","PDS2014-0006",1057,"OWBW","Organ to Body Weight Ratio","0.0046","%","0.0046",0.0046,"%",NA,NA,"GLAND, THYROID",NA,NA,NA,NA,NA,NA,NA,NA,"2011-01-10T00:00:00",31
"PDS2014","OM","PDS2014-0006",1058,"OWBW","Organ to Body Weight Ratio","0.0227","%","0.0227",0.0227,"%",NA,NA,"GLAND, ADRENAL",NA,NA,NA,NA,NA,NA,NA,NA,"2011-01-10T10:25:45",31
"PDS2014","OM","PDS2014-0006",1059,"OWBW","Organ to Body Weight Ratio","0.1508","%","0.1508",0.1508,"%",NA,NA,"SPLEEN",NA,NA,NA,NA,NA,NA,NA,NA,"2011-01-10T10:19:14",31
"PDS2014","OM","PDS2014-0006",1060,"OWBW","Organ to Body Weight Ratio","0.0783","%","0.0783",0.0783,"%",NA,NA,"THYMUS",NA,NA,NA,NA,NA,NA,NA,NA,"2011-01-10T10:28:00",31
"PDS2014","OM","PDS2014-0007",1061,"OWBW","Organ to Body Weight Ratio","0.5363","%","0.5363",0.5363,"%",NA,NA,"BRAIN",NA,NA,NA,NA,NA,NA,NA,NA,"2011-01-10T13:43:54",31
"PDS2014","OM","PDS2014-0007",1062,"OWBW","Organ to Body Weight Ratio","0.3815","%","0.3815",0.3815,"%",NA,NA,"HEART",NA,NA,NA,NA,NA,NA,NA,NA,"2011-01-10T13:44:51",31
"PDS2014","OM","PDS2014-0007",1063,"OWBW","Organ to Body Weight Ratio","2.3582","%","2.3582",2.3582,"%",NA,NA,"LIVER",NA,NA,NA,NA,NA,NA,NA,NA,"2011-01-10T13:37:12",31
"PDS2014","OM","PDS2014-0007",1064,"OWBW","Organ to Body Weight Ratio","0.8862","%","0.8862",0.8862,"%",NA,NA,"KIDNEY",NA,NA,NA,NA,NA,NA,NA,NA,"2011-01-10T13:42:02",31
"PDS2014","OM","PDS2014-0007",1065,"OWBW","Organ to Body Weight Ratio","0.8383","%","0.8383",0.8383,"%",NA,NA,"TESTIS",NA,NA,NA,NA,NA,NA,NA,NA,"2011-01-10T13:42:30",31
"PDS2014","OM","PDS2014-0007",1066,"OWBW","Organ to Body Weight Ratio","0.0032","%","0.0032",0.0032,"%",NA,NA,"GLAND, PITUITARY",NA,NA,NA,NA,NA,NA,NA,NA,"2011-01-10T00:00:00",31
"PDS2014","OM","PDS2014-0007",1067,"OWBW","Organ to Body Weight Ratio","0.0082","%","0.0082",0.0082,"%",NA,NA,"GLAND, THYROID",NA,NA,NA,NA,NA,NA,NA,NA,"2011-01-10T00:00:00",31
"PDS2014","OM","PDS2014-0007",1068,"OWBW","Organ to Body Weight Ratio","0.0230","%","0.0230",0.023,"%",NA,NA,"GLAND, ADRENAL",NA,NA,NA,NA,NA,NA,NA,NA,"2011-01-10T13:40:32",31
"PDS2014","OM","PDS2014-0007",1069,"OWBW","Organ to Body Weight Ratio","0.1476","%","0.1476",0.1476,"%",NA,NA,"SPLEEN",NA,NA,NA,NA,NA,NA,NA,NA,"2011-01-10T13:39:46",31
"PDS2014","OM","PDS2014-0007",1070,"OWBW","Organ to Body Weight Ratio","0.0730","%","0.0730",0.073,"%",NA,NA,"THYMUS",NA,NA,NA,NA,NA,NA,NA,NA,"2011-01-10T13:44:36",31
"PDS2014","OM","PDS2014-0008",1071,"OWBW","Organ to Body Weight Ratio","0.6328","%","0.6328",0.6328,"%",NA,NA,"BRAIN",NA,NA,NA,NA,NA,NA,NA,NA,"2011-01-10T10:25:50",31
"PDS2014","OM","PDS2014-0008",1072,"OWBW","Organ to Body Weight Ratio","0.4145","%","0.4145",0.4145,"%",NA,NA,"HEART",NA,NA,NA,NA,NA,NA,NA,NA,"2011-01-10T10:26:24",31
"PDS2014","OM","PDS2014-0008",1073,"OWBW","Organ to Body Weight Ratio","4.0427","%","4.0427",4.0427,"%",NA,NA,"LIVER",NA,NA,NA,NA,NA,NA,NA,NA,"2011-01-10T10:20:22",31
"PDS2014","OM","PDS2014-0008",1074,"OWBW","Organ to Body Weight Ratio","0.8416","%","0.8416",0.8416,"%",NA,NA,"KIDNEY",NA,NA,NA,NA,NA,NA,NA,NA,"2011-01-10T10:22:54",31
"PDS2014","OM","PDS2014-0008",1075,"OWBW","Organ to Body Weight Ratio","1.0785","%","1.0785",1.0785,"%",NA,NA,"TESTIS",NA,NA,NA,NA,NA,NA,NA,NA,"2011-01-10T10:23:50",31
"PDS2014","OM","PDS2014-0008",1076,"OWBW","Organ to Body Weight Ratio","0.0046","%","0.0046",0.0046,"%",NA,NA,"GLAND, PITUITARY",NA,NA,NA,NA,NA,NA,NA,NA,"2011-01-10T00:00:00",31
"PDS2014","OM","PDS2014-0008",1077,"OWBW","Organ to Body Weight Ratio","0.0082","%","0.0082",0.0082,"%",NA,NA,"GLAND, THYROID",NA,NA,NA,NA,NA,NA,NA,NA,"2011-01-10T00:00:00",31
"PDS2014","OM","PDS2014-0008",1078,"OWBW","Organ to Body Weight Ratio","0.0224","%","0.0224",0.0224,"%",NA,NA,"GLAND, ADRENAL",NA,NA,NA,NA,NA,NA,NA,NA,"2011-01-10T10:22:33",31
"PDS2014","OM","PDS2014-0008",1079,"OWBW","Organ to Body Weight Ratio","0.1864","%","0.1864",0.1864,"%",NA,NA,"SPLEEN",NA,NA,NA,NA,NA,NA,NA,NA,"2011-01-10T10:22:07",31
"PDS2014","OM","PDS2014-0008",1080,"OWBW","Organ to Body Weight Ratio","0.0688","%","0.0688",0.0688,"%",NA,NA,"THYMUS",NA,NA,NA,NA,NA,NA,NA,NA,"2011-01-10T10:26:12",31
"PDS2014","OM","PDS2014-0009",1081,"OWBW","Organ to Body Weight Ratio","0.7114","%","0.7114",0.7114,"%",NA,NA,"BRAIN",NA,NA,NA,NA,NA,NA,NA,NA,"2011-01-10T13:43:27",31
"PDS2014","OM","PDS2014-0009",1082,"OWBW","Organ to Body Weight Ratio","0.3812","%","0.3812",0.3812,"%",NA,NA,"HEART",NA,NA,NA,NA,NA,NA,NA,NA,"2011-01-10T13:45:40",31
"PDS2014","OM","PDS2014-0009",1083,"OWBW","Organ to Body Weight Ratio","2.0805","%","2.0805",2.0805,"%",NA,NA,"LIVER",NA,NA,NA,NA,NA,NA,NA,NA,"2011-01-10T13:39:22",31
"PDS2014","OM","PDS2014-0009",1084,"OWBW","Organ to Body Weight Ratio","0.6088","%","0.6088",0.6088,"%",NA,NA,"KIDNEY",NA,NA,NA,NA,NA,NA,NA,NA,"2011-01-10T13:42:22",31
"PDS2014","OM","PDS2014-0009",1085,"OWBW","Organ to Body Weight Ratio","1.0110","%","1.0110",1.011,"%",NA,NA,"TESTIS",NA,NA,NA,NA,NA,NA,NA,NA,"2011-01-10T13:42:36",31
"PDS2014","OM","PDS2014-0009",1086,"OWBW","Organ to Body Weight Ratio","0.0045","%","0.0045",0.0045,"%",NA,NA,"GLAND, PITUITARY",NA,NA,NA,NA,NA,NA,NA,NA,"2011-01-10T00:00:00",31
"PDS2014","OM","PDS2014-0009",1087,"OWBW","Organ to Body Weight Ratio","0.0099","%","0.0099",0.0099,"%",NA,NA,"GLAND, THYROID",NA,NA,NA,NA,NA,NA,NA,NA,"2011-01-10T00:00:00",31
"PDS2014","OM","PDS2014-0009",1088,"OWBW","Organ to Body Weight Ratio","0.0250","%","0.0250",0.025,"%",NA,NA,"GLAND, ADRENAL",NA,NA,NA,NA,NA,NA,NA,NA,"2011-01-10T13:41:22",31
"PDS2014","OM","PDS2014-0009",1089,"OWBW","Organ to Body Weight Ratio","0.1498","%","0.1498",0.1498,"%",NA,NA,"SPLEEN",NA,NA,NA,NA,NA,NA,NA,NA,"2011-01-10T13:41:02",31
"PDS2014","OM","PDS2014-0009",1090,"OWBW","Organ to Body Weight Ratio","0.0839","%","0.0839",0.0839,"%",NA,NA,"THYMUS",NA,NA,NA,NA,NA,NA,NA,NA,"2011-01-10T13:45:29",31
"PDS2014","OM","PDS2014-0011",1091,"OWBW","Organ to Body Weight Ratio","0.4832","%","0.4832",0.4832,"%",NA,NA,"BRAIN",NA,NA,NA,NA,NA,NA,NA,NA,"2011-02-06T08:56:30",58
"PDS2014","OM","PDS2014-0011",1092,"OWBW","Organ to Body Weight Ratio","0.3524","%","0.3524",0.3524,"%",NA,NA,"HEART",NA,NA,NA,NA,NA,NA,NA,NA,"2011-02-06T08:57:44",58
"PDS2014","OM","PDS2014-0011",1093,"OWBW","Organ to Body Weight Ratio","2.1944","%","2.1944",2.1944,"%",NA,NA,"LIVER",NA,NA,NA,NA,NA,NA,NA,NA,"2011-02-06T08:52:27",58
"PDS2014","OM","PDS2014-0011",1094,"OWBW","Organ to Body Weight Ratio","0.6707","%","0.6707",0.6707,"%",NA,NA,"KIDNEY",NA,NA,NA,NA,NA,NA,NA,NA,"2011-02-06T08:54:57",58
"PDS2014","OM","PDS2014-0011",1095,"OWBW","Organ to Body Weight Ratio","0.7563","%","0.7563",0.7563,"%",NA,NA,"TESTIS",NA,NA,NA,NA,NA,NA,NA,NA,"2011-02-06T08:55:25",58
"PDS2014","OM","PDS2014-0011",1096,"OWBW","Organ to Body Weight Ratio","0.0036","%","0.0036",0.0036,"%",NA,NA,"GLAND, PITUITARY",NA,NA,NA,NA,NA,NA,NA,NA,"2011-02-06T00:00:00",58
"PDS2014","OM","PDS2014-0011",1097,"OWBW","Organ to Body Weight Ratio","0.0093","%","0.0093",0.0093,"%",NA,NA,"GLAND, THYROID",NA,NA,NA,NA,NA,NA,NA,NA,"2011-02-06T00:00:00",58
"PDS2014","OM","PDS2014-0011",1098,"OWBW","Organ to Body Weight Ratio","0.0143","%","0.0143",0.0143,"%",NA,NA,"GLAND, ADRENAL",NA,NA,NA,NA,NA,NA,NA,NA,"2011-02-06T08:54:37",58
"PDS2014","OM","PDS2014-0011",1099,"OWBW","Organ to Body Weight Ratio","0.1536","%","0.1536",0.1536,"%",NA,NA,"SPLEEN",NA,NA,NA,NA,NA,NA,NA,NA,"2011-02-06T08:51:00",58
"PDS2014","OM","PDS2014-0011",1100,"OWBW","Organ to Body Weight Ratio","0.0778","%","0.0778",0.0778,"%",NA,NA,"THYMUS",NA,NA,NA,NA,NA,NA,NA,NA,"2011-02-06T08:57:33",58
"PDS2014","OM","PDS2014-0012",1101,"OWBW","Organ to Body Weight Ratio","0.4726","%","0.4726",0.4726,"%",NA,NA,"BRAIN",NA,NA,NA,NA,NA,NA,NA,NA,"2011-02-06T09:42:40",58
"PDS2014","OM","PDS2014-0012",1102,"OWBW","Organ to Body Weight Ratio","0.3400","%","0.3400",0.34,"%",NA,NA,"HEART",NA,NA,NA,NA,NA,NA,NA,NA,"2011-02-06T09:43:25",58
"PDS2014","OM","PDS2014-0012",1103,"OWBW","Organ to Body Weight Ratio","2.2805","%","2.2805",2.2805,"%",NA,NA,"LIVER",NA,NA,NA,NA,NA,NA,NA,NA,"2011-02-06T09:38:18",58
"PDS2014","OM","PDS2014-0012",1104,"OWBW","Organ to Body Weight Ratio","0.6434","%","0.6434",0.6434,"%",NA,NA,"KIDNEY",NA,NA,NA,NA,NA,NA,NA,NA,"2011-02-06T09:39:56",58
"PDS2014","OM","PDS2014-0012",1105,"OWBW","Organ to Body Weight Ratio","0.7307","%","0.7307",0.7307,"%",NA,NA,"TESTIS",NA,NA,NA,NA,NA,NA,NA,NA,"2011-02-06T09:40:26",58
"PDS2014","OM","PDS2014-0012",1106,"OWBW","Organ to Body Weight Ratio","0.0035","%","0.0035",0.0035,"%",NA,NA,"GLAND, PITUITARY",NA,NA,NA,NA,NA,NA,NA,NA,"2011-02-06T00:00:00",58
"PDS2014","OM","PDS2014-0012",1107,"OWBW","Organ to Body Weight Ratio","0.0078","%","0.0078",0.0078,"%",NA,NA,"GLAND, THYROID",NA,NA,NA,NA,NA,NA,NA,NA,"2011-02-06T00:00:00",58
"PDS2014","OM","PDS2014-0012",1108,"OWBW","Organ to Body Weight Ratio","0.0156","%","0.0156",0.0156,"%",NA,NA,"GLAND, ADRENAL",NA,NA,NA,NA,NA,NA,NA,NA,"2011-02-06T09:39:43",58
"PDS2014","OM","PDS2014-0012",1109,"OWBW","Organ to Body Weight Ratio","0.1628","%","0.1628",0.1628,"%",NA,NA,"SPLEEN",NA,NA,NA,NA,NA,NA,NA,NA,"2011-02-06T09:37:11",58
"PDS2014","OM","PDS2014-0012",1110,"OWBW","Organ to Body Weight Ratio","0.0479","%","0.0479",0.0479,"%",NA,NA,"THYMUS",NA,NA,NA,NA,NA,NA,NA,NA,"2011-02-06T09:43:15",58
"PDS2014","OM","PDS2014-0013",1111,"OWBW","Organ to Body Weight Ratio","0.5087","%","0.5087",0.5087,"%",NA,NA,"BRAIN",NA,NA,NA,NA,NA,NA,NA,NA,"2011-02-06T11:01:59",58
"PDS2014","OM","PDS2014-0013",1112,"OWBW","Organ to Body Weight Ratio","0.3617","%","0.3617",0.3617,"%",NA,NA,"HEART",NA,NA,NA,NA,NA,NA,NA,NA,"2011-02-06T11:02:56",58
"PDS2014","OM","PDS2014-0013",1113,"OWBW","Organ to Body Weight Ratio","2.2395","%","2.2395",2.2395,"%",NA,NA,"LIVER",NA,NA,NA,NA,NA,NA,NA,NA,"2011-02-06T10:58:33",58
"PDS2014","OM","PDS2014-0013",1114,"OWBW","Organ to Body Weight Ratio","0.6896","%","0.6896",0.6896,"%",NA,NA,"KIDNEY",NA,NA,NA,NA,NA,NA,NA,NA,"2011-02-06T11:00:14",58
"PDS2014","OM","PDS2014-0013",1115,"OWBW","Organ to Body Weight Ratio","0.9491","%","0.9491",0.9491,"%",NA,NA,"TESTIS",NA,NA,NA,NA,NA,NA,NA,NA,"2011-02-06T11:00:31",58
"PDS2014","OM","PDS2014-0013",1116,"OWBW","Organ to Body Weight Ratio","0.0038","%","0.0038",0.0038,"%",NA,NA,"GLAND, PITUITARY",NA,NA,NA,NA,NA,NA,NA,NA,"2011-02-06T00:00:00",58
"PDS2014","OM","PDS2014-0013",1117,"OWBW","Organ to Body Weight Ratio","0.0095","%","0.0095",0.0095,"%",NA,NA,"GLAND, THYROID",NA,NA,NA,NA,NA,NA,NA,NA,"2011-02-06T00:00:00",58
"PDS2014","OM","PDS2014-0013",1118,"OWBW","Organ to Body Weight Ratio","0.0154","%","0.0154",0.0154,"%",NA,NA,"GLAND, ADRENAL",NA,NA,NA,NA,NA,NA,NA,NA,"2011-02-06T10:59:16",58
"PDS2014","OM","PDS2014-0013",1119,"OWBW","Organ to Body Weight Ratio","0.1651","%","0.1651",0.1651,"%",NA,NA,"SPLEEN",NA,NA,NA,NA,NA,NA,NA,NA,"2011-02-06T10:57:24",58
"PDS2014","OM","PDS2014-0013",1120,"OWBW","Organ to Body Weight Ratio","0.0419","%","0.0419",0.0419,"%",NA,NA,"THYMUS",NA,NA,NA,NA,NA,NA,NA,NA,"2011-02-06T11:02:46",58
"PDS2014","OM","PDS2014-0014",1121,"OWBW","Organ to Body Weight Ratio","0.4878","%","0.4878",0.4878,"%",NA,NA,"BRAIN",NA,NA,NA,NA,NA,NA,NA,NA,"2011-02-06T09:21:18",58
"PDS2014","OM","PDS2014-0014",1122,"OWBW","Organ to Body Weight Ratio","0.3253","%","0.3253",0.3253,"%",NA,NA,"HEART",NA,NA,NA,NA,NA,NA,NA,NA,"2011-02-06T09:27:12",58
"PDS2014","OM","PDS2014-0014",1123,"OWBW","Organ to Body Weight Ratio","2.1507","%","2.1507",2.1507,"%",NA,NA,"LIVER",NA,NA,NA,NA,NA,NA,NA,NA,"2011-02-06T09:23:15",58
"PDS2014","OM","PDS2014-0014",1124,"OWBW","Organ to Body Weight Ratio","0.6533","%","0.6533",0.6533,"%",NA,NA,"KIDNEY",NA,NA,NA,NA,NA,NA,NA,NA,"2011-02-06T09:24:26",58
"PDS2014","OM","PDS2014-0014",1125,"OWBW","Organ to Body Weight Ratio","0.9953","%","0.9953",0.9953,"%",NA,NA,"TESTIS",NA,NA,NA,NA,NA,NA,NA,NA,"2011-02-06T09:25:35",58
"PDS2014","OM","PDS2014-0014",1126,"OWBW","Organ to Body Weight Ratio","0.0033","%","0.0033",0.0033,"%",NA,NA,"GLAND, PITUITARY",NA,NA,NA,NA,NA,NA,NA,NA,"2011-02-06T00:00:00",58
"PDS2014","OM","PDS2014-0014",1127,"OWBW","Organ to Body Weight Ratio","0.0086","%","0.0086",0.0086,"%",NA,NA,"GLAND, THYROID",NA,NA,NA,NA,NA,NA,NA,NA,"2011-02-06T00:00:00",58
"PDS2014","OM","PDS2014-0014",1128,"OWBW","Organ to Body Weight Ratio","0.0218","%","0.0218",0.0218,"%",NA,NA,"GLAND, ADRENAL",NA,NA,NA,NA,NA,NA,NA,NA,"2011-02-06T09:24:10",58
"PDS2014","OM","PDS2014-0014",1129,"OWBW","Organ to Body Weight Ratio","0.1611","%","0.1611",0.1611,"%",NA,NA,"SPLEEN",NA,NA,NA,NA,NA,NA,NA,NA,"2011-02-06T09:22:05",58
"PDS2014","OM","PDS2014-0014",1130,"OWBW","Organ to Body Weight Ratio","0.0559","%","0.0559",0.0559,"%",NA,NA,"THYMUS",NA,NA,NA,NA,NA,NA,NA,NA,"2011-02-06T09:26:03",58
"PDS2014","OM","PDS2014-0015",1131,"OWBW","Organ to Body Weight Ratio","0.4975","%","0.4975",0.4975,"%",NA,NA,"BRAIN",NA,NA,NA,NA,NA,NA,NA,NA,"2011-02-06T10:38:49",58
"PDS2014","OM","PDS2014-0015",1132,"OWBW","Organ to Body Weight Ratio","0.3335","%","0.3335",0.3335,"%",NA,NA,"HEART",NA,NA,NA,NA,NA,NA,NA,NA,"2011-02-06T10:44:38",58
"PDS2014","OM","PDS2014-0015",1133,"OWBW","Organ to Body Weight Ratio","2.2624","%","2.2624",2.2624,"%",NA,NA,"LIVER",NA,NA,NA,NA,NA,NA,NA,NA,"2011-02-06T10:40:55",58
"PDS2014","OM","PDS2014-0015",1134,"OWBW","Organ to Body Weight Ratio","0.6513","%","0.6513",0.6513,"%",NA,NA,"KIDNEY",NA,NA,NA,NA,NA,NA,NA,NA,"2011-02-06T10:42:26",58
"PDS2014","OM","PDS2014-0015",1135,"OWBW","Organ to Body Weight Ratio","0.9295","%","0.9295",0.9295,"%",NA,NA,"TESTIS",NA,NA,NA,NA,NA,NA,NA,NA,"2011-02-06T10:43:01",58
"PDS2014","OM","PDS2014-0015",1136,"OWBW","Organ to Body Weight Ratio","0.0030","%","0.0030",0.003,"%",NA,NA,"GLAND, PITUITARY",NA,NA,NA,NA,NA,NA,NA,NA,"2011-02-06T00:00:00",58
"PDS2014","OM","PDS2014-0015",1137,"OWBW","Organ to Body Weight Ratio","0.0086","%","0.0086",0.0086,"%",NA,NA,"GLAND, THYROID",NA,NA,NA,NA,NA,NA,NA,NA,"2011-02-06T00:00:00",58
"PDS2014","OM","PDS2014-0015",1138,"OWBW","Organ to Body Weight Ratio","0.0148","%","0.0148",0.0148,"%",NA,NA,"GLAND, ADRENAL",NA,NA,NA,NA,NA,NA,NA,NA,"2011-02-06T10:41:39",58
"PDS2014","OM","PDS2014-0015",1139,"OWBW","Organ to Body Weight Ratio","0.1828","%","0.1828",0.1828,"%",NA,NA,"SPLEEN",NA,NA,NA,NA,NA,NA,NA,NA,"2011-02-06T10:39:55",58
"PDS2014","OM","PDS2014-0015",1140,"OWBW","Organ to Body Weight Ratio","0.0704","%","0.0704",0.0704,"%",NA,NA,"THYMUS",NA,NA,NA,NA,NA,NA,NA,NA,"2011-02-06T10:44:27",58
"PDS2014","OM","PDS2014-0021",1141,"OWBW","Organ to Body Weight Ratio","0.5128","%","0.5128",0.5128,"%",NA,NA,"BRAIN",NA,NA,NA,NA,NA,NA,NA,NA,"2011-01-09T10:06:06",30
"PDS2014","OM","PDS2014-0021",1142,"OWBW","Organ to Body Weight Ratio","0.3435","%","0.3435",0.3435,"%",NA,NA,"HEART",NA,NA,NA,NA,NA,NA,NA,NA,"2011-01-09T10:06:53",30
"PDS2014","OM","PDS2014-0021",1143,"OWBW","Organ to Body Weight Ratio","2.5378","%","2.5378",2.5378,"%",NA,NA,"LIVER",NA,NA,NA,NA,NA,NA,NA,NA,"2011-01-09T10:01:58",30
"PDS2014","OM","PDS2014-0021",1144,"OWBW","Organ to Body Weight Ratio","0.7555","%","0.7555",0.7555,"%",NA,NA,"KIDNEY",NA,NA,NA,NA,NA,NA,NA,NA,"2011-01-09T10:04:17",30
"PDS2014","OM","PDS2014-0021",1145,"OWBW","Organ to Body Weight Ratio","0.9052","%","0.9052",0.9052,"%",NA,NA,"TESTIS",NA,NA,NA,NA,NA,NA,NA,NA,"2011-01-09T10:04:43",30
"PDS2014","OM","PDS2014-0021",1146,"OWBW","Organ to Body Weight Ratio","0.0036","%","0.0036",0.0036,"%",NA,NA,"GLAND, PITUITARY",NA,NA,NA,NA,NA,NA,NA,NA,"2011-01-09T00:00:00",30
"PDS2014","OM","PDS2014-0021",1147,"OWBW","Organ to Body Weight Ratio","0.0058","%","0.0058",0.0058,"%",NA,NA,"GLAND, THYROID",NA,NA,NA,NA,NA,NA,NA,NA,"2011-01-09T00:00:00",30
"PDS2014","OM","PDS2014-0021",1148,"OWBW","Organ to Body Weight Ratio","0.0218","%","0.0218",0.0218,"%",NA,NA,"GLAND, ADRENAL",NA,NA,NA,NA,NA,NA,NA,NA,"2011-01-09T10:04:00",30
"PDS2014","OM","PDS2014-0021",1149,"OWBW","Organ to Body Weight Ratio","0.1896","%","0.1896",0.1896,"%",NA,NA,"SPLEEN",NA,NA,NA,NA,NA,NA,NA,NA,"2011-01-09T10:00:50",30
"PDS2014","OM","PDS2014-0021",1150,"OWBW","Organ to Body Weight Ratio","0.0819","%","0.0819",0.0819,"%",NA,NA,"THYMUS",NA,NA,NA,NA,NA,NA,NA,NA,"2011-01-09T10:06:42",30
"PDS2014","OM","PDS2014-0022",1151,"OWBW","Organ to Body Weight Ratio","0.5281","%","0.5281",0.5281,"%",NA,NA,"BRAIN",NA,NA,NA,NA,NA,NA,NA,NA,"2011-01-09T11:46:02",30
"PDS2014","OM","PDS2014-0022",1152,"OWBW","Organ to Body Weight Ratio","0.3851","%","0.3851",0.3851,"%",NA,NA,"HEART",NA,NA,NA,NA,NA,NA,NA,NA,"2011-01-09T11:47:12",30
"PDS2014","OM","PDS2014-0022",1153,"OWBW","Organ to Body Weight Ratio","2.4801","%","2.4801",2.4801,"%",NA,NA,"LIVER",NA,NA,NA,NA,NA,NA,NA,NA,"2011-01-09T11:41:11",30
"PDS2014","OM","PDS2014-0022",1154,"OWBW","Organ to Body Weight Ratio","0.7337","%","0.7337",0.7337,"%",NA,NA,"KIDNEY",NA,NA,NA,NA,NA,NA,NA,NA,"2011-01-09T11:43:47",30
"PDS2014","OM","PDS2014-0022",1155,"OWBW","Organ to Body Weight Ratio","0.8274","%","0.8274",0.8274,"%",NA,NA,"TESTIS",NA,NA,NA,NA,NA,NA,NA,NA,"2011-01-09T11:44:04",30
"PDS2014","OM","PDS2014-0022",1156,"OWBW","Organ to Body Weight Ratio","0.0034","%","0.0034",0.0034,"%",NA,NA,"GLAND, PITUITARY",NA,NA,NA,NA,NA,NA,NA,NA,"2011-01-09T00:00:00",30
"PDS2014","OM","PDS2014-0022",1157,"OWBW","Organ to Body Weight Ratio","0.0079","%","0.0079",0.0079,"%",NA,NA,"GLAND, THYROID",NA,NA,NA,NA,NA,NA,NA,NA,"2011-01-09T00:00:00",30
"PDS2014","OM","PDS2014-0022",1158,"OWBW","Organ to Body Weight Ratio","0.0185","%","0.0185",0.0185,"%",NA,NA,"GLAND, ADRENAL",NA,NA,NA,NA,NA,NA,NA,NA,"2011-01-09T11:43:26",30
"PDS2014","OM","PDS2014-0022",1159,"OWBW","Organ to Body Weight Ratio","0.1474","%","0.1474",0.1474,"%",NA,NA,"SPLEEN",NA,NA,NA,NA,NA,NA,NA,NA,"2011-01-09T11:39:42",30
"PDS2014","OM","PDS2014-0022",1160,"OWBW","Organ to Body Weight Ratio","0.1278","%","0.1278",0.1278,"%",NA,NA,"THYMUS",NA,NA,NA,NA,NA,NA,NA,NA,"2011-01-09T11:46:59",30
"PDS2014","OM","PDS2014-0023",1161,"OWBW","Organ to Body Weight Ratio","0.5038","%","0.5038",0.5038,"%",NA,NA,"BRAIN",NA,NA,NA,NA,NA,NA,NA,NA,"2011-01-09T14:24:07",30
"PDS2014","OM","PDS2014-0023",1162,"OWBW","Organ to Body Weight Ratio","0.3245","%","0.3245",0.3245,"%",NA,NA,"HEART",NA,NA,NA,NA,NA,NA,NA,NA,"2011-01-09T14:24:59",30
"PDS2014","OM","PDS2014-0023",1163,"OWBW","Organ to Body Weight Ratio","2.4868","%","2.4868",2.4868,"%",NA,NA,"LIVER",NA,NA,NA,NA,NA,NA,NA,NA,"2011-01-09T14:19:50",30
"PDS2014","OM","PDS2014-0023",1164,"OWBW","Organ to Body Weight Ratio","0.7360","%","0.7360",0.736,"%",NA,NA,"KIDNEY",NA,NA,NA,NA,NA,NA,NA,NA,"2011-01-09T14:22:36",30
"PDS2014","OM","PDS2014-0023",1165,"OWBW","Organ to Body Weight Ratio","0.7614","%","0.7614",0.7614,"%",NA,NA,"TESTIS",NA,NA,NA,NA,NA,NA,NA,NA,"2011-01-09T14:22:50",30
"PDS2014","OM","PDS2014-0023",1166,"OWBW","Organ to Body Weight Ratio","0.0039","%","0.0039",0.0039,"%",NA,NA,"GLAND, PITUITARY",NA,NA,NA,NA,NA,NA,NA,NA,"2011-01-09T00:00:00",30
"PDS2014","OM","PDS2014-0023",1167,"OWBW","Organ to Body Weight Ratio","0.0068","%","0.0068",0.0068,"%",NA,NA,"GLAND, THYROID",NA,NA,NA,NA,NA,NA,NA,NA,"2011-01-09T00:00:00",30
"PDS2014","OM","PDS2014-0023",1168,"OWBW","Organ to Body Weight Ratio","0.0158","%","0.0158",0.0158,"%",NA,NA,"GLAND, ADRENAL",NA,NA,NA,NA,NA,NA,NA,NA,"2011-01-09T14:22:03",30
"PDS2014","OM","PDS2014-0023",1169,"OWBW","Organ to Body Weight Ratio","0.1687","%","0.1687",0.1687,"%",NA,NA,"SPLEEN",NA,NA,NA,NA,NA,NA,NA,NA,"2011-01-09T14:18:33",30
"PDS2014","OM","PDS2014-0023",1170,"OWBW","Organ to Body Weight Ratio","0.1254","%","0.1254",0.1254,"%",NA,NA,"THYMUS",NA,NA,NA,NA,NA,NA,NA,NA,"2011-01-09T14:24:47",30
"PDS2014","OM","PDS2014-0024",1171,"OWBW","Organ to Body Weight Ratio","0.5533","%","0.5533",0.5533,"%",NA,NA,"BRAIN",NA,NA,NA,NA,NA,NA,NA,NA,"2011-01-09T11:23:17",30
"PDS2014","OM","PDS2014-0024",1172,"OWBW","Organ to Body Weight Ratio","0.3382","%","0.3382",0.3382,"%",NA,NA,"HEART",NA,NA,NA,NA,NA,NA,NA,NA,"2011-01-09T11:24:28",30
"PDS2014","OM","PDS2014-0024",1173,"OWBW","Organ to Body Weight Ratio","2.5119","%","2.5119",2.5119,"%",NA,NA,"LIVER",NA,NA,NA,NA,NA,NA,NA,NA,"2011-01-09T11:17:13",30
"PDS2014","OM","PDS2014-0024",1174,"OWBW","Organ to Body Weight Ratio","0.7525","%","0.7525",0.7525,"%",NA,NA,"KIDNEY",NA,NA,NA,NA,NA,NA,NA,NA,"2011-01-09T11:19:50",30
"PDS2014","OM","PDS2014-0024",1175,"OWBW","Organ to Body Weight Ratio","0.9089","%","0.9089",0.9089,"%",NA,NA,"TESTIS",NA,NA,NA,NA,NA,NA,NA,NA,"2011-01-09T11:20:29",30
"PDS2014","OM","PDS2014-0024",1176,"OWBW","Organ to Body Weight Ratio","0.0038","%","0.0038",0.0038,"%",NA,NA,"GLAND, PITUITARY",NA,NA,NA,NA,NA,NA,NA,NA,"2011-01-09T00:00:00",30
"PDS2014","OM","PDS2014-0024",1177,"OWBW","Organ to Body Weight Ratio","0.0055","%","0.0055",0.0055,"%",NA,NA,"GLAND, THYROID",NA,NA,NA,NA,NA,NA,NA,NA,"2011-01-09T00:00:00",30
"PDS2014","OM","PDS2014-0024",1178,"OWBW","Organ to Body Weight Ratio","0.0208","%","0.0208",0.0208,"%",NA,NA,"GLAND, ADRENAL",NA,NA,NA,NA,NA,NA,NA,NA,"2011-01-09T11:19:33",30
"PDS2014","OM","PDS2014-0024",1179,"OWBW","Organ to Body Weight Ratio","0.1600","%","0.1600",0.16,"%",NA,NA,"SPLEEN",NA,NA,NA,NA,NA,NA,NA,NA,"2011-01-09T11:16:26",30
"PDS2014","OM","PDS2014-0024",1180,"OWBW","Organ to Body Weight Ratio","0.0967","%","0.0967",0.0967,"%",NA,NA,"THYMUS",NA,NA,NA,NA,NA,NA,NA,NA,"2011-01-09T11:24:16",30
"PDS2014","OM","PDS2014-0025",1181,"OWBW","Organ to Body Weight Ratio","0.5275","%","0.5275",0.5275,"%",NA,NA,"BRAIN",NA,NA,NA,NA,NA,NA,NA,NA,"2011-01-09T14:36:40",30
"PDS2014","OM","PDS2014-0025",1182,"OWBW","Organ to Body Weight Ratio","0.3540","%","0.3540",0.354,"%",NA,NA,"HEART",NA,NA,NA,NA,NA,NA,NA,NA,"2011-01-09T14:38:01",30
"PDS2014","OM","PDS2014-0025",1183,"OWBW","Organ to Body Weight Ratio","2.3830","%","2.3830",2.383,"%",NA,NA,"LIVER",NA,NA,NA,NA,NA,NA,NA,NA,"2011-01-09T14:30:45",30
"PDS2014","OM","PDS2014-0025",1184,"OWBW","Organ to Body Weight Ratio","0.7439","%","0.7439",0.7439,"%",NA,NA,"KIDNEY",NA,NA,NA,NA,NA,NA,NA,NA,"2011-01-09T14:33:48",30
"PDS2014","OM","PDS2014-0025",1185,"OWBW","Organ to Body Weight Ratio","0.7945","%","0.7945",0.7945,"%",NA,NA,"TESTIS",NA,NA,NA,NA,NA,NA,NA,NA,"2011-01-09T14:34:11",30
"PDS2014","OM","PDS2014-0025",1186,"OWBW","Organ to Body Weight Ratio","0.0034","%","0.0034",0.0034,"%",NA,NA,"GLAND, PITUITARY",NA,NA,NA,NA,NA,NA,NA,NA,"2011-01-09T00:00:00",30
"PDS2014","OM","PDS2014-0025",1187,"OWBW","Organ to Body Weight Ratio","0.0055","%","0.0055",0.0055,"%",NA,NA,"GLAND, THYROID",NA,NA,NA,NA,NA,NA,NA,NA,"2011-01-09T00:00:00",30
"PDS2014","OM","PDS2014-0025",1188,"OWBW","Organ to Body Weight Ratio","0.0147","%","0.0147",0.0147,"%",NA,NA,"GLAND, ADRENAL",NA,NA,NA,NA,NA,NA,NA,NA,"2011-01-09T14:32:53",30
"PDS2014","OM","PDS2014-0025",1189,"OWBW","Organ to Body Weight Ratio","0.1502","%","0.1502",0.1502,"%",NA,NA,"SPLEEN",NA,NA,NA,NA,NA,NA,NA,NA,"2011-01-09T14:28:41",30
"PDS2014","OM","PDS2014-0025",1190,"OWBW","Organ to Body Weight Ratio","0.0932","%","0.0932",0.0932,"%",NA,NA,"THYMUS",NA,NA,NA,NA,NA,NA,NA,NA,"2011-01-09T14:37:52",30
"PDS2014","OM","PDS2014-0026",1191,"OWBW","Organ to Body Weight Ratio","0.5438","%","0.5438",0.5438,"%",NA,NA,"BRAIN",NA,NA,NA,NA,NA,NA,NA,NA,"2011-01-10T10:38:52",31
"PDS2014","OM","PDS2014-0026",1192,"OWBW","Organ to Body Weight Ratio","0.3378","%","0.3378",0.3378,"%",NA,NA,"HEART",NA,NA,NA,NA,NA,NA,NA,NA,"2011-01-10T10:39:49",31
"PDS2014","OM","PDS2014-0026",1193,"OWBW","Organ to Body Weight Ratio","2.5132","%","2.5132",2.5132,"%",NA,NA,"LIVER",NA,NA,NA,NA,NA,NA,NA,NA,"2011-01-10T10:33:18",31
"PDS2014","OM","PDS2014-0026",1194,"OWBW","Organ to Body Weight Ratio","0.7739","%","0.7739",0.7739,"%",NA,NA,"KIDNEY",NA,NA,NA,NA,NA,NA,NA,NA,"2011-01-10T10:36:58",31
"PDS2014","OM","PDS2014-0026",1195,"OWBW","Organ to Body Weight Ratio","0.9383","%","0.9383",0.9383,"%",NA,NA,"TESTIS",NA,NA,NA,NA,NA,NA,NA,NA,"2011-01-10T10:37:44",31
"PDS2014","OM","PDS2014-0026",1196,"OWBW","Organ to Body Weight Ratio","0.0039","%","0.0039",0.0039,"%",NA,NA,"GLAND, PITUITARY",NA,NA,NA,NA,NA,NA,NA,NA,"2011-01-10T00:00:00",31
"PDS2014","OM","PDS2014-0026",1197,"OWBW","Organ to Body Weight Ratio","0.0072","%","0.0072",0.0072,"%",NA,NA,"GLAND, THYROID",NA,NA,NA,NA,NA,NA,NA,NA,"2011-01-10T00:00:00",31
"PDS2014","OM","PDS2014-0026",1198,"OWBW","Organ to Body Weight Ratio","0.0166","%","0.0166",0.0166,"%",NA,NA,"GLAND, ADRENAL",NA,NA,NA,NA,NA,NA,NA,NA,"2011-01-10T10:35:53",31
"PDS2014","OM","PDS2014-0026",1199,"OWBW","Organ to Body Weight Ratio","0.1612","%","0.1612",0.1612,"%",NA,NA,"SPLEEN",NA,NA,NA,NA,NA,NA,NA,NA,"2011-01-10T10:35:33",31
"PDS2014","OM","PDS2014-0026",1200,"OWBW","Organ to Body Weight Ratio","0.0871","%","0.0871",0.0871,"%",NA,NA,"THYMUS",NA,NA,NA,NA,NA,NA,NA,NA,"2011-01-10T10:39:09",31
"PDS2014","OM","PDS2014-0027",1201,"OWBW","Organ to Body Weight Ratio","0.6045","%","0.6045",0.6045,"%",NA,NA,"BRAIN",NA,NA,NA,NA,NA,NA,NA,NA,"2011-01-10T13:55:56",31
"PDS2014","OM","PDS2014-0027",1202,"OWBW","Organ to Body Weight Ratio","0.3633","%","0.3633",0.3633,"%",NA,NA,"HEART",NA,NA,NA,NA,NA,NA,NA,NA,"2011-01-10T13:56:45",31
"PDS2014","OM","PDS2014-0027",1203,"OWBW","Organ to Body Weight Ratio","2.3831","%","2.3831",2.3831,"%",NA,NA,"LIVER",NA,NA,NA,NA,NA,NA,NA,NA,"2011-01-10T13:49:19",31
"PDS2014","OM","PDS2014-0027",1204,"OWBW","Organ to Body Weight Ratio","0.7102","%","0.7102",0.7102,"%",NA,NA,"KIDNEY",NA,NA,NA,NA,NA,NA,NA,NA,"2011-01-10T13:53:06",31
"PDS2014","OM","PDS2014-0027",1205,"OWBW","Organ to Body Weight Ratio","0.9099","%","0.9099",0.9099,"%",NA,NA,"TESTIS",NA,NA,NA,NA,NA,NA,NA,NA,"2011-01-10T13:53:41",31
"PDS2014","OM","PDS2014-0027",1206,"OWBW","Organ to Body Weight Ratio","0.0039","%","0.0039",0.0039,"%",NA,NA,"GLAND, PITUITARY",NA,NA,NA,NA,NA,NA,NA,NA,"2011-01-10T00:00:00",31
"PDS2014","OM","PDS2014-0027",1207,"OWBW","Organ to Body Weight Ratio","0.0069","%","0.0069",0.0069,"%",NA,NA,"GLAND, THYROID",NA,NA,NA,NA,NA,NA,NA,NA,"2011-01-10T00:00:00",31
"PDS2014","OM","PDS2014-0027",1208,"OWBW","Organ to Body Weight Ratio","0.0202","%","0.0202",0.0202,"%",NA,NA,"GLAND, ADRENAL",NA,NA,NA,NA,NA,NA,NA,NA,"2011-01-10T13:52:34",31
"PDS2014","OM","PDS2014-0027",1209,"OWBW","Organ to Body Weight Ratio","0.1618","%","0.1618",0.1618,"%",NA,NA,"SPLEEN",NA,NA,NA,NA,NA,NA,NA,NA,"2011-01-10T13:51:36",31
"PDS2014","OM","PDS2014-0027",1210,"OWBW","Organ to Body Weight Ratio","0.0791","%","0.0791",0.0791,"%",NA,NA,"THYMUS",NA,NA,NA,NA,NA,NA,NA,NA,"2011-01-10T13:56:15",31
"PDS2014","OM","PDS2014-0028",1211,"OWBW","Organ to Body Weight Ratio","0.6094","%","0.6094",0.6094,"%",NA,NA,"BRAIN",NA,NA,NA,NA,NA,NA,NA,NA,"2011-01-10T10:40:04",31
"PDS2014","OM","PDS2014-0028",1212,"OWBW","Organ to Body Weight Ratio","0.3850","%","0.3850",0.385,"%",NA,NA,"HEART",NA,NA,NA,NA,NA,NA,NA,NA,"2011-01-10T10:40:44",31
"PDS2014","OM","PDS2014-0028",1213,"OWBW","Organ to Body Weight Ratio","2.5644","%","2.5644",2.5644,"%",NA,NA,"LIVER",NA,NA,NA,NA,NA,NA,NA,NA,"2011-01-10T10:34:58",31
"PDS2014","OM","PDS2014-0028",1214,"OWBW","Organ to Body Weight Ratio","0.7202","%","0.7202",0.7202,"%",NA,NA,"KIDNEY",NA,NA,NA,NA,NA,NA,NA,NA,"2011-01-10T10:37:03",31
"PDS2014","OM","PDS2014-0028",1215,"OWBW","Organ to Body Weight Ratio","0.8201","%","0.8201",0.8201,"%",NA,NA,"TESTIS",NA,NA,NA,NA,NA,NA,NA,NA,"2011-01-10T10:37:44",31
"PDS2014","OM","PDS2014-0028",1216,"OWBW","Organ to Body Weight Ratio","0.0036","%","0.0036",0.0036,"%",NA,NA,"GLAND, PITUITARY",NA,NA,NA,NA,NA,NA,NA,NA,"2011-01-10T00:00:00",31
"PDS2014","OM","PDS2014-0028",1217,"OWBW","Organ to Body Weight Ratio","0.0056","%","0.0056",0.0056,"%",NA,NA,"GLAND, THYROID",NA,NA,NA,NA,NA,NA,NA,NA,"2011-01-10T00:00:00",31
"PDS2014","OM","PDS2014-0028",1218,"OWBW","Organ to Body Weight Ratio","0.0182","%","0.0182",0.0182,"%",NA,NA,"GLAND, ADRENAL",NA,NA,NA,NA,NA,NA,NA,NA,"2011-01-10T10:36:40",31
"PDS2014","OM","PDS2014-0028",1219,"OWBW","Organ to Body Weight Ratio","0.1744","%","0.1744",0.1744,"%",NA,NA,"SPLEEN",NA,NA,NA,NA,NA,NA,NA,NA,"2011-01-10T10:36:20",31
"PDS2014","OM","PDS2014-0028",1220,"OWBW","Organ to Body Weight Ratio","0.0902","%","0.0902",0.0902,"%",NA,NA,"THYMUS",NA,NA,NA,NA,NA,NA,NA,NA,"2011-01-10T10:40:31",31
"PDS2014","OM","PDS2014-0029",1221,"OWBW","Organ to Body Weight Ratio","0.5183","%","0.5183",0.5183,"%",NA,NA,"BRAIN",NA,NA,NA,NA,NA,NA,NA,NA,"2011-01-10T13:55:32",31
"PDS2014","OM","PDS2014-0029",1222,"OWBW","Organ to Body Weight Ratio","0.3561","%","0.3561",0.3561,"%",NA,NA,"HEART",NA,NA,NA,NA,NA,NA,NA,NA,"2011-01-10T13:56:37",31
"PDS2014","OM","PDS2014-0029",1223,"OWBW","Organ to Body Weight Ratio","2.4741","%","2.4741",2.4741,"%",NA,NA,"LIVER",NA,NA,NA,NA,NA,NA,NA,NA,"2011-01-10T13:50:27",31
"PDS2014","OM","PDS2014-0029",1224,"OWBW","Organ to Body Weight Ratio","0.7368","%","0.7368",0.7368,"%",NA,NA,"KIDNEY",NA,NA,NA,NA,NA,NA,NA,NA,"2011-01-10T13:53:22",31
"PDS2014","OM","PDS2014-0029",1225,"OWBW","Organ to Body Weight Ratio","0.8094","%","0.8094",0.8094,"%",NA,NA,"TESTIS",NA,NA,NA,NA,NA,NA,NA,NA,"2011-01-10T13:53:52",31
"PDS2014","OM","PDS2014-0029",1226,"OWBW","Organ to Body Weight Ratio","0.0036","%","0.0036",0.0036,"%",NA,NA,"GLAND, PITUITARY",NA,NA,NA,NA,NA,NA,NA,NA,"2011-01-10T00:00:00",31
"PDS2014","OM","PDS2014-0029",1227,"OWBW","Organ to Body Weight Ratio","0.0068","%","0.0068",0.0068,"%",NA,NA,"GLAND, THYROID",NA,NA,NA,NA,NA,NA,NA,NA,"2011-01-10T00:00:00",31
"PDS2014","OM","PDS2014-0029",1228,"OWBW","Organ to Body Weight Ratio","0.0183","%","0.0183",0.0183,"%",NA,NA,"GLAND, ADRENAL",NA,NA,NA,NA,NA,NA,NA,NA,"2011-01-10T13:52:59",31
"PDS2014","OM","PDS2014-0029",1229,"OWBW","Organ to Body Weight Ratio","0.1819","%","0.1819",0.1819,"%",NA,NA,"SPLEEN",NA,NA,NA,NA,NA,NA,NA,NA,"2011-01-10T13:50:47",31
"PDS2014","OM","PDS2014-0029",1230,"OWBW","Organ to Body Weight Ratio","0.0780","%","0.0780",0.078,"%",NA,NA,"THYMUS",NA,NA,NA,NA,NA,NA,NA,NA,"2011-01-10T13:56:20",31
"PDS2014","OM","PDS2014-0041",1231,"OWBW","Organ to Body Weight Ratio","0.5598","%","0.5598",0.5598,"%",NA,NA,"BRAIN",NA,NA,NA,NA,NA,NA,NA,NA,"2011-01-09T10:16:15",30
"PDS2014","OM","PDS2014-0041",1232,"OWBW","Organ to Body Weight Ratio","0.3332","%","0.3332",0.3332,"%",NA,NA,"HEART",NA,NA,NA,NA,NA,NA,NA,NA,"2011-01-09T10:17:06",30
"PDS2014","OM","PDS2014-0041",1233,"OWBW","Organ to Body Weight Ratio","2.6030","%","2.6030",2.603,"%",NA,NA,"LIVER",NA,NA,NA,NA,NA,NA,NA,NA,"2011-01-09T10:12:43",30
"PDS2014","OM","PDS2014-0041",1234,"OWBW","Organ to Body Weight Ratio","0.7543","%","0.7543",0.7543,"%",NA,NA,"KIDNEY",NA,NA,NA,NA,NA,NA,NA,NA,"2011-01-09T10:15:04",30
"PDS2014","OM","PDS2014-0041",1235,"OWBW","Organ to Body Weight Ratio","0.8476","%","0.8476",0.8476,"%",NA,NA,"TESTIS",NA,NA,NA,NA,NA,NA,NA,NA,"2011-01-09T10:15:42",30
"PDS2014","OM","PDS2014-0041",1236,"OWBW","Organ to Body Weight Ratio","0.0035","%","0.0035",0.0035,"%",NA,NA,"GLAND, PITUITARY",NA,NA,NA,NA,NA,NA,NA,NA,"2011-01-09T00:00:00",30
"PDS2014","OM","PDS2014-0041",1237,"OWBW","Organ to Body Weight Ratio","0.0057","%","0.0057",0.0057,"%",NA,NA,"GLAND, THYROID",NA,NA,NA,NA,NA,NA,NA,NA,"2011-01-09T00:00:00",30
"PDS2014","OM","PDS2014-0041",1238,"OWBW","Organ to Body Weight Ratio","0.0212","%","0.0212",0.0212,"%",NA,NA,"GLAND, ADRENAL",NA,NA,NA,NA,NA,NA,NA,NA,"2011-01-09T10:14:24",30
"PDS2014","OM","PDS2014-0041",1239,"OWBW","Organ to Body Weight Ratio","0.1702","%","0.1702",0.1702,"%",NA,NA,"SPLEEN",NA,NA,NA,NA,NA,NA,NA,NA,"2011-01-09T10:11:22",30
"PDS2014","OM","PDS2014-0041",1240,"OWBW","Organ to Body Weight Ratio","0.1127","%","0.1127",0.1127,"%",NA,NA,"THYMUS",NA,NA,NA,NA,NA,NA,NA,NA,"2011-01-09T10:16:57",30
"PDS2014","OM","PDS2014-0042",1241,"OWBW","Organ to Body Weight Ratio","0.5794","%","0.5794",0.5794,"%",NA,NA,"BRAIN",NA,NA,NA,NA,NA,NA,NA,NA,"2011-01-09T11:59:05",30
"PDS2014","OM","PDS2014-0042",1242,"OWBW","Organ to Body Weight Ratio","0.3503","%","0.3503",0.3503,"%",NA,NA,"HEART",NA,NA,NA,NA,NA,NA,NA,NA,"2011-01-09T12:00:19",30
"PDS2014","OM","PDS2014-0042",1243,"OWBW","Organ to Body Weight Ratio","2.5253","%","2.5253",2.5253,"%",NA,NA,"LIVER",NA,NA,NA,NA,NA,NA,NA,NA,"2011-01-09T11:55:15",30
"PDS2014","OM","PDS2014-0042",1244,"OWBW","Organ to Body Weight Ratio","0.6794","%","0.6794",0.6794,"%",NA,NA,"KIDNEY",NA,NA,NA,NA,NA,NA,NA,NA,"2011-01-09T11:57:26",30
"PDS2014","OM","PDS2014-0042",1245,"OWBW","Organ to Body Weight Ratio","0.9474","%","0.9474",0.9474,"%",NA,NA,"TESTIS",NA,NA,NA,NA,NA,NA,NA,NA,"2011-01-09T11:57:42",30
"PDS2014","OM","PDS2014-0042",1246,"OWBW","Organ to Body Weight Ratio","0.0041","%","0.0041",0.0041,"%",NA,NA,"GLAND, PITUITARY",NA,NA,NA,NA,NA,NA,NA,NA,"2011-01-09T00:00:00",30
"PDS2014","OM","PDS2014-0042",1247,"OWBW","Organ to Body Weight Ratio","0.0068","%","0.0068",0.0068,"%",NA,NA,"GLAND, THYROID",NA,NA,NA,NA,NA,NA,NA,NA,"2011-01-09T00:00:00",30
"PDS2014","OM","PDS2014-0042",1248,"OWBW","Organ to Body Weight Ratio","0.0227","%","0.0227",0.0227,"%",NA,NA,"GLAND, ADRENAL",NA,NA,NA,NA,NA,NA,NA,NA,"2011-01-09T11:57:04",30
"PDS2014","OM","PDS2014-0042",1249,"OWBW","Organ to Body Weight Ratio","0.1592","%","0.1592",0.1592,"%",NA,NA,"SPLEEN",NA,NA,NA,NA,NA,NA,NA,NA,"2011-01-09T11:53:37",30
"PDS2014","OM","PDS2014-0042",1250,"OWBW","Organ to Body Weight Ratio","0.0693","%","0.0693",0.0693,"%",NA,NA,"THYMUS",NA,NA,NA,NA,NA,NA,NA,NA,"2011-01-09T12:00:03",30
"PDS2014","OM","PDS2014-0043",1251,"OWBW","Organ to Body Weight Ratio","0.5991","%","0.5991",0.5991,"%",NA,NA,"BRAIN",NA,NA,NA,NA,NA,NA,NA,NA,"2011-01-09T14:36:34",30
"PDS2014","OM","PDS2014-0043",1252,"OWBW","Organ to Body Weight Ratio","0.3591","%","0.3591",0.3591,"%",NA,NA,"HEART",NA,NA,NA,NA,NA,NA,NA,NA,"2011-01-09T14:37:03",30
"PDS2014","OM","PDS2014-0043",1253,"OWBW","Organ to Body Weight Ratio","2.5892","%","2.5892",2.5892,"%",NA,NA,"LIVER",NA,NA,NA,NA,NA,NA,NA,NA,"2011-01-09T14:31:02",30
"PDS2014","OM","PDS2014-0043",1254,"OWBW","Organ to Body Weight Ratio","0.7496","%","0.7496",0.7496,"%",NA,NA,"KIDNEY",NA,NA,NA,NA,NA,NA,NA,NA,"2011-01-09T14:35:52",30
"PDS2014","OM","PDS2014-0043",1255,"OWBW","Organ to Body Weight Ratio","0.9876","%","0.9876",0.9876,"%",NA,NA,"TESTIS",NA,NA,NA,NA,NA,NA,NA,NA,"2011-01-09T14:36:06",30
"PDS2014","OM","PDS2014-0043",1256,"OWBW","Organ to Body Weight Ratio","0.0037","%","0.0037",0.0037,"%",NA,NA,"GLAND, PITUITARY",NA,NA,NA,NA,NA,NA,NA,NA,"2011-01-09T00:00:00",30
"PDS2014","OM","PDS2014-0043",1257,"OWBW","Organ to Body Weight Ratio","0.0062","%","0.0062",0.0062,"%",NA,NA,"GLAND, THYROID",NA,NA,NA,NA,NA,NA,NA,NA,"2011-01-09T00:00:00",30
"PDS2014","OM","PDS2014-0043",1258,"OWBW","Organ to Body Weight Ratio","0.0234","%","0.0234",0.0234,"%",NA,NA,"GLAND, ADRENAL",NA,NA,NA,NA,NA,NA,NA,NA,"2011-01-09T14:33:05",30
"PDS2014","OM","PDS2014-0043",1259,"OWBW","Organ to Body Weight Ratio","0.1720","%","0.1720",0.172,"%",NA,NA,"SPLEEN",NA,NA,NA,NA,NA,NA,NA,NA,"2011-01-09T14:29:30",30
"PDS2014","OM","PDS2014-0043",1260,"OWBW","Organ to Body Weight Ratio","0.0919","%","0.0919",0.0919,"%",NA,NA,"THYMUS",NA,NA,NA,NA,NA,NA,NA,NA,"2011-01-09T14:36:54",30
"PDS2014","OM","PDS2014-0044",1261,"OWBW","Organ to Body Weight Ratio","0.5221","%","0.5221",0.5221,"%",NA,NA,"BRAIN",NA,NA,NA,NA,NA,NA,NA,NA,"2011-01-09T11:40:19",30
"PDS2014","OM","PDS2014-0044",1262,"OWBW","Organ to Body Weight Ratio","0.3922","%","0.3922",0.3922,"%",NA,NA,"HEART",NA,NA,NA,NA,NA,NA,NA,NA,"2011-01-09T11:41:46",30
"PDS2014","OM","PDS2014-0044",1263,"OWBW","Organ to Body Weight Ratio","2.6414","%","2.6414",2.6414,"%",NA,NA,"LIVER",NA,NA,NA,NA,NA,NA,NA,NA,"2011-01-09T11:33:59",30
"PDS2014","OM","PDS2014-0044",1264,"OWBW","Organ to Body Weight Ratio","0.7811","%","0.7811",0.7811,"%",NA,NA,"KIDNEY",NA,NA,NA,NA,NA,NA,NA,NA,"2011-01-09T11:37:39",30
"PDS2014","OM","PDS2014-0044",1265,"OWBW","Organ to Body Weight Ratio","0.8683","%","0.8683",0.8683,"%",NA,NA,"TESTIS",NA,NA,NA,NA,NA,NA,NA,NA,"2011-01-09T11:37:56",30
"PDS2014","OM","PDS2014-0044",1266,"OWBW","Organ to Body Weight Ratio","0.0040","%","0.0040",0.004,"%",NA,NA,"GLAND, PITUITARY",NA,NA,NA,NA,NA,NA,NA,NA,"2011-01-09T00:00:00",30
"PDS2014","OM","PDS2014-0044",1267,"OWBW","Organ to Body Weight Ratio","0.0081","%","0.0081",0.0081,"%",NA,NA,"GLAND, THYROID",NA,NA,NA,NA,NA,NA,NA,NA,"2011-01-09T00:00:00",30
"PDS2014","OM","PDS2014-0044",1268,"OWBW","Organ to Body Weight Ratio","0.0184","%","0.0184",0.0184,"%",NA,NA,"GLAND, ADRENAL",NA,NA,NA,NA,NA,NA,NA,NA,"2011-01-09T11:37:18",30
"PDS2014","OM","PDS2014-0044",1269,"OWBW","Organ to Body Weight Ratio","0.1658","%","0.1658",0.1658,"%",NA,NA,"SPLEEN",NA,NA,NA,NA,NA,NA,NA,NA,"2011-01-09T11:32:19",30
"PDS2014","OM","PDS2014-0044",1270,"OWBW","Organ to Body Weight Ratio","0.1160","%","0.1160",0.116,"%",NA,NA,"THYMUS",NA,NA,NA,NA,NA,NA,NA,NA,"2011-01-09T11:41:33",30
"PDS2014","OM","PDS2014-0045",1271,"OWBW","Organ to Body Weight Ratio","0.5920","%","0.5920",0.592,"%",NA,NA,"BRAIN",NA,NA,NA,NA,NA,NA,NA,NA,"2011-01-09T14:53:07",30
"PDS2014","OM","PDS2014-0045",1272,"OWBW","Organ to Body Weight Ratio","0.3567","%","0.3567",0.3567,"%",NA,NA,"HEART",NA,NA,NA,NA,NA,NA,NA,NA,"2011-01-09T14:54:42",30
"PDS2014","OM","PDS2014-0045",1273,"OWBW","Organ to Body Weight Ratio","2.4952","%","2.4952",2.4952,"%",NA,NA,"LIVER",NA,NA,NA,NA,NA,NA,NA,NA,"2011-01-09T14:47:26",30
"PDS2014","OM","PDS2014-0045",1274,"OWBW","Organ to Body Weight Ratio","0.7485","%","0.7485",0.7485,"%",NA,NA,"KIDNEY",NA,NA,NA,NA,NA,NA,NA,NA,"2011-01-09T14:50:16",30
"PDS2014","OM","PDS2014-0045",1275,"OWBW","Organ to Body Weight Ratio","1.1039","%","1.1039",1.1039,"%",NA,NA,"TESTIS",NA,NA,NA,NA,NA,NA,NA,NA,"2011-01-09T14:50:38",30
"PDS2014","OM","PDS2014-0045",1276,"OWBW","Organ to Body Weight Ratio","0.0044","%","0.0044",0.0044,"%",NA,NA,"GLAND, PITUITARY",NA,NA,NA,NA,NA,NA,NA,NA,"2011-01-09T00:00:00",30
"PDS2014","OM","PDS2014-0045",1277,"OWBW","Organ to Body Weight Ratio","0.0083","%","0.0083",0.0083,"%",NA,NA,"GLAND, THYROID",NA,NA,NA,NA,NA,NA,NA,NA,"2011-01-09T00:00:00",30
"PDS2014","OM","PDS2014-0045",1278,"OWBW","Organ to Body Weight Ratio","0.0155","%","0.0155",0.0155,"%",NA,NA,"GLAND, ADRENAL",NA,NA,NA,NA,NA,NA,NA,NA,"2011-01-09T14:50:00",30
"PDS2014","OM","PDS2014-0045",1279,"OWBW","Organ to Body Weight Ratio","0.1659","%","0.1659",0.1659,"%",NA,NA,"SPLEEN",NA,NA,NA,NA,NA,NA,NA,NA,"2011-01-09T14:45:52",30
