"STUDYID","DOMAIN","USUBJID","POOLID","PCSEQ","PCGRPID","PCREFID","PCSPID","PCTESTCD","PCTEST","PCCAT","PCSCAT","PCORRES","PCORRESU","PCSTRESC","PCSTRESN","PCSTRESU","PCSTAT","PCREASND","PCNAM","PCSPEC","PCSPCCND","PCMETHOD","PCBLFL","PCFAST","PCDRVFL","PCLLOQ","PCEXCLFL","PCREASEX","VISITDY","PCDTC","PCENDTC","PCDY","PCENDY","PCTPT","PCTPTNUM","PCELTM","PCTPTREF","PCRFTDTC","PCEVLINT"
"PDS2014","PC","PDS2014-0031",NA,1,NA,NA,NA,"STDRG","PDS-12345678","Pharmaco-kinetic Concentrations Activity",NA,"998","ng/mL","998",998,"ng/mL",NA,NA,NA,"PLASMA",NA,NA,NA,NA,NA,20,NA,NA,1,"2010-12-11T12:00:00",NA,1,NA,"0.5H",0.5,NA,NA,NA,NA
"PDS2014","PC","PDS2014-0031",NA,2,NA,NA,NA,"STDRG","PDS-12345678","Pharmaco-kinetic Concentrations Activity",NA,"1430","ng/mL","1430",1430,"ng/mL",NA,NA,NA,"PLASMA",NA,NA,NA,NA,NA,20,NA,NA,1,"2010-12-11T12:00:00",NA,1,NA,"1H",1,NA,NA,NA,NA
"PDS2014","PC","PDS2014-0031",NA,3,NA,NA,NA,"STDRG","PDS-12345678","Pharmaco-kinetic Concentrations Activity",NA,"1670","ng/mL","1670",1670,"ng/mL",NA,NA,NA,"PLASMA",NA,NA,NA,NA,NA,20,NA,NA,1,"2010-12-11T12:00:00",NA,1,NA,"2H",2,NA,NA,NA,NA
"PDS2014","PC","PDS2014-0031",NA,4,NA,NA,NA,"STDRG","PDS-12345678","Pharmaco-kinetic Concentrations Activity",NA,"1360","ng/mL","1360",1360,"ng/mL",NA,NA,NA,"PLASMA",NA,NA,NA,NA,NA,20,NA,NA,1,"2010-12-11T12:00:00",NA,1,NA,"4H",4,NA,NA,NA,NA
"PDS2014","PC","PDS2014-0031",NA,5,NA,NA,NA,"STDRG","PDS-12345678","Pharmaco-kinetic Concentrations Activity",NA,"669","ng/mL","669",669,"ng/mL",NA,NA,NA,"PLASMA",NA,NA,NA,NA,NA,20,NA,NA,1,"2010-12-11T12:00:00",NA,1,NA,"7H",7,NA,NA,NA,NA
"PDS2014","PC","PDS2014-0031",NA,6,NA,NA,NA,"STDRG","PDS-12345678","Pharmaco-kinetic Concentrations Activity",NA,"BQL","ng/mL","BQL",NA,"ng/mL",NA,NA,NA,"PLASMA",NA,NA,NA,NA,NA,20,NA,NA,2,"2010-12-12T12:00:00",NA,2,NA,"24H",24,NA,NA,NA,NA
"PDS2014","PC","PDS2014-0031",NA,7,NA,NA,NA,"STDRG","PDS-12345678","Pharmaco-kinetic Concentrations Activity",NA,"BQL","ng/mL","BQL",NA,"ng/mL",NA,NA,NA,"PLASMA",NA,NA,NA,NA,NA,20,NA,NA,29,"2011-01-08T12:00:00",NA,29,NA,"0H",0,NA,NA,NA,NA
"PDS2014","PC","PDS2014-0031",NA,8,NA,NA,NA,"STDRG","PDS-12345678","Pharmaco-kinetic Concentrations Activity",NA,"889","ng/mL","889",889,"ng/mL",NA,NA,NA,"PLASMA",NA,NA,NA,NA,NA,20,NA,NA,29,"2011-01-08T12:00:00",NA,29,NA,"0.5H",0.5,NA,NA,NA,NA
"PDS2014","PC","PDS2014-0031",NA,9,NA,NA,NA,"STDRG","PDS-12345678","Pharmaco-kinetic Concentrations Activity",NA,"1100","ng/mL","1100",1100,"ng/mL",NA,NA,NA,"PLASMA",NA,NA,NA,NA,NA,20,NA,NA,29,"2011-01-08T12:00:00",NA,29,NA,"1H",1,NA,NA,NA,NA
"PDS2014","PC","PDS2014-0031",NA,10,NA,NA,NA,"STDRG","PDS-12345678","Pharmaco-kinetic Concentrations Activity",NA,"1410","ng/mL","1410",1410,"ng/mL",NA,NA,NA,"PLASMA",NA,NA,NA,NA,NA,20,NA,NA,29,"2011-01-08T12:00:00",NA,29,NA,"2H",2,NA,NA,NA,NA
"PDS2014","PC","PDS2014-0031",NA,11,NA,NA,NA,"STDRG","PDS-12345678","Pharmaco-kinetic Concentrations Activity",NA,"596","ng/mL","596",596,"ng/mL",NA,NA,NA,"PLASMA",NA,NA,NA,NA,NA,20,NA,NA,29,"2011-01-08T12:00:00",NA,29,NA,"4H",4,NA,NA,NA,NA
"PDS2014","PC","PDS2014-0031",NA,12,NA,NA,NA,"STDRG","PDS-12345678","Pharmaco-kinetic Concentrations Activity",NA,"334","ng/mL","334",334,"ng/mL",NA,NA,NA,"PLASMA",NA,NA,NA,NA,NA,20,NA,NA,29,"2011-01-08T12:00:00",NA,29,NA,"7H",7,NA,NA,NA,NA
"PDS2014","PC","PDS2014-0031",NA,13,NA,NA,NA,"STDRG","PDS-12345678","Pharmaco-kinetic Concentrations Activity",NA,"BQL","ng/mL","BQL",NA,"ng/mL",NA,NA,NA,"PLASMA",NA,NA,NA,NA,NA,20,NA,NA,30,"2011-01-09T12:00:00",NA,30,NA,"24H",24,NA,NA,NA,NA
"PDS2014","PC","PDS2014-0032",NA,14,NA,NA,NA,"STDRG","PDS-12345678","Pharmaco-kinetic Concentrations Activity",NA,"1470","ng/mL","1470",1470,"ng/mL",NA,NA,NA,"PLASMA",NA,NA,NA,NA,NA,20,NA,NA,1,"2010-12-11T12:00:00",NA,1,NA,"0.5H",0.5,NA,NA,NA,NA
"PDS2014","PC","PDS2014-0032",NA,15,NA,NA,NA,"STDRG","PDS-12345678","Pharmaco-kinetic Concentrations Activity",NA,"1840","ng/mL","1840",1840,"ng/mL",NA,NA,NA,"PLASMA",NA,NA,NA,NA,NA,20,NA,NA,1,"2010-12-11T12:00:00",NA,1,NA,"1H",1,NA,NA,NA,NA
"PDS2014","PC","PDS2014-0032",NA,16,NA,NA,NA,"STDRG","PDS-12345678","Pharmaco-kinetic Concentrations Activity",NA,"2140","ng/mL","2140",2140,"ng/mL",NA,NA,NA,"PLASMA",NA,NA,NA,NA,NA,20,NA,NA,1,"2010-12-11T12:00:00",NA,1,NA,"2H",2,NA,NA,NA,NA
"PDS2014","PC","PDS2014-0032",NA,17,NA,NA,NA,"STDRG","PDS-12345678","Pharmaco-kinetic Concentrations Activity",NA,"2100","ng/mL","2100",2100,"ng/mL",NA,NA,NA,"PLASMA",NA,NA,NA,NA,NA,20,NA,NA,1,"2010-12-11T12:00:00",NA,1,NA,"4H",4,NA,NA,NA,NA
"PDS2014","PC","PDS2014-0032",NA,18,NA,NA,NA,"STDRG","PDS-12345678","Pharmaco-kinetic Concentrations Activity",NA,"1470","ng/mL","1470",1470,"ng/mL",NA,NA,NA,"PLASMA",NA,NA,NA,NA,NA,20,NA,NA,1,"2010-12-11T12:00:00",NA,1,NA,"7H",7,NA,NA,NA,NA
"PDS2014","PC","PDS2014-0032",NA,19,NA,NA,NA,"STDRG","PDS-12345678","Pharmaco-kinetic Concentrations Activity",NA,"BQL","ng/mL","BQL",NA,"ng/mL",NA,NA,NA,"PLASMA",NA,NA,NA,NA,NA,20,NA,NA,2,"2010-12-12T12:00:00",NA,2,NA,"24H",24,NA,NA,NA,NA
"PDS2014","PC","PDS2014-0032",NA,20,NA,NA,NA,"STDRG","PDS-12345678","Pharmaco-kinetic Concentrations Activity",NA,"50.9","ng/mL","50.9",50.9,"ng/mL",NA,NA,NA,"PLASMA",NA,NA,NA,NA,NA,20,NA,NA,29,"2011-01-08T12:00:00",NA,29,NA,"0H",0,NA,NA,NA,NA
"PDS2014","PC","PDS2014-0032",NA,21,NA,NA,NA,"STDRG","PDS-12345678","Pharmaco-kinetic Concentrations Activity",NA,"1470","ng/mL","1470",1470,"ng/mL",NA,NA,NA,"PLASMA",NA,NA,NA,NA,NA,20,NA,NA,29,"2011-01-08T12:00:00",NA,29,NA,"0.5H",0.5,NA,NA,NA,NA
"PDS2014","PC","PDS2014-0032",NA,22,NA,NA,NA,"STDRG","PDS-12345678","Pharmaco-kinetic Concentrations Activity",NA,"2340","ng/mL","2340",2340,"ng/mL",NA,NA,NA,"PLASMA",NA,NA,NA,NA,NA,20,NA,NA,29,"2011-01-08T12:00:00",NA,29,NA,"1H",1,NA,NA,NA,NA
"PDS2014","PC","PDS2014-0032",NA,23,NA,NA,NA,"STDRG","PDS-12345678","Pharmaco-kinetic Concentrations Activity",NA,"2380","ng/mL","2380",2380,"ng/mL",NA,NA,NA,"PLASMA",NA,NA,NA,NA,NA,20,NA,NA,29,"2011-01-08T12:00:00",NA,29,NA,"2H",2,NA,NA,NA,NA
"PDS2014","PC","PDS2014-0032",NA,24,NA,NA,NA,"STDRG","PDS-12345678","Pharmaco-kinetic Concentrations Activity",NA,"1240","ng/mL","1240",1240,"ng/mL",NA,NA,NA,"PLASMA",NA,NA,NA,NA,NA,20,NA,NA,29,"2011-01-08T12:00:00",NA,29,NA,"4H",4,NA,NA,NA,NA
"PDS2014","PC","PDS2014-0032",NA,25,NA,NA,NA,"STDRG","PDS-12345678","Pharmaco-kinetic Concentrations Activity",NA,"810","ng/mL","810",810,"ng/mL",NA,NA,NA,"PLASMA",NA,NA,NA,NA,NA,20,NA,NA,29,"2011-01-08T12:00:00",NA,29,NA,"7H",7,NA,NA,NA,NA
"PDS2014","PC","PDS2014-0032",NA,26,NA,NA,NA,"STDRG","PDS-12345678","Pharmaco-kinetic Concentrations Activity",NA,"50.9","ng/mL","50.9",50.9,"ng/mL",NA,NA,NA,"PLASMA",NA,NA,NA,NA,NA,20,NA,NA,30,"2011-01-09T12:00:00",NA,30,NA,"24H",24,NA,NA,NA,NA
"PDS2014","PC","PDS2014-0033",NA,27,NA,NA,NA,"STDRG","PDS-12345678","Pharmaco-kinetic Concentrations Activity",NA,"1420","ng/mL","1420",1420,"ng/mL",NA,NA,NA,"PLASMA",NA,NA,NA,NA,NA,20,NA,NA,1,"2010-12-11T12:00:00",NA,1,NA,"0.5H",0.5,NA,NA,NA,NA
"PDS2014","PC","PDS2014-0033",NA,28,NA,NA,NA,"STDRG","PDS-12345678","Pharmaco-kinetic Concentrations Activity",NA,"1590","ng/mL","1590",1590,"ng/mL",NA,NA,NA,"PLASMA",NA,NA,NA,NA,NA,20,NA,NA,1,"2010-12-11T12:00:00",NA,1,NA,"1H",1,NA,NA,NA,NA
"PDS2014","PC","PDS2014-0033",NA,29,NA,NA,NA,"STDRG","PDS-12345678","Pharmaco-kinetic Concentrations Activity",NA,"1770","ng/mL","1770",1770,"ng/mL",NA,NA,NA,"PLASMA",NA,NA,NA,NA,NA,20,NA,NA,1,"2010-12-11T12:00:00",NA,1,NA,"2H",2,NA,NA,NA,NA
"PDS2014","PC","PDS2014-0033",NA,30,NA,NA,NA,"STDRG","PDS-12345678","Pharmaco-kinetic Concentrations Activity",NA,"2640","ng/mL","2640",2640,"ng/mL",NA,NA,NA,"PLASMA",NA,NA,NA,NA,NA,20,NA,NA,1,"2010-12-11T12:00:00",NA,1,NA,"4H",4,NA,NA,NA,NA
"PDS2014","PC","PDS2014-0033",NA,31,NA,NA,NA,"STDRG","PDS-12345678","Pharmaco-kinetic Concentrations Activity",NA,"1470","ng/mL","1470",1470,"ng/mL",NA,NA,NA,"PLASMA",NA,NA,NA,NA,NA,20,NA,NA,1,"2010-12-11T12:00:00",NA,1,NA,"7H",7,NA,NA,NA,NA
"PDS2014","PC","PDS2014-0033",NA,32,NA,NA,NA,"STDRG","PDS-12345678","Pharmaco-kinetic Concentrations Activity",NA,"63","ng/mL","63",63,"ng/mL",NA,NA,NA,"PLASMA",NA,NA,NA,NA,NA,20,NA,NA,2,"2010-12-12T12:00:00",NA,2,NA,"24H",24,NA,NA,NA,NA
"PDS2014","PC","PDS2014-0033",NA,33,NA,NA,NA,"STDRG","PDS-12345678","Pharmaco-kinetic Concentrations Activity",NA,"91.6","ng/mL","91.6",91.6,"ng/mL",NA,NA,NA,"PLASMA",NA,NA,NA,NA,NA,20,NA,NA,29,"2011-01-08T12:00:00",NA,29,NA,"0H",0,NA,NA,NA,NA
"PDS2014","PC","PDS2014-0033",NA,34,NA,NA,NA,"STDRG","PDS-12345678","Pharmaco-kinetic Concentrations Activity",NA,"1410","ng/mL","1410",1410,"ng/mL",NA,NA,NA,"PLASMA",NA,NA,NA,NA,NA,20,NA,NA,29,"2011-01-08T12:00:00",NA,29,NA,"0.5H",0.5,NA,NA,NA,NA
"PDS2014","PC","PDS2014-0033",NA,35,NA,NA,NA,"STDRG","PDS-12345678","Pharmaco-kinetic Concentrations Activity",NA,"1990","ng/mL","1990",1990,"ng/mL",NA,NA,NA,"PLASMA",NA,NA,NA,NA,NA,20,NA,NA,29,"2011-01-08T12:00:00",NA,29,NA,"1H",1,NA,NA,NA,NA
"PDS2014","PC","PDS2014-0033",NA,36,NA,NA,NA,"STDRG","PDS-12345678","Pharmaco-kinetic Concentrations Activity",NA,"1750","ng/mL","1750",1750,"ng/mL",NA,NA,NA,"PLASMA",NA,NA,NA,NA,NA,20,NA,NA,29,"2011-01-08T12:00:00",NA,29,NA,"2H",2,NA,NA,NA,NA
"PDS2014","PC","PDS2014-0033",NA,37,NA,NA,NA,"STDRG","PDS-12345678","Pharmaco-kinetic Concentrations Activity",NA,"1540","ng/mL","1540",1540,"ng/mL",NA,NA,NA,"PLASMA",NA,NA,NA,NA,NA,20,NA,NA,29,"2011-01-08T12:00:00",NA,29,NA,"4H",4,NA,NA,NA,NA
"PDS2014","PC","PDS2014-0033",NA,38,NA,NA,NA,"STDRG","PDS-12345678","Pharmaco-kinetic Concentrations Activity",NA,"1180","ng/mL","1180",1180,"ng/mL",NA,NA,NA,"PLASMA",NA,NA,NA,NA,NA,20,NA,NA,29,"2011-01-08T12:00:00",NA,29,NA,"7H",7,NA,NA,NA,NA
"PDS2014","PC","PDS2014-0033",NA,39,NA,NA,NA,"STDRG","PDS-12345678","Pharmaco-kinetic Concentrations Activity",NA,"91.6","ng/mL","91.6",91.6,"ng/mL",NA,NA,NA,"PLASMA",NA,NA,NA,NA,NA,20,NA,NA,30,"2011-01-09T12:00:00",NA,30,NA,"24H",24,NA,NA,NA,NA
"PDS2014","PC","PDS2014-0051",NA,40,NA,NA,NA,"STDRG","PDS-12345678","Pharmaco-kinetic Concentrations Activity",NA,"1350","ng/mL","1350",1350,"ng/mL",NA,NA,NA,"PLASMA",NA,NA,NA,NA,NA,20,NA,NA,1,"2010-12-11T12:00:00",NA,1,NA,"0.5H",0.5,NA,NA,NA,NA
"PDS2014","PC","PDS2014-0051",NA,41,NA,NA,NA,"STDRG","PDS-12345678","Pharmaco-kinetic Concentrations Activity",NA,"1540","ng/mL","1540",1540,"ng/mL",NA,NA,NA,"PLASMA",NA,NA,NA,NA,NA,20,NA,NA,1,"2010-12-11T12:00:00",NA,1,NA,"1H",1,NA,NA,NA,NA
"PDS2014","PC","PDS2014-0051",NA,42,NA,NA,NA,"STDRG","PDS-12345678","Pharmaco-kinetic Concentrations Activity",NA,"1480","ng/mL","1480",1480,"ng/mL",NA,NA,NA,"PLASMA",NA,NA,NA,NA,NA,20,NA,NA,1,"2010-12-11T12:00:00",NA,1,NA,"2H",2,NA,NA,NA,NA
"PDS2014","PC","PDS2014-0051",NA,43,NA,NA,NA,"STDRG","PDS-12345678","Pharmaco-kinetic Concentrations Activity",NA,"1940","ng/mL","1940",1940,"ng/mL",NA,NA,NA,"PLASMA",NA,NA,NA,NA,NA,20,NA,NA,1,"2010-12-11T12:00:00",NA,1,NA,"4H",4,NA,NA,NA,NA
"PDS2014","PC","PDS2014-0051",NA,44,NA,NA,NA,"STDRG","PDS-12345678","Pharmaco-kinetic Concentrations Activity",NA,"2230","ng/mL","2230",2230,"ng/mL",NA,NA,NA,"PLASMA",NA,NA,NA,NA,NA,20,NA,NA,1,"2010-12-11T12:00:00",NA,1,NA,"7H",7,NA,NA,NA,NA
"PDS2014","PC","PDS2014-0051",NA,45,NA,NA,NA,"STDRG","PDS-12345678","Pharmaco-kinetic Concentrations Activity",NA,"2540","ng/mL","2540",2540,"ng/mL",NA,NA,NA,"PLASMA",NA,NA,NA,NA,NA,20,NA,NA,2,"2010-12-12T12:00:00",NA,2,NA,"24H",24,NA,NA,NA,NA
"PDS2014","PC","PDS2014-0051",NA,46,NA,NA,NA,"STDRG","PDS-12345678","Pharmaco-kinetic Concentrations Activity",NA,"351","ng/mL","351",351,"ng/mL",NA,NA,NA,"PLASMA",NA,NA,NA,NA,NA,20,NA,NA,29,"2011-01-08T12:00:00",NA,29,NA,"0H",0,NA,NA,NA,NA
"PDS2014","PC","PDS2014-0051",NA,47,NA,NA,NA,"STDRG","PDS-12345678","Pharmaco-kinetic Concentrations Activity",NA,"1690","ng/mL","1690",1690,"ng/mL",NA,NA,NA,"PLASMA",NA,NA,NA,NA,NA,20,NA,NA,29,"2011-01-08T12:00:00",NA,29,NA,"0.5H",0.5,NA,NA,NA,NA
"PDS2014","PC","PDS2014-0051",NA,48,NA,NA,NA,"STDRG","PDS-12345678","Pharmaco-kinetic Concentrations Activity",NA,"2120","ng/mL","2120",2120,"ng/mL",NA,NA,NA,"PLASMA",NA,NA,NA,NA,NA,20,NA,NA,29,"2011-01-08T12:00:00",NA,29,NA,"1H",1,NA,NA,NA,NA
"PDS2014","PC","PDS2014-0051",NA,49,NA,NA,NA,"STDRG","PDS-12345678","Pharmaco-kinetic Concentrations Activity",NA,"2160","ng/mL","2160",2160,"ng/mL",NA,NA,NA,"PLASMA",NA,NA,NA,NA,NA,20,NA,NA,29,"2011-01-08T12:00:00",NA,29,NA,"2H",2,NA,NA,NA,NA
"PDS2014","PC","PDS2014-0051",NA,50,NA,NA,NA,"STDRG","PDS-12345678","Pharmaco-kinetic Concentrations Activity",NA,"2310","ng/mL","2310",2310,"ng/mL",NA,NA,NA,"PLASMA",NA,NA,NA,NA,NA,20,NA,NA,29,"2011-01-08T12:00:00",NA,29,NA,"4H",4,NA,NA,NA,NA
"PDS2014","PC","PDS2014-0051",NA,51,NA,NA,NA,"STDRG","PDS-12345678","Pharmaco-kinetic Concentrations Activity",NA,"2000","ng/mL","2000",2000,"ng/mL",NA,NA,NA,"PLASMA",NA,NA,NA,NA,NA,20,NA,NA,29,"2011-01-08T12:00:00",NA,29,NA,"7H",7,NA,NA,NA,NA
"PDS2014","PC","PDS2014-0051",NA,52,NA,NA,NA,"STDRG","PDS-12345678","Pharmaco-kinetic Concentrations Activity",NA,"351","ng/mL","351",351,"ng/mL",NA,NA,NA,"PLASMA",NA,NA,NA,NA,NA,20,NA,NA,30,"2011-01-09T12:00:00",NA,30,NA,"24H",24,NA,NA,NA,NA
"PDS2014","PC","PDS2014-0052",NA,53,NA,NA,NA,"STDRG","PDS-12345678","Pharmaco-kinetic Concentrations Activity",NA,"1950","ng/mL","1950",1950,"ng/mL",NA,NA,NA,"PLASMA",NA,NA,NA,NA,NA,20,NA,NA,1,"2010-12-11T12:00:00",NA,1,NA,"0.5H",0.5,NA,NA,NA,NA
"PDS2014","PC","PDS2014-0052",NA,54,NA,NA,NA,"STDRG","PDS-12345678","Pharmaco-kinetic Concentrations Activity",NA,"2030","ng/mL","2030",2030,"ng/mL",NA,NA,NA,"PLASMA",NA,NA,NA,NA,NA,20,NA,NA,1,"2010-12-11T12:00:00",NA,1,NA,"1H",1,NA,NA,NA,NA
"PDS2014","PC","PDS2014-0052",NA,55,NA,NA,NA,"STDRG","PDS-12345678","Pharmaco-kinetic Concentrations Activity",NA,"1890","ng/mL","1890",1890,"ng/mL",NA,NA,NA,"PLASMA",NA,NA,NA,NA,NA,20,NA,NA,1,"2010-12-11T12:00:00",NA,1,NA,"2H",2,NA,NA,NA,NA
"PDS2014","PC","PDS2014-0052",NA,56,NA,NA,NA,"STDRG","PDS-12345678","Pharmaco-kinetic Concentrations Activity",NA,"2030","ng/mL","2030",2030,"ng/mL",NA,NA,NA,"PLASMA",NA,NA,NA,NA,NA,20,NA,NA,1,"2010-12-11T12:00:00",NA,1,NA,"4H",4,NA,NA,NA,NA
"PDS2014","PC","PDS2014-0052",NA,57,NA,NA,NA,"STDRG","PDS-12345678","Pharmaco-kinetic Concentrations Activity",NA,"3770","ng/mL","3770",3770,"ng/mL",NA,NA,NA,"PLASMA",NA,NA,NA,NA,NA,20,NA,NA,1,"2010-12-11T12:00:00",NA,1,NA,"7H",7,NA,NA,NA,NA
"PDS2014","PC","PDS2014-0052",NA,58,NA,NA,NA,"STDRG","PDS-12345678","Pharmaco-kinetic Concentrations Activity",NA,"1490","ng/mL","1490",1490,"ng/mL",NA,NA,NA,"PLASMA",NA,NA,NA,NA,NA,20,NA,NA,2,"2010-12-12T12:00:00",NA,2,NA,"24H",24,NA,NA,NA,NA
"PDS2014","PC","PDS2014-0052",NA,59,NA,NA,NA,"STDRG","PDS-12345678","Pharmaco-kinetic Concentrations Activity",NA,"194","ng/mL","194",194,"ng/mL",NA,NA,NA,"PLASMA",NA,NA,NA,NA,NA,20,NA,NA,29,"2011-01-08T12:00:00",NA,29,NA,"0H",0,NA,NA,NA,NA
"PDS2014","PC","PDS2014-0052",NA,60,NA,NA,NA,"STDRG","PDS-12345678","Pharmaco-kinetic Concentrations Activity",NA,"1380","ng/mL","1380",1380,"ng/mL",NA,NA,NA,"PLASMA",NA,NA,NA,NA,NA,20,NA,NA,29,"2011-01-08T12:00:00",NA,29,NA,"0.5H",0.5,NA,NA,NA,NA
"PDS2014","PC","PDS2014-0052",NA,61,NA,NA,NA,"STDRG","PDS-12345678","Pharmaco-kinetic Concentrations Activity",NA,"2320","ng/mL","2320",2320,"ng/mL",NA,NA,NA,"PLASMA",NA,NA,NA,NA,NA,20,NA,NA,29,"2011-01-08T12:00:00",NA,29,NA,"1H",1,NA,NA,NA,NA
"PDS2014","PC","PDS2014-0052",NA,62,NA,NA,NA,"STDRG","PDS-12345678","Pharmaco-kinetic Concentrations Activity",NA,"2710","ng/mL","2710",2710,"ng/mL",NA,NA,NA,"PLASMA",NA,NA,NA,NA,NA,20,NA,NA,29,"2011-01-08T12:00:00",NA,29,NA,"2H",2,NA,NA,NA,NA
"PDS2014","PC","PDS2014-0052",NA,63,NA,NA,NA,"STDRG","PDS-12345678","Pharmaco-kinetic Concentrations Activity",NA,"2190","ng/mL","2190",2190,"ng/mL",NA,NA,NA,"PLASMA",NA,NA,NA,NA,NA,20,NA,NA,29,"2011-01-08T12:00:00",NA,29,NA,"4H",4,NA,NA,NA,NA
"PDS2014","PC","PDS2014-0052",NA,64,NA,NA,NA,"STDRG","PDS-12345678","Pharmaco-kinetic Concentrations Activity",NA,"1490","ng/mL","1490",1490,"ng/mL",NA,NA,NA,"PLASMA",NA,NA,NA,NA,NA,20,NA,NA,29,"2011-01-08T12:00:00",NA,29,NA,"7H",7,NA,NA,NA,NA
"PDS2014","PC","PDS2014-0052",NA,65,NA,NA,NA,"STDRG","PDS-12345678","Pharmaco-kinetic Concentrations Activity",NA,"194","ng/mL","194",194,"ng/mL",NA,NA,NA,"PLASMA",NA,NA,NA,NA,NA,20,NA,NA,30,"2011-01-09T12:00:00",NA,30,NA,"24H",24,NA,NA,NA,NA
"PDS2014","PC","PDS2014-0053",NA,66,NA,NA,NA,"STDRG","PDS-12345678","Pharmaco-kinetic Concentrations Activity",NA,"1670","ng/mL","1670",1670,"ng/mL",NA,NA,NA,"PLASMA",NA,NA,NA,NA,NA,20,NA,NA,1,"2010-12-11T12:00:00",NA,1,NA,"0.5H",0.5,NA,NA,NA,NA
"PDS2014","PC","PDS2014-0053",NA,67,NA,NA,NA,"STDRG","PDS-12345678","Pharmaco-kinetic Concentrations Activity",NA,"2090","ng/mL","2090",2090,"ng/mL",NA,NA,NA,"PLASMA",NA,NA,NA,NA,NA,20,NA,NA,1,"2010-12-11T12:00:00",NA,1,NA,"1H",1,NA,NA,NA,NA
"PDS2014","PC","PDS2014-0053",NA,68,NA,NA,NA,"STDRG","PDS-12345678","Pharmaco-kinetic Concentrations Activity",NA,"2670","ng/mL","2670",2670,"ng/mL",NA,NA,NA,"PLASMA",NA,NA,NA,NA,NA,20,NA,NA,1,"2010-12-11T12:00:00",NA,1,NA,"2H",2,NA,NA,NA,NA
"PDS2014","PC","PDS2014-0053",NA,69,NA,NA,NA,"STDRG","PDS-12345678","Pharmaco-kinetic Concentrations Activity",NA,"3540","ng/mL","3540",3540,"ng/mL",NA,NA,NA,"PLASMA",NA,NA,NA,NA,NA,20,NA,NA,1,"2010-12-11T12:00:00",NA,1,NA,"4H",4,NA,NA,NA,NA
"PDS2014","PC","PDS2014-0053",NA,70,NA,NA,NA,"STDRG","PDS-12345678","Pharmaco-kinetic Concentrations Activity",NA,"3590","ng/mL","3590",3590,"ng/mL",NA,NA,NA,"PLASMA",NA,NA,NA,NA,NA,20,NA,NA,1,"2010-12-11T12:00:00",NA,1,NA,"7H",7,NA,NA,NA,NA
"PDS2014","PC","PDS2014-0053",NA,71,NA,NA,NA,"STDRG","PDS-12345678","Pharmaco-kinetic Concentrations Activity",NA,"964","ng/mL","964",964,"ng/mL",NA,NA,NA,"PLASMA",NA,NA,NA,NA,NA,20,NA,NA,2,"2010-12-12T12:00:00",NA,2,NA,"24H",24,NA,NA,NA,NA
"PDS2014","PC","PDS2014-0053",NA,72,NA,NA,NA,"STDRG","PDS-12345678","Pharmaco-kinetic Concentrations Activity",NA,"163","ng/mL","163",163,"ng/mL",NA,NA,NA,"PLASMA",NA,NA,NA,NA,NA,20,NA,NA,29,"2011-01-08T12:00:00",NA,29,NA,"0H",0,NA,NA,NA,NA
"PDS2014","PC","PDS2014-0053",NA,73,NA,NA,NA,"STDRG","PDS-12345678","Pharmaco-kinetic Concentrations Activity",NA,"2090","ng/mL","2090",2090,"ng/mL",NA,NA,NA,"PLASMA",NA,NA,NA,NA,NA,20,NA,NA,29,"2011-01-08T12:00:00",NA,29,NA,"0.5H",0.5,NA,NA,NA,NA
"PDS2014","PC","PDS2014-0053",NA,74,NA,NA,NA,"STDRG","PDS-12345678","Pharmaco-kinetic Concentrations Activity",NA,"2760","ng/mL","2760",2760,"ng/mL",NA,NA,NA,"PLASMA",NA,NA,NA,NA,NA,20,NA,NA,29,"2011-01-08T12:00:00",NA,29,NA,"1H",1,NA,NA,NA,NA
"PDS2014","PC","PDS2014-0053",NA,75,NA,NA,NA,"STDRG","PDS-12345678","Pharmaco-kinetic Concentrations Activity",NA,"3090","ng/mL","3090",3090,"ng/mL",NA,NA,NA,"PLASMA",NA,NA,NA,NA,NA,20,NA,NA,29,"2011-01-08T12:00:00",NA,29,NA,"2H",2,NA,NA,NA,NA
"PDS2014","PC","PDS2014-0053",NA,76,NA,NA,NA,"STDRG","PDS-12345678","Pharmaco-kinetic Concentrations Activity",NA,"2200","ng/mL","2200",2200,"ng/mL",NA,NA,NA,"PLASMA",NA,NA,NA,NA,NA,20,NA,NA,29,"2011-01-08T12:00:00",NA,29,NA,"4H",4,NA,NA,NA,NA
"PDS2014","PC","PDS2014-0053",NA,77,NA,NA,NA,"STDRG","PDS-12345678","Pharmaco-kinetic Concentrations Activity",NA,"1530","ng/mL","1530",1530,"ng/mL",NA,NA,NA,"PLASMA",NA,NA,NA,NA,NA,20,NA,NA,29,"2011-01-08T12:00:00",NA,29,NA,"7H",7,NA,NA,NA,NA
"PDS2014","PC","PDS2014-0053",NA,78,NA,NA,NA,"STDRG","PDS-12345678","Pharmaco-kinetic Concentrations Activity",NA,"163","ng/mL","163",163,"ng/mL",NA,NA,NA,"PLASMA",NA,NA,NA,NA,NA,20,NA,NA,30,"2011-01-09T12:00:00",NA,30,NA,"24H",24,NA,NA,NA,NA
"PDS2014","PC","PDS2014-0076",NA,79,NA,NA,NA,"STDRG","PDS-12345678","Pharmaco-kinetic Concentrations Activity",NA,"1950","ng/mL","1950",1950,"ng/mL",NA,NA,NA,"PLASMA",NA,NA,NA,NA,NA,20,NA,NA,1,"2010-12-11T12:00:00",NA,1,NA,"0.5H",0.5,NA,NA,NA,NA
"PDS2014","PC","PDS2014-0076",NA,80,NA,NA,NA,"STDRG","PDS-12345678","Pharmaco-kinetic Concentrations Activity",NA,"1880","ng/mL","1880",1880,"ng/mL",NA,NA,NA,"PLASMA",NA,NA,NA,NA,NA,20,NA,NA,1,"2010-12-11T12:00:00",NA,1,NA,"1H",1,NA,NA,NA,NA
"PDS2014","PC","PDS2014-0076",NA,81,NA,NA,NA,"STDRG","PDS-12345678","Pharmaco-kinetic Concentrations Activity",NA,"2300","ng/mL","2300",2300,"ng/mL",NA,NA,NA,"PLASMA",NA,NA,NA,NA,NA,20,NA,NA,1,"2010-12-11T12:00:00",NA,1,NA,"2H",2,NA,NA,NA,NA
"PDS2014","PC","PDS2014-0076",NA,82,NA,NA,NA,"STDRG","PDS-12345678","Pharmaco-kinetic Concentrations Activity",NA,"3330","ng/mL","3330",3330,"ng/mL",NA,NA,NA,"PLASMA",NA,NA,NA,NA,NA,20,NA,NA,1,"2010-12-11T12:00:00",NA,1,NA,"4H",4,NA,NA,NA,NA
"PDS2014","PC","PDS2014-0076",NA,83,NA,NA,NA,"STDRG","PDS-12345678","Pharmaco-kinetic Concentrations Activity",NA,"3610","ng/mL","3610",3610,"ng/mL",NA,NA,NA,"PLASMA",NA,NA,NA,NA,NA,20,NA,NA,1,"2010-12-11T12:00:00",NA,1,NA,"7H",7,NA,NA,NA,NA
"PDS2014","PC","PDS2014-0076",NA,84,NA,NA,NA,"STDRG","PDS-12345678","Pharmaco-kinetic Concentrations Activity",NA,"1800","ng/mL","1800",1800,"ng/mL",NA,NA,NA,"PLASMA",NA,NA,NA,NA,NA,20,NA,NA,2,"2010-12-12T12:00:00",NA,2,NA,"24H",24,NA,NA,NA,NA
"PDS2014","PC","PDS2014-0076",NA,85,NA,NA,NA,"STDRG","PDS-12345678","Pharmaco-kinetic Concentrations Activity",NA,"217","ng/mL","217",217,"ng/mL",NA,NA,NA,"PLASMA",NA,NA,NA,NA,NA,20,NA,NA,29,"2011-01-08T12:00:00",NA,29,NA,"0H",0,NA,NA,NA,NA
"PDS2014","PC","PDS2014-0076",NA,86,NA,NA,NA,"STDRG","PDS-12345678","Pharmaco-kinetic Concentrations Activity",NA,"2160","ng/mL","2160",2160,"ng/mL",NA,NA,NA,"PLASMA",NA,NA,NA,NA,NA,20,NA,NA,29,"2011-01-08T12:00:00",NA,29,NA,"0.5H",0.5,NA,NA,NA,NA
"PDS2014","PC","PDS2014-0076",NA,87,NA,NA,NA,"STDRG","PDS-12345678","Pharmaco-kinetic Concentrations Activity",NA,"3340","ng/mL","3340",3340,"ng/mL",NA,NA,NA,"PLASMA",NA,NA,NA,NA,NA,20,NA,NA,29,"2011-01-08T12:00:00",NA,29,NA,"1H",1,NA,NA,NA,NA
"PDS2014","PC","PDS2014-0076",NA,88,NA,NA,NA,"STDRG","PDS-12345678","Pharmaco-kinetic Concentrations Activity",NA,"3460","ng/mL","3460",3460,"ng/mL",NA,NA,NA,"PLASMA",NA,NA,NA,NA,NA,20,NA,NA,29,"2011-01-08T12:00:00",NA,29,NA,"2H",2,NA,NA,NA,NA
"PDS2014","PC","PDS2014-0076",NA,89,NA,NA,NA,"STDRG","PDS-12345678","Pharmaco-kinetic Concentrations Activity",NA,"2330","ng/mL","2330",2330,"ng/mL",NA,NA,NA,"PLASMA",NA,NA,NA,NA,NA,20,NA,NA,29,"2011-01-08T12:00:00",NA,29,NA,"4H",4,NA,NA,NA,NA
"PDS2014","PC","PDS2014-0076",NA,90,NA,NA,NA,"STDRG","PDS-12345678","Pharmaco-kinetic Concentrations Activity",NA,"1470","ng/mL","1470",1470,"ng/mL",NA,NA,NA,"PLASMA",NA,NA,NA,NA,NA,20,NA,NA,29,"2011-01-08T12:00:00",NA,29,NA,"7H",7,NA,NA,NA,NA
"PDS2014","PC","PDS2014-0076",NA,91,NA,NA,NA,"STDRG","PDS-12345678","Pharmaco-kinetic Concentrations Activity",NA,"217","ng/mL","217",217,"ng/mL",NA,NA,NA,"PLASMA",NA,NA,NA,NA,NA,20,NA,NA,30,"2011-01-09T12:00:00",NA,30,NA,"24H",24,NA,NA,NA,NA
"PDS2014","PC","PDS2014-0076",NA,92,NA,NA,NA,"STDRG","PDS-12345678","Pharmaco-kinetic Concentrations Activity",NA,"BQL","ng/mL","BQL",NA,"ng/mL",NA,NA,NA,"PLASMA",NA,NA,NA,NA,NA,20,NA,NA,31,"2011-01-10T12:00:00",NA,31,NA,"48H",48,NA,NA,NA,NA
"PDS2014","PC","PDS2014-0076",NA,93,NA,NA,NA,"STDRG","PDS-12345678","Pharmaco-kinetic Concentrations Activity",NA,"BQL","ng/mL","BQL",NA,"ng/mL",NA,NA,NA,"PLASMA",NA,NA,NA,NA,NA,20,NA,NA,32,"2011-01-11T12:00:00",NA,32,NA,"72H",72,NA,NA,NA,NA
"PDS2014","PC","PDS2014-0077",NA,94,NA,NA,NA,"STDRG","PDS-12345678","Pharmaco-kinetic Concentrations Activity",NA,"1470","ng/mL","1470",1470,"ng/mL",NA,NA,NA,"PLASMA",NA,NA,NA,NA,NA,20,NA,NA,1,"2010-12-11T12:00:00",NA,1,NA,"0.5H",0.5,NA,NA,NA,NA
"PDS2014","PC","PDS2014-0077",NA,95,NA,NA,NA,"STDRG","PDS-12345678","Pharmaco-kinetic Concentrations Activity",NA,"1890","ng/mL","1890",1890,"ng/mL",NA,NA,NA,"PLASMA",NA,NA,NA,NA,NA,20,NA,NA,1,"2010-12-11T12:00:00",NA,1,NA,"1H",1,NA,NA,NA,NA
"PDS2014","PC","PDS2014-0077",NA,96,NA,NA,NA,"STDRG","PDS-12345678","Pharmaco-kinetic Concentrations Activity",NA,"2610","ng/mL","2610",2610,"ng/mL",NA,NA,NA,"PLASMA",NA,NA,NA,NA,NA,20,NA,NA,1,"2010-12-11T12:00:00",NA,1,NA,"2H",2,NA,NA,NA,NA
"PDS2014","PC","PDS2014-0077",NA,97,NA,NA,NA,"STDRG","PDS-12345678","Pharmaco-kinetic Concentrations Activity",NA,"4060","ng/mL","4060",4060,"ng/mL",NA,NA,NA,"PLASMA",NA,NA,NA,NA,NA,20,NA,NA,1,"2010-12-11T12:00:00",NA,1,NA,"4H",4,NA,NA,NA,NA
"PDS2014","PC","PDS2014-0077",NA,98,NA,NA,NA,"STDRG","PDS-12345678","Pharmaco-kinetic Concentrations Activity",NA,"2970","ng/mL","2970",2970,"ng/mL",NA,NA,NA,"PLASMA",NA,NA,NA,NA,NA,20,NA,NA,1,"2010-12-11T12:00:00",NA,1,NA,"7H",7,NA,NA,NA,NA
"PDS2014","PC","PDS2014-0077",NA,99,NA,NA,NA,"STDRG","PDS-12345678","Pharmaco-kinetic Concentrations Activity",NA,"754","ng/mL","754",754,"ng/mL",NA,NA,NA,"PLASMA",NA,NA,NA,NA,NA,20,NA,NA,2,"2010-12-12T12:00:00",NA,2,NA,"24H",24,NA,NA,NA,NA
"PDS2014","PC","PDS2014-0077",NA,100,NA,NA,NA,"STDRG","PDS-12345678","Pharmaco-kinetic Concentrations Activity",NA,"1950","ng/mL","1950",1950,"ng/mL",NA,NA,NA,"PLASMA",NA,NA,NA,NA,NA,20,NA,NA,29,"2011-01-08T12:00:00",NA,29,NA,"0H",0,NA,NA,NA,NA
"PDS2014","PC","PDS2014-0077",NA,101,NA,NA,NA,"STDRG","PDS-12345678","Pharmaco-kinetic Concentrations Activity",NA,"2370","ng/mL","2370",2370,"ng/mL",NA,NA,NA,"PLASMA",NA,NA,NA,NA,NA,20,NA,NA,29,"2011-01-08T12:00:00",NA,29,NA,"0.5H",0.5,NA,NA,NA,NA
"PDS2014","PC","PDS2014-0077",NA,102,NA,NA,NA,"STDRG","PDS-12345678","Pharmaco-kinetic Concentrations Activity",NA,"6760","ng/mL","6760",6760,"ng/mL",NA,NA,NA,"PLASMA",NA,NA,NA,NA,NA,20,NA,NA,29,"2011-01-08T12:00:00",NA,29,NA,"1H",1,NA,NA,NA,NA
"PDS2014","PC","PDS2014-0077",NA,103,NA,NA,NA,"STDRG","PDS-12345678","Pharmaco-kinetic Concentrations Activity",NA,"5840","ng/mL","5840",5840,"ng/mL",NA,NA,NA,"PLASMA",NA,NA,NA,NA,NA,20,NA,NA,29,"2011-01-08T12:00:00",NA,29,NA,"2H",2,NA,NA,NA,NA
"PDS2014","PC","PDS2014-0077",NA,104,NA,NA,NA,"STDRG","PDS-12345678","Pharmaco-kinetic Concentrations Activity",NA,"5270","ng/mL","5270",5270,"ng/mL",NA,NA,NA,"PLASMA",NA,NA,NA,NA,NA,20,NA,NA,29,"2011-01-08T12:00:00",NA,29,NA,"4H",4,NA,NA,NA,NA
"PDS2014","PC","PDS2014-0077",NA,105,NA,NA,NA,"STDRG","PDS-12345678","Pharmaco-kinetic Concentrations Activity",NA,"5230","ng/mL","5230",5230,"ng/mL",NA,NA,NA,"PLASMA",NA,NA,NA,NA,NA,20,NA,NA,29,"2011-01-08T12:00:00",NA,29,NA,"7H",7,NA,NA,NA,NA
"PDS2014","PC","PDS2014-0077",NA,106,NA,NA,NA,"STDRG","PDS-12345678","Pharmaco-kinetic Concentrations Activity",NA,"1950","ng/mL","1950",1950,"ng/mL",NA,NA,NA,"PLASMA",NA,NA,NA,NA,NA,20,NA,NA,30,"2011-01-09T12:00:00",NA,30,NA,"24H",24,NA,NA,NA,NA
"PDS2014","PC","PDS2014-0077",NA,107,NA,NA,NA,"STDRG","PDS-12345678","Pharmaco-kinetic Concentrations Activity",NA,"BQL","ng/mL","BQL",NA,"ng/mL",NA,NA,NA,"PLASMA",NA,NA,NA,NA,NA,20,NA,NA,31,"2011-01-10T12:00:00",NA,31,NA,"48H",48,NA,NA,NA,NA
"PDS2014","PC","PDS2014-0077",NA,108,NA,NA,NA,"STDRG","PDS-12345678","Pharmaco-kinetic Concentrations Activity",NA,"BQL","ng/mL","BQL",NA,"ng/mL",NA,NA,NA,"PLASMA",NA,NA,NA,NA,NA,20,NA,NA,32,"2011-01-11T12:00:00",NA,32,NA,"72H",72,NA,NA,NA,NA
"PDS2014","PC","PDS2014-0078",NA,109,NA,NA,NA,"STDRG","PDS-12345678","Pharmaco-kinetic Concentrations Activity",NA,"1400","ng/mL","1400",1400,"ng/mL",NA,NA,NA,"PLASMA",NA,NA,NA,NA,NA,20,NA,NA,1,"2010-12-11T12:00:00",NA,1,NA,"0.5H",0.5,NA,NA,NA,NA
"PDS2014","PC","PDS2014-0078",NA,110,NA,NA,NA,"STDRG","PDS-12345678","Pharmaco-kinetic Concentrations Activity",NA,"2240","ng/mL","2240",2240,"ng/mL",NA,NA,NA,"PLASMA",NA,NA,NA,NA,NA,20,NA,NA,1,"2010-12-11T12:00:00",NA,1,NA,"1H",1,NA,NA,NA,NA
"PDS2014","PC","PDS2014-0078",NA,111,NA,NA,NA,"STDRG","PDS-12345678","Pharmaco-kinetic Concentrations Activity",NA,"2750","ng/mL","2750",2750,"ng/mL",NA,NA,NA,"PLASMA",NA,NA,NA,NA,NA,20,NA,NA,1,"2010-12-11T12:00:00",NA,1,NA,"2H",2,NA,NA,NA,NA
"PDS2014","PC","PDS2014-0078",NA,112,NA,NA,NA,"STDRG","PDS-12345678","Pharmaco-kinetic Concentrations Activity",NA,"4190","ng/mL","4190",4190,"ng/mL",NA,NA,NA,"PLASMA",NA,NA,NA,NA,NA,20,NA,NA,1,"2010-12-11T12:00:00",NA,1,NA,"4H",4,NA,NA,NA,NA
"PDS2014","PC","PDS2014-0078",NA,113,NA,NA,NA,"STDRG","PDS-12345678","Pharmaco-kinetic Concentrations Activity",NA,"3960","ng/mL","3960",3960,"ng/mL",NA,NA,NA,"PLASMA",NA,NA,NA,NA,NA,20,NA,NA,1,"2010-12-11T12:00:00",NA,1,NA,"7H",7,NA,NA,NA,NA
"PDS2014","PC","PDS2014-0078",NA,114,NA,NA,NA,"STDRG","PDS-12345678","Pharmaco-kinetic Concentrations Activity",NA,"3190","ng/mL","3190",3190,"ng/mL",NA,NA,NA,"PLASMA",NA,NA,NA,NA,NA,20,NA,NA,2,"2010-12-12T12:00:00",NA,2,NA,"24H",24,NA,NA,NA,NA
"PDS2014","PC","PDS2014-0078",NA,115,NA,NA,NA,"STDRG","PDS-12345678","Pharmaco-kinetic Concentrations Activity",NA,"1010","ng/mL","1010",1010,"ng/mL",NA,NA,NA,"PLASMA",NA,NA,NA,NA,NA,20,NA,NA,29,"2011-01-08T12:00:00",NA,29,NA,"0H",0,NA,NA,NA,NA
"PDS2014","PC","PDS2014-0078",NA,116,NA,NA,NA,"STDRG","PDS-12345678","Pharmaco-kinetic Concentrations Activity",NA,"2420","ng/mL","2420",2420,"ng/mL",NA,NA,NA,"PLASMA",NA,NA,NA,NA,NA,20,NA,NA,29,"2011-01-08T12:00:00",NA,29,NA,"0.5H",0.5,NA,NA,NA,NA
"PDS2014","PC","PDS2014-0078",NA,117,NA,NA,NA,"STDRG","PDS-12345678","Pharmaco-kinetic Concentrations Activity",NA,"1880","ng/mL","1880",1880,"ng/mL",NA,NA,NA,"PLASMA",NA,NA,NA,NA,NA,20,NA,NA,29,"2011-01-08T12:00:00",NA,29,NA,"1H",1,NA,NA,NA,NA
"PDS2014","PC","PDS2014-0078",NA,118,NA,NA,NA,"STDRG","PDS-12345678","Pharmaco-kinetic Concentrations Activity",NA,"4150","ng/mL","4150",4150,"ng/mL",NA,NA,NA,"PLASMA",NA,NA,NA,NA,NA,20,NA,NA,29,"2011-01-08T12:00:00",NA,29,NA,"2H",2,NA,NA,NA,NA
"PDS2014","PC","PDS2014-0078",NA,119,NA,NA,NA,"STDRG","PDS-12345678","Pharmaco-kinetic Concentrations Activity",NA,"3160","ng/mL","3160",3160,"ng/mL",NA,NA,NA,"PLASMA",NA,NA,NA,NA,NA,20,NA,NA,29,"2011-01-08T12:00:00",NA,29,NA,"4H",4,NA,NA,NA,NA
"PDS2014","PC","PDS2014-0078",NA,120,NA,NA,NA,"STDRG","PDS-12345678","Pharmaco-kinetic Concentrations Activity",NA,"2230","ng/mL","2230",2230,"ng/mL",NA,NA,NA,"PLASMA",NA,NA,NA,NA,NA,20,NA,NA,29,"2011-01-08T12:00:00",NA,29,NA,"7H",7,NA,NA,NA,NA
"PDS2014","PC","PDS2014-0078",NA,121,NA,NA,NA,"STDRG","PDS-12345678","Pharmaco-kinetic Concentrations Activity",NA,"1010","ng/mL","1010",1010,"ng/mL",NA,NA,NA,"PLASMA",NA,NA,NA,NA,NA,20,NA,NA,30,"2011-01-09T12:00:00",NA,30,NA,"24H",24,NA,NA,NA,NA
"PDS2014","PC","PDS2014-0078",NA,122,NA,NA,NA,"STDRG","PDS-12345678","Pharmaco-kinetic Concentrations Activity",NA,"BQL","ng/mL","BQL",NA,"ng/mL",NA,NA,NA,"PLASMA",NA,NA,NA,NA,NA,20,NA,NA,31,"2011-01-10T12:00:00",NA,31,NA,"48H",48,NA,NA,NA,NA
"PDS2014","PC","PDS2014-0078",NA,123,NA,NA,NA,"STDRG","PDS-12345678","Pharmaco-kinetic Concentrations Activity",NA,"BQL","ng/mL","BQL",NA,"ng/mL",NA,NA,NA,"PLASMA",NA,NA,NA,NA,NA,20,NA,NA,32,"2011-01-11T12:00:00",NA,32,NA,"72H",72,NA,NA,NA,NA
"PDS2014","PC","PDS2014-0131",NA,124,NA,NA,NA,"STDRG","PDS-12345678","Pharmaco-kinetic Concentrations Activity",NA,"2200","ng/mL","2200",2200,"ng/mL",NA,NA,NA,"PLASMA",NA,NA,NA,NA,NA,20,NA,NA,1,"2010-12-11T12:00:00",NA,1,NA,"0.5H",0.5,NA,NA,NA,NA
"PDS2014","PC","PDS2014-0131",NA,125,NA,NA,NA,"STDRG","PDS-12345678","Pharmaco-kinetic Concentrations Activity",NA,"2680","ng/mL","2680",2680,"ng/mL",NA,NA,NA,"PLASMA",NA,NA,NA,NA,NA,20,NA,NA,1,"2010-12-11T12:00:00",NA,1,NA,"1H",1,NA,NA,NA,NA
"PDS2014","PC","PDS2014-0131",NA,126,NA,NA,NA,"STDRG","PDS-12345678","Pharmaco-kinetic Concentrations Activity",NA,"3560","ng/mL","3560",3560,"ng/mL",NA,NA,NA,"PLASMA",NA,NA,NA,NA,NA,20,NA,NA,1,"2010-12-11T12:00:00",NA,1,NA,"2H",2,NA,NA,NA,NA
"PDS2014","PC","PDS2014-0131",NA,127,NA,NA,NA,"STDRG","PDS-12345678","Pharmaco-kinetic Concentrations Activity",NA,"2740","ng/mL","2740",2740,"ng/mL",NA,NA,NA,"PLASMA",NA,NA,NA,NA,NA,20,NA,NA,1,"2010-12-11T12:00:00",NA,1,NA,"4H",4,NA,NA,NA,NA
"PDS2014","PC","PDS2014-0131",NA,128,NA,NA,NA,"STDRG","PDS-12345678","Pharmaco-kinetic Concentrations Activity",NA,"1110","ng/mL","1110",1110,"ng/mL",NA,NA,NA,"PLASMA",NA,NA,NA,NA,NA,20,NA,NA,1,"2010-12-11T12:00:00",NA,1,NA,"7H",7,NA,NA,NA,NA
"PDS2014","PC","PDS2014-0131",NA,129,NA,NA,NA,"STDRG","PDS-12345678","Pharmaco-kinetic Concentrations Activity",NA,"BQL","ng/mL","BQL",NA,"ng/mL",NA,NA,NA,"PLASMA",NA,NA,NA,NA,NA,20,NA,NA,2,"2010-12-12T12:00:00",NA,2,NA,"24H",24,NA,NA,NA,NA
"PDS2014","PC","PDS2014-0131",NA,130,NA,NA,NA,"STDRG","PDS-12345678","Pharmaco-kinetic Concentrations Activity",NA,"BQL","ng/mL","BQL",NA,"ng/mL",NA,NA,NA,"PLASMA",NA,NA,NA,NA,NA,20,NA,NA,29,"2011-01-08T12:00:00",NA,29,NA,"0H",0,NA,NA,NA,NA
"PDS2014","PC","PDS2014-0131",NA,131,NA,NA,NA,"STDRG","PDS-12345678","Pharmaco-kinetic Concentrations Activity",NA,"2100","ng/mL","2100",2100,"ng/mL",NA,NA,NA,"PLASMA",NA,NA,NA,NA,NA,20,NA,NA,29,"2011-01-08T12:00:00",NA,29,NA,"0.5H",0.5,NA,NA,NA,NA
"PDS2014","PC","PDS2014-0131",NA,132,NA,NA,NA,"STDRG","PDS-12345678","Pharmaco-kinetic Concentrations Activity",NA,"2790","ng/mL","2790",2790,"ng/mL",NA,NA,NA,"PLASMA",NA,NA,NA,NA,NA,20,NA,NA,29,"2011-01-08T12:00:00",NA,29,NA,"1H",1,NA,NA,NA,NA
"PDS2014","PC","PDS2014-0131",NA,133,NA,NA,NA,"STDRG","PDS-12345678","Pharmaco-kinetic Concentrations Activity",NA,"2560","ng/mL","2560",2560,"ng/mL",NA,NA,NA,"PLASMA",NA,NA,NA,NA,NA,20,NA,NA,29,"2011-01-08T12:00:00",NA,29,NA,"2H",2,NA,NA,NA,NA
"PDS2014","PC","PDS2014-0131",NA,134,NA,NA,NA,"STDRG","PDS-12345678","Pharmaco-kinetic Concentrations Activity",NA,"1440","ng/mL","1440",1440,"ng/mL",NA,NA,NA,"PLASMA",NA,NA,NA,NA,NA,20,NA,NA,29,"2011-01-08T12:00:00",NA,29,NA,"4H",4,NA,NA,NA,NA
"PDS2014","PC","PDS2014-0131",NA,135,NA,NA,NA,"STDRG","PDS-12345678","Pharmaco-kinetic Concentrations Activity",NA,"766","ng/mL","766",766,"ng/mL",NA,NA,NA,"PLASMA",NA,NA,NA,NA,NA,20,NA,NA,29,"2011-01-08T12:00:00",NA,29,NA,"7H",7,NA,NA,NA,NA
"PDS2014","PC","PDS2014-0131",NA,136,NA,NA,NA,"STDRG","PDS-12345678","Pharmaco-kinetic Concentrations Activity",NA,"BQL","ng/mL","BQL",NA,"ng/mL",NA,NA,NA,"PLASMA",NA,NA,NA,NA,NA,20,NA,NA,30,"2011-01-09T12:00:00",NA,30,NA,"24H",24,NA,NA,NA,NA
"PDS2014","PC","PDS2014-0132",NA,137,NA,NA,NA,"STDRG","PDS-12345678","Pharmaco-kinetic Concentrations Activity",NA,"1930","ng/mL","1930",1930,"ng/mL",NA,NA,NA,"PLASMA",NA,NA,NA,NA,NA,20,NA,NA,1,"2010-12-11T12:00:00",NA,1,NA,"0.5H",0.5,NA,NA,NA,NA
"PDS2014","PC","PDS2014-0132",NA,138,NA,NA,NA,"STDRG","PDS-12345678","Pharmaco-kinetic Concentrations Activity",NA,"2790","ng/mL","2790",2790,"ng/mL",NA,NA,NA,"PLASMA",NA,NA,NA,NA,NA,20,NA,NA,1,"2010-12-11T12:00:00",NA,1,NA,"1H",1,NA,NA,NA,NA
"PDS2014","PC","PDS2014-0132",NA,139,NA,NA,NA,"STDRG","PDS-12345678","Pharmaco-kinetic Concentrations Activity",NA,"2830","ng/mL","2830",2830,"ng/mL",NA,NA,NA,"PLASMA",NA,NA,NA,NA,NA,20,NA,NA,1,"2010-12-11T12:00:00",NA,1,NA,"2H",2,NA,NA,NA,NA
"PDS2014","PC","PDS2014-0132",NA,140,NA,NA,NA,"STDRG","PDS-12345678","Pharmaco-kinetic Concentrations Activity",NA,"3480","ng/mL","3480",3480,"ng/mL",NA,NA,NA,"PLASMA",NA,NA,NA,NA,NA,20,NA,NA,1,"2010-12-11T12:00:00",NA,1,NA,"4H",4,NA,NA,NA,NA
"PDS2014","PC","PDS2014-0132",NA,141,NA,NA,NA,"STDRG","PDS-12345678","Pharmaco-kinetic Concentrations Activity",NA,"1950","ng/mL","1950",1950,"ng/mL",NA,NA,NA,"PLASMA",NA,NA,NA,NA,NA,20,NA,NA,1,"2010-12-11T12:00:00",NA,1,NA,"7H",7,NA,NA,NA,NA
"PDS2014","PC","PDS2014-0132",NA,142,NA,NA,NA,"STDRG","PDS-12345678","Pharmaco-kinetic Concentrations Activity",NA,"24.5","ng/mL","24.5",24.5,"ng/mL",NA,NA,NA,"PLASMA",NA,NA,NA,NA,NA,20,NA,NA,2,"2010-12-12T12:00:00",NA,2,NA,"24H",24,NA,NA,NA,NA
"PDS2014","PC","PDS2014-0132",NA,143,NA,NA,NA,"STDRG","PDS-12345678","Pharmaco-kinetic Concentrations Activity",NA,"33.6","ng/mL","33.6",33.6,"ng/mL",NA,NA,NA,"PLASMA",NA,NA,NA,NA,NA,20,NA,NA,29,"2011-01-08T12:00:00",NA,29,NA,"0H",0,NA,NA,NA,NA
"PDS2014","PC","PDS2014-0132",NA,144,NA,NA,NA,"STDRG","PDS-12345678","Pharmaco-kinetic Concentrations Activity",NA,"2430","ng/mL","2430",2430,"ng/mL",NA,NA,NA,"PLASMA",NA,NA,NA,NA,NA,20,NA,NA,29,"2011-01-08T12:00:00",NA,29,NA,"0.5H",0.5,NA,NA,NA,NA
"PDS2014","PC","PDS2014-0132",NA,145,NA,NA,NA,"STDRG","PDS-12345678","Pharmaco-kinetic Concentrations Activity",NA,"3070","ng/mL","3070",3070,"ng/mL",NA,NA,NA,"PLASMA",NA,NA,NA,NA,NA,20,NA,NA,29,"2011-01-08T12:00:00",NA,29,NA,"1H",1,NA,NA,NA,NA
"PDS2014","PC","PDS2014-0132",NA,146,NA,NA,NA,"STDRG","PDS-12345678","Pharmaco-kinetic Concentrations Activity",NA,"3100","ng/mL","3100",3100,"ng/mL",NA,NA,NA,"PLASMA",NA,NA,NA,NA,NA,20,NA,NA,29,"2011-01-08T12:00:00",NA,29,NA,"2H",2,NA,NA,NA,NA
"PDS2014","PC","PDS2014-0132",NA,147,NA,NA,NA,"STDRG","PDS-12345678","Pharmaco-kinetic Concentrations Activity",NA,"2130","ng/mL","2130",2130,"ng/mL",NA,NA,NA,"PLASMA",NA,NA,NA,NA,NA,20,NA,NA,29,"2011-01-08T12:00:00",NA,29,NA,"4H",4,NA,NA,NA,NA
"PDS2014","PC","PDS2014-0132",NA,148,NA,NA,NA,"STDRG","PDS-12345678","Pharmaco-kinetic Concentrations Activity",NA,"776","ng/mL","776",776,"ng/mL",NA,NA,NA,"PLASMA",NA,NA,NA,NA,NA,20,NA,NA,29,"2011-01-08T12:00:00",NA,29,NA,"7H",7,NA,NA,NA,NA
"PDS2014","PC","PDS2014-0132",NA,149,NA,NA,NA,"STDRG","PDS-12345678","Pharmaco-kinetic Concentrations Activity",NA,"33.6","ng/mL","33.6",33.6,"ng/mL",NA,NA,NA,"PLASMA",NA,NA,NA,NA,NA,20,NA,NA,30,"2011-01-09T12:00:00",NA,30,NA,"24H",24,NA,NA,NA,NA
"PDS2014","PC","PDS2014-0133",NA,150,NA,NA,NA,"STDRG","PDS-12345678","Pharmaco-kinetic Concentrations Activity",NA,"2210","ng/mL","2210",2210,"ng/mL",NA,NA,NA,"PLASMA",NA,NA,NA,NA,NA,20,NA,NA,1,"2010-12-11T12:00:00",NA,1,NA,"0.5H",0.5,NA,NA,NA,NA
"PDS2014","PC","PDS2014-0133",NA,151,NA,NA,NA,"STDRG","PDS-12345678","Pharmaco-kinetic Concentrations Activity",NA,"2210","ng/mL","2210",2210,"ng/mL",NA,NA,NA,"PLASMA",NA,NA,NA,NA,NA,20,NA,NA,1,"2010-12-11T12:00:00",NA,1,NA,"1H",1,NA,NA,NA,NA
"PDS2014","PC","PDS2014-0133",NA,152,NA,NA,NA,"STDRG","PDS-12345678","Pharmaco-kinetic Concentrations Activity",NA,"2090","ng/mL","2090",2090,"ng/mL",NA,NA,NA,"PLASMA",NA,NA,NA,NA,NA,20,NA,NA,1,"2010-12-11T12:00:00",NA,1,NA,"2H",2,NA,NA,NA,NA
"PDS2014","PC","PDS2014-0133",NA,153,NA,NA,NA,"STDRG","PDS-12345678","Pharmaco-kinetic Concentrations Activity",NA,"1350","ng/mL","1350",1350,"ng/mL",NA,NA,NA,"PLASMA",NA,NA,NA,NA,NA,20,NA,NA,1,"2010-12-11T12:00:00",NA,1,NA,"4H",4,NA,NA,NA,NA
"PDS2014","PC","PDS2014-0133",NA,154,NA,NA,NA,"STDRG","PDS-12345678","Pharmaco-kinetic Concentrations Activity",NA,"751","ng/mL","751",751,"ng/mL",NA,NA,NA,"PLASMA",NA,NA,NA,NA,NA,20,NA,NA,1,"2010-12-11T12:00:00",NA,1,NA,"7H",7,NA,NA,NA,NA
"PDS2014","PC","PDS2014-0133",NA,155,NA,NA,NA,"STDRG","PDS-12345678","Pharmaco-kinetic Concentrations Activity",NA,"38.9","ng/mL","38.9",38.9,"ng/mL",NA,NA,NA,"PLASMA",NA,NA,NA,NA,NA,20,NA,NA,2,"2010-12-12T12:00:00",NA,2,NA,"24H",24,NA,NA,NA,NA
"PDS2014","PC","PDS2014-0133",NA,156,NA,NA,NA,"STDRG","PDS-12345678","Pharmaco-kinetic Concentrations Activity",NA,"BQL","ng/mL","BQL",NA,"ng/mL",NA,NA,NA,"PLASMA",NA,NA,NA,NA,NA,20,NA,NA,29,"2011-01-08T12:00:00",NA,29,NA,"0H",0,NA,NA,NA,NA
"PDS2014","PC","PDS2014-0133",NA,157,NA,NA,NA,"STDRG","PDS-12345678","Pharmaco-kinetic Concentrations Activity",NA,"1580","ng/mL","1580",1580,"ng/mL",NA,NA,NA,"PLASMA",NA,NA,NA,NA,NA,20,NA,NA,29,"2011-01-08T12:00:00",NA,29,NA,"0.5H",0.5,NA,NA,NA,NA
"PDS2014","PC","PDS2014-0133",NA,158,NA,NA,NA,"STDRG","PDS-12345678","Pharmaco-kinetic Concentrations Activity",NA,"2100","ng/mL","2100",2100,"ng/mL",NA,NA,NA,"PLASMA",NA,NA,NA,NA,NA,20,NA,NA,29,"2011-01-08T12:00:00",NA,29,NA,"1H",1,NA,NA,NA,NA
"PDS2014","PC","PDS2014-0133",NA,159,NA,NA,NA,"STDRG","PDS-12345678","Pharmaco-kinetic Concentrations Activity",NA,"2000","ng/mL","2000",2000,"ng/mL",NA,NA,NA,"PLASMA",NA,NA,NA,NA,NA,20,NA,NA,29,"2011-01-08T12:00:00",NA,29,NA,"2H",2,NA,NA,NA,NA
"PDS2014","PC","PDS2014-0133",NA,160,NA,NA,NA,"STDRG","PDS-12345678","Pharmaco-kinetic Concentrations Activity",NA,"1120","ng/mL","1120",1120,"ng/mL",NA,NA,NA,"PLASMA",NA,NA,NA,NA,NA,20,NA,NA,29,"2011-01-08T12:00:00",NA,29,NA,"4H",4,NA,NA,NA,NA
"PDS2014","PC","PDS2014-0133",NA,161,NA,NA,NA,"STDRG","PDS-12345678","Pharmaco-kinetic Concentrations Activity",NA,"768","ng/mL","768",768,"ng/mL",NA,NA,NA,"PLASMA",NA,NA,NA,NA,NA,20,NA,NA,29,"2011-01-08T12:00:00",NA,29,NA,"7H",7,NA,NA,NA,NA
"PDS2014","PC","PDS2014-0133",NA,162,NA,NA,NA,"STDRG","PDS-12345678","Pharmaco-kinetic Concentrations Activity",NA,"BQL","ng/mL","BQL",NA,"ng/mL",NA,NA,NA,"PLASMA",NA,NA,NA,NA,NA,20,NA,NA,30,"2011-01-09T12:00:00",NA,30,NA,"24H",24,NA,NA,NA,NA
"PDS2014","PC","PDS2014-0151",NA,163,NA,NA,NA,"STDRG","PDS-12345678","Pharmaco-kinetic Concentrations Activity",NA,"2500","ng/mL","2500",2500,"ng/mL",NA,NA,NA,"PLASMA",NA,NA,NA,NA,NA,20,NA,NA,1,"2010-12-11T12:00:00",NA,1,NA,"0.5H",0.5,NA,NA,NA,NA
"PDS2014","PC","PDS2014-0151",NA,164,NA,NA,NA,"STDRG","PDS-12345678","Pharmaco-kinetic Concentrations Activity",NA,"3710","ng/mL","3710",3710,"ng/mL",NA,NA,NA,"PLASMA",NA,NA,NA,NA,NA,20,NA,NA,1,"2010-12-11T12:00:00",NA,1,NA,"1H",1,NA,NA,NA,NA
"PDS2014","PC","PDS2014-0151",NA,165,NA,NA,NA,"STDRG","PDS-12345678","Pharmaco-kinetic Concentrations Activity",NA,"4470","ng/mL","4470",4470,"ng/mL",NA,NA,NA,"PLASMA",NA,NA,NA,NA,NA,20,NA,NA,1,"2010-12-11T12:00:00",NA,1,NA,"2H",2,NA,NA,NA,NA
"PDS2014","PC","PDS2014-0151",NA,166,NA,NA,NA,"STDRG","PDS-12345678","Pharmaco-kinetic Concentrations Activity",NA,"6210","ng/mL","6210",6210,"ng/mL",NA,NA,NA,"PLASMA",NA,NA,NA,NA,NA,20,NA,NA,1,"2010-12-11T12:00:00",NA,1,NA,"4H",4,NA,NA,NA,NA
"PDS2014","PC","PDS2014-0151",NA,167,NA,NA,NA,"STDRG","PDS-12345678","Pharmaco-kinetic Concentrations Activity",NA,"4610","ng/mL","4610",4610,"ng/mL",NA,NA,NA,"PLASMA",NA,NA,NA,NA,NA,20,NA,NA,1,"2010-12-11T12:00:00",NA,1,NA,"7H",7,NA,NA,NA,NA
"PDS2014","PC","PDS2014-0151",NA,168,NA,NA,NA,"STDRG","PDS-12345678","Pharmaco-kinetic Concentrations Activity",NA,"4080","ng/mL","4080",4080,"ng/mL",NA,NA,NA,"PLASMA",NA,NA,NA,NA,NA,20,NA,NA,2,"2010-12-12T12:00:00",NA,2,NA,"24H",24,NA,NA,NA,NA
"PDS2014","PC","PDS2014-0151",NA,169,NA,NA,NA,"STDRG","PDS-12345678","Pharmaco-kinetic Concentrations Activity",NA,"207","ng/mL","207",207,"ng/mL",NA,NA,NA,"PLASMA",NA,NA,NA,NA,NA,20,NA,NA,29,"2011-01-08T12:00:00",NA,29,NA,"0H",0,NA,NA,NA,NA
"PDS2014","PC","PDS2014-0151",NA,170,NA,NA,NA,"STDRG","PDS-12345678","Pharmaco-kinetic Concentrations Activity",NA,"3400","ng/mL","3400",3400,"ng/mL",NA,NA,NA,"PLASMA",NA,NA,NA,NA,NA,20,NA,NA,29,"2011-01-08T12:00:00",NA,29,NA,"0.5H",0.5,NA,NA,NA,NA
"PDS2014","PC","PDS2014-0151",NA,171,NA,NA,NA,"STDRG","PDS-12345678","Pharmaco-kinetic Concentrations Activity",NA,"4720","ng/mL","4720",4720,"ng/mL",NA,NA,NA,"PLASMA",NA,NA,NA,NA,NA,20,NA,NA,29,"2011-01-08T12:00:00",NA,29,NA,"1H",1,NA,NA,NA,NA
"PDS2014","PC","PDS2014-0151",NA,172,NA,NA,NA,"STDRG","PDS-12345678","Pharmaco-kinetic Concentrations Activity",NA,"4450","ng/mL","4450",4450,"ng/mL",NA,NA,NA,"PLASMA",NA,NA,NA,NA,NA,20,NA,NA,29,"2011-01-08T12:00:00",NA,29,NA,"2H",2,NA,NA,NA,NA
"PDS2014","PC","PDS2014-0151",NA,173,NA,NA,NA,"STDRG","PDS-12345678","Pharmaco-kinetic Concentrations Activity",NA,"3690","ng/mL","3690",3690,"ng/mL",NA,NA,NA,"PLASMA",NA,NA,NA,NA,NA,20,NA,NA,29,"2011-01-08T12:00:00",NA,29,NA,"4H",4,NA,NA,NA,NA
"PDS2014","PC","PDS2014-0151",NA,174,NA,NA,NA,"STDRG","PDS-12345678","Pharmaco-kinetic Concentrations Activity",NA,"3070","ng/mL","3070",3070,"ng/mL",NA,NA,NA,"PLASMA",NA,NA,NA,NA,NA,20,NA,NA,29,"2011-01-08T12:00:00",NA,29,NA,"7H",7,NA,NA,NA,NA
"PDS2014","PC","PDS2014-0151",NA,175,NA,NA,NA,"STDRG","PDS-12345678","Pharmaco-kinetic Concentrations Activity",NA,"207","ng/mL","207",207,"ng/mL",NA,NA,NA,"PLASMA",NA,NA,NA,NA,NA,20,NA,NA,30,"2011-01-09T12:00:00",NA,30,NA,"24H",24,NA,NA,NA,NA
"PDS2014","PC","PDS2014-0152",NA,176,NA,NA,NA,"STDRG","PDS-12345678","Pharmaco-kinetic Concentrations Activity",NA,"3450","ng/mL","3450",3450,"ng/mL",NA,NA,NA,"PLASMA",NA,NA,NA,NA,NA,20,NA,NA,1,"2010-12-11T12:00:00",NA,1,NA,"0.5H",0.5,NA,NA,NA,NA
"PDS2014","PC","PDS2014-0152",NA,177,NA,NA,NA,"STDRG","PDS-12345678","Pharmaco-kinetic Concentrations Activity",NA,"3760","ng/mL","3760",3760,"ng/mL",NA,NA,NA,"PLASMA",NA,NA,NA,NA,NA,20,NA,NA,1,"2010-12-11T12:00:00",NA,1,NA,"1H",1,NA,NA,NA,NA
"PDS2014","PC","PDS2014-0152",NA,178,NA,NA,NA,"STDRG","PDS-12345678","Pharmaco-kinetic Concentrations Activity",NA,"5010","ng/mL","5010",5010,"ng/mL",NA,NA,NA,"PLASMA",NA,NA,NA,NA,NA,20,NA,NA,1,"2010-12-11T12:00:00",NA,1,NA,"2H",2,NA,NA,NA,NA
"PDS2014","PC","PDS2014-0152",NA,179,NA,NA,NA,"STDRG","PDS-12345678","Pharmaco-kinetic Concentrations Activity",NA,"5550","ng/mL","5550",5550,"ng/mL",NA,NA,NA,"PLASMA",NA,NA,NA,NA,NA,20,NA,NA,1,"2010-12-11T12:00:00",NA,1,NA,"4H",4,NA,NA,NA,NA
"PDS2014","PC","PDS2014-0152",NA,180,NA,NA,NA,"STDRG","PDS-12345678","Pharmaco-kinetic Concentrations Activity",NA,"4710","ng/mL","4710",4710,"ng/mL",NA,NA,NA,"PLASMA",NA,NA,NA,NA,NA,20,NA,NA,1,"2010-12-11T12:00:00",NA,1,NA,"7H",7,NA,NA,NA,NA
"PDS2014","PC","PDS2014-0152",NA,181,NA,NA,NA,"STDRG","PDS-12345678","Pharmaco-kinetic Concentrations Activity",NA,"2700","ng/mL","2700",2700,"ng/mL",NA,NA,NA,"PLASMA",NA,NA,NA,NA,NA,20,NA,NA,2,"2010-12-12T12:00:00",NA,2,NA,"24H",24,NA,NA,NA,NA
"PDS2014","PC","PDS2014-0152",NA,182,NA,NA,NA,"STDRG","PDS-12345678","Pharmaco-kinetic Concentrations Activity",NA,"469","ng/mL","469",469,"ng/mL",NA,NA,NA,"PLASMA",NA,NA,NA,NA,NA,20,NA,NA,29,"2011-01-08T12:00:00",NA,29,NA,"0H",0,NA,NA,NA,NA
"PDS2014","PC","PDS2014-0152",NA,183,NA,NA,NA,"STDRG","PDS-12345678","Pharmaco-kinetic Concentrations Activity",NA,"4110","ng/mL","4110",4110,"ng/mL",NA,NA,NA,"PLASMA",NA,NA,NA,NA,NA,20,NA,NA,29,"2011-01-08T12:00:00",NA,29,NA,"0.5H",0.5,NA,NA,NA,NA
"PDS2014","PC","PDS2014-0152",NA,184,NA,NA,NA,"STDRG","PDS-12345678","Pharmaco-kinetic Concentrations Activity",NA,"5770","ng/mL","5770",5770,"ng/mL",NA,NA,NA,"PLASMA",NA,NA,NA,NA,NA,20,NA,NA,29,"2011-01-08T12:00:00",NA,29,NA,"1H",1,NA,NA,NA,NA
"PDS2014","PC","PDS2014-0152",NA,185,NA,NA,NA,"STDRG","PDS-12345678","Pharmaco-kinetic Concentrations Activity",NA,"7770","ng/mL","7770",7770,"ng/mL",NA,NA,NA,"PLASMA",NA,NA,NA,NA,NA,20,NA,NA,29,"2011-01-08T12:00:00",NA,29,NA,"2H",2,NA,NA,NA,NA
"PDS2014","PC","PDS2014-0152",NA,186,NA,NA,NA,"STDRG","PDS-12345678","Pharmaco-kinetic Concentrations Activity",NA,"6660","ng/mL","6660",6660,"ng/mL",NA,NA,NA,"PLASMA",NA,NA,NA,NA,NA,20,NA,NA,29,"2011-01-08T12:00:00",NA,29,NA,"4H",4,NA,NA,NA,NA
"PDS2014","PC","PDS2014-0152",NA,187,NA,NA,NA,"STDRG","PDS-12345678","Pharmaco-kinetic Concentrations Activity",NA,"4500","ng/mL","4500",4500,"ng/mL",NA,NA,NA,"PLASMA",NA,NA,NA,NA,NA,20,NA,NA,29,"2011-01-08T12:00:00",NA,29,NA,"7H",7,NA,NA,NA,NA
"PDS2014","PC","PDS2014-0152",NA,188,NA,NA,NA,"STDRG","PDS-12345678","Pharmaco-kinetic Concentrations Activity",NA,"469","ng/mL","469",469,"ng/mL",NA,NA,NA,"PLASMA",NA,NA,NA,NA,NA,20,NA,NA,30,"2011-01-09T12:00:00",NA,30,NA,"24H",24,NA,NA,NA,NA
"PDS2014","PC","PDS2014-0153",NA,189,NA,NA,NA,"STDRG","PDS-12345678","Pharmaco-kinetic Concentrations Activity",NA,"1770","ng/mL","1770",1770,"ng/mL",NA,NA,NA,"PLASMA",NA,NA,NA,NA,NA,20,NA,NA,1,"2010-12-11T12:00:00",NA,1,NA,"0.5H",0.5,NA,NA,NA,NA
"PDS2014","PC","PDS2014-0153",NA,190,NA,NA,NA,"STDRG","PDS-12345678","Pharmaco-kinetic Concentrations Activity",NA,"2070","ng/mL","2070",2070,"ng/mL",NA,NA,NA,"PLASMA",NA,NA,NA,NA,NA,20,NA,NA,1,"2010-12-11T12:00:00",NA,1,NA,"1H",1,NA,NA,NA,NA
"PDS2014","PC","PDS2014-0153",NA,191,NA,NA,NA,"STDRG","PDS-12345678","Pharmaco-kinetic Concentrations Activity",NA,"2690","ng/mL","2690",2690,"ng/mL",NA,NA,NA,"PLASMA",NA,NA,NA,NA,NA,20,NA,NA,1,"2010-12-11T12:00:00",NA,1,NA,"2H",2,NA,NA,NA,NA
"PDS2014","PC","PDS2014-0153",NA,192,NA,NA,NA,"STDRG","PDS-12345678","Pharmaco-kinetic Concentrations Activity",NA,"3070","ng/mL","3070",3070,"ng/mL",NA,NA,NA,"PLASMA",NA,NA,NA,NA,NA,20,NA,NA,1,"2010-12-11T12:00:00",NA,1,NA,"4H",4,NA,NA,NA,NA
"PDS2014","PC","PDS2014-0153",NA,193,NA,NA,NA,"STDRG","PDS-12345678","Pharmaco-kinetic Concentrations Activity",NA,"1210","ng/mL","1210",1210,"ng/mL",NA,NA,NA,"PLASMA",NA,NA,NA,NA,NA,20,NA,NA,1,"2010-12-11T12:00:00",NA,1,NA,"7H",7,NA,NA,NA,NA
"PDS2014","PC","PDS2014-0153",NA,194,NA,NA,NA,"STDRG","PDS-12345678","Pharmaco-kinetic Concentrations Activity",NA,"3800","ng/mL","3800",3800,"ng/mL",NA,NA,NA,"PLASMA",NA,NA,NA,NA,NA,20,NA,NA,2,"2010-12-12T12:00:00",NA,2,NA,"24H",24,NA,NA,NA,NA
"PDS2014","PC","PDS2014-0153",NA,195,NA,NA,NA,"STDRG","PDS-12345678","Pharmaco-kinetic Concentrations Activity",NA,"110","ng/mL","110",110,"ng/mL",NA,NA,NA,"PLASMA",NA,NA,NA,NA,NA,20,NA,NA,29,"2011-01-08T12:00:00",NA,29,NA,"0H",0,NA,NA,NA,NA
"PDS2014","PC","PDS2014-0153",NA,196,NA,NA,NA,"STDRG","PDS-12345678","Pharmaco-kinetic Concentrations Activity",NA,"3200","ng/mL","3200",3200,"ng/mL",NA,NA,NA,"PLASMA",NA,NA,NA,NA,NA,20,NA,NA,29,"2011-01-08T12:00:00",NA,29,NA,"0.5H",0.5,NA,NA,NA,NA
"PDS2014","PC","PDS2014-0153",NA,197,NA,NA,NA,"STDRG","PDS-12345678","Pharmaco-kinetic Concentrations Activity",NA,"3710","ng/mL","3710",3710,"ng/mL",NA,NA,NA,"PLASMA",NA,NA,NA,NA,NA,20,NA,NA,29,"2011-01-08T12:00:00",NA,29,NA,"1H",1,NA,NA,NA,NA
"PDS2014","PC","PDS2014-0153",NA,198,NA,NA,NA,"STDRG","PDS-12345678","Pharmaco-kinetic Concentrations Activity",NA,"4760","ng/mL","4760",4760,"ng/mL",NA,NA,NA,"PLASMA",NA,NA,NA,NA,NA,20,NA,NA,29,"2011-01-08T12:00:00",NA,29,NA,"2H",2,NA,NA,NA,NA
"PDS2014","PC","PDS2014-0153",NA,199,NA,NA,NA,"STDRG","PDS-12345678","Pharmaco-kinetic Concentrations Activity",NA,"4230","ng/mL","4230",4230,"ng/mL",NA,NA,NA,"PLASMA",NA,NA,NA,NA,NA,20,NA,NA,29,"2011-01-08T12:00:00",NA,29,NA,"4H",4,NA,NA,NA,NA
"PDS2014","PC","PDS2014-0153",NA,200,NA,NA,NA,"STDRG","PDS-12345678","Pharmaco-kinetic Concentrations Activity",NA,"3020","ng/mL","3020",3020,"ng/mL",NA,NA,NA,"PLASMA",NA,NA,NA,NA,NA,20,NA,NA,29,"2011-01-08T12:00:00",NA,29,NA,"7H",7,NA,NA,NA,NA
"PDS2014","PC","PDS2014-0153",NA,201,NA,NA,NA,"STDRG","PDS-12345678","Pharmaco-kinetic Concentrations Activity",NA,"110","ng/mL","110",110,"ng/mL",NA,NA,NA,"PLASMA",NA,NA,NA,NA,NA,20,NA,NA,30,"2011-01-09T12:00:00",NA,30,NA,"24H",24,NA,NA,NA,NA
"PDS2014","PC","PDS2014-0176",NA,202,NA,NA,NA,"STDRG","PDS-12345678","Pharmaco-kinetic Concentrations Activity",NA,"1180","ng/mL","1180",1180,"ng/mL",NA,NA,NA,"PLASMA",NA,NA,NA,NA,NA,20,NA,NA,1,"2010-12-11T12:00:00",NA,1,NA,"0.5H",0.5,NA,NA,NA,NA
"PDS2014","PC","PDS2014-0176",NA,203,NA,NA,NA,"STDRG","PDS-12345678","Pharmaco-kinetic Concentrations Activity",NA,"3570","ng/mL","3570",3570,"ng/mL",NA,NA,NA,"PLASMA",NA,NA,NA,NA,NA,20,NA,NA,1,"2010-12-11T12:00:00",NA,1,NA,"1H",1,NA,NA,NA,NA
"PDS2014","PC","PDS2014-0176",NA,204,NA,NA,NA,"STDRG","PDS-12345678","Pharmaco-kinetic Concentrations Activity",NA,"4810","ng/mL","4810",4810,"ng/mL",NA,NA,NA,"PLASMA",NA,NA,NA,NA,NA,20,NA,NA,1,"2010-12-11T12:00:00",NA,1,NA,"2H",2,NA,NA,NA,NA
"PDS2014","PC","PDS2014-0176",NA,205,NA,NA,NA,"STDRG","PDS-12345678","Pharmaco-kinetic Concentrations Activity",NA,"5860","ng/mL","5860",5860,"ng/mL",NA,NA,NA,"PLASMA",NA,NA,NA,NA,NA,20,NA,NA,1,"2010-12-11T12:00:00",NA,1,NA,"4H",4,NA,NA,NA,NA
"PDS2014","PC","PDS2014-0176",NA,206,NA,NA,NA,"STDRG","PDS-12345678","Pharmaco-kinetic Concentrations Activity",NA,"4750","ng/mL","4750",4750,"ng/mL",NA,NA,NA,"PLASMA",NA,NA,NA,NA,NA,20,NA,NA,1,"2010-12-11T12:00:00",NA,1,NA,"7H",7,NA,NA,NA,NA
"PDS2014","PC","PDS2014-0176",NA,207,NA,NA,NA,"STDRG","PDS-12345678","Pharmaco-kinetic Concentrations Activity",NA,"4370","ng/mL","4370",4370,"ng/mL",NA,NA,NA,"PLASMA",NA,NA,NA,NA,NA,20,NA,NA,2,"2010-12-12T12:00:00",NA,2,NA,"24H",24,NA,NA,NA,NA
"PDS2014","PC","PDS2014-0176",NA,208,NA,NA,NA,"STDRG","PDS-12345678","Pharmaco-kinetic Concentrations Activity",NA,"1300","ng/mL","1300",1300,"ng/mL",NA,NA,NA,"PLASMA",NA,NA,NA,NA,NA,20,NA,NA,29,"2011-01-08T12:00:00",NA,29,NA,"0H",0,NA,NA,NA,NA
"PDS2014","PC","PDS2014-0176",NA,209,NA,NA,NA,"STDRG","PDS-12345678","Pharmaco-kinetic Concentrations Activity",NA,"3360","ng/mL","3360",3360,"ng/mL",NA,NA,NA,"PLASMA",NA,NA,NA,NA,NA,20,NA,NA,29,"2011-01-08T12:00:00",NA,29,NA,"0.5H",0.5,NA,NA,NA,NA
"PDS2014","PC","PDS2014-0176",NA,210,NA,NA,NA,"STDRG","PDS-12345678","Pharmaco-kinetic Concentrations Activity",NA,"4750","ng/mL","4750",4750,"ng/mL",NA,NA,NA,"PLASMA",NA,NA,NA,NA,NA,20,NA,NA,29,"2011-01-08T12:00:00",NA,29,NA,"1H",1,NA,NA,NA,NA
"PDS2014","PC","PDS2014-0176",NA,211,NA,NA,NA,"STDRG","PDS-12345678","Pharmaco-kinetic Concentrations Activity",NA,"5110","ng/mL","5110",5110,"ng/mL",NA,NA,NA,"PLASMA",NA,NA,NA,NA,NA,20,NA,NA,29,"2011-01-08T12:00:00",NA,29,NA,"2H",2,NA,NA,NA,NA
"PDS2014","PC","PDS2014-0176",NA,212,NA,NA,NA,"STDRG","PDS-12345678","Pharmaco-kinetic Concentrations Activity",NA,"4150","ng/mL","4150",4150,"ng/mL",NA,NA,NA,"PLASMA",NA,NA,NA,NA,NA,20,NA,NA,29,"2011-01-08T12:00:00",NA,29,NA,"4H",4,NA,NA,NA,NA
"PDS2014","PC","PDS2014-0176",NA,213,NA,NA,NA,"STDRG","PDS-12345678","Pharmaco-kinetic Concentrations Activity",NA,"2670","ng/mL","2670",2670,"ng/mL",NA,NA,NA,"PLASMA",NA,NA,NA,NA,NA,20,NA,NA,29,"2011-01-08T12:00:00",NA,29,NA,"7H",7,NA,NA,NA,NA
"PDS2014","PC","PDS2014-0176",NA,214,NA,NA,NA,"STDRG","PDS-12345678","Pharmaco-kinetic Concentrations Activity",NA,"1300","ng/mL","1300",1300,"ng/mL",NA,NA,NA,"PLASMA",NA,NA,NA,NA,NA,20,NA,NA,30,"2011-01-09T12:00:00",NA,30,NA,"24H",24,NA,NA,NA,NA
"PDS2014","PC","PDS2014-0176",NA,215,NA,NA,NA,"STDRG","PDS-12345678","Pharmaco-kinetic Concentrations Activity",NA,"BQL","ng/mL","BQL",NA,"ng/mL",NA,NA,NA,"PLASMA",NA,NA,NA,NA,NA,20,NA,NA,31,"2011-01-10T12:00:00",NA,31,NA,"48H",48,NA,NA,NA,NA
"PDS2014","PC","PDS2014-0176",NA,216,NA,NA,NA,"STDRG","PDS-12345678","Pharmaco-kinetic Concentrations Activity",NA,"70.3","ng/mL","70.3",70.3,"ng/mL",NA,NA,NA,"PLASMA",NA,NA,NA,NA,NA,20,NA,NA,32,"2011-01-11T12:00:00",NA,32,NA,"72H",72,NA,NA,NA,NA
"PDS2014","PC","PDS2014-0177",NA,217,NA,NA,NA,"STDRG","PDS-12345678","Pharmaco-kinetic Concentrations Activity",NA,"2000","ng/mL","2000",2000,"ng/mL",NA,NA,NA,"PLASMA",NA,NA,NA,NA,NA,20,NA,NA,1,"2010-12-11T12:00:00",NA,1,NA,"0.5H",0.5,NA,NA,NA,NA
"PDS2014","PC","PDS2014-0177",NA,218,NA,NA,NA,"STDRG","PDS-12345678","Pharmaco-kinetic Concentrations Activity",NA,"2910","ng/mL","2910",2910,"ng/mL",NA,NA,NA,"PLASMA",NA,NA,NA,NA,NA,20,NA,NA,1,"2010-12-11T12:00:00",NA,1,NA,"1H",1,NA,NA,NA,NA
"PDS2014","PC","PDS2014-0177",NA,219,NA,NA,NA,"STDRG","PDS-12345678","Pharmaco-kinetic Concentrations Activity",NA,"3230","ng/mL","3230",3230,"ng/mL",NA,NA,NA,"PLASMA",NA,NA,NA,NA,NA,20,NA,NA,1,"2010-12-11T12:00:00",NA,1,NA,"2H",2,NA,NA,NA,NA
"PDS2014","PC","PDS2014-0177",NA,220,NA,NA,NA,"STDRG","PDS-12345678","Pharmaco-kinetic Concentrations Activity",NA,"4380","ng/mL","4380",4380,"ng/mL",NA,NA,NA,"PLASMA",NA,NA,NA,NA,NA,20,NA,NA,1,"2010-12-11T12:00:00",NA,1,NA,"4H",4,NA,NA,NA,NA
"PDS2014","PC","PDS2014-0177",NA,221,NA,NA,NA,"STDRG","PDS-12345678","Pharmaco-kinetic Concentrations Activity",NA,"5230","ng/mL","5230",5230,"ng/mL",NA,NA,NA,"PLASMA",NA,NA,NA,NA,NA,20,NA,NA,1,"2010-12-11T12:00:00",NA,1,NA,"7H",7,NA,NA,NA,NA
"PDS2014","PC","PDS2014-0177",NA,222,NA,NA,NA,"STDRG","PDS-12345678","Pharmaco-kinetic Concentrations Activity",NA,"1930","ng/mL","1930",1930,"ng/mL",NA,NA,NA,"PLASMA",NA,NA,NA,NA,NA,20,NA,NA,2,"2010-12-12T12:00:00",NA,2,NA,"24H",24,NA,NA,NA,NA
"PDS2014","PC","PDS2014-0177",NA,223,NA,NA,NA,"STDRG","PDS-12345678","Pharmaco-kinetic Concentrations Activity",NA,"57.6","ng/mL","57.6",57.6,"ng/mL",NA,NA,NA,"PLASMA",NA,NA,NA,NA,NA,20,NA,NA,29,"2011-01-08T12:00:00",NA,29,NA,"0H",0,NA,NA,NA,NA
"PDS2014","PC","PDS2014-0177",NA,224,NA,NA,NA,"STDRG","PDS-12345678","Pharmaco-kinetic Concentrations Activity",NA,"4980","ng/mL","4980",4980,"ng/mL",NA,NA,NA,"PLASMA",NA,NA,NA,NA,NA,20,NA,NA,29,"2011-01-08T12:00:00",NA,29,NA,"0.5H",0.5,NA,NA,NA,NA
"PDS2014","PC","PDS2014-0177",NA,225,NA,NA,NA,"STDRG","PDS-12345678","Pharmaco-kinetic Concentrations Activity",NA,"5410","ng/mL","5410",5410,"ng/mL",NA,NA,NA,"PLASMA",NA,NA,NA,NA,NA,20,NA,NA,29,"2011-01-08T12:00:00",NA,29,NA,"1H",1,NA,NA,NA,NA
"PDS2014","PC","PDS2014-0177",NA,226,NA,NA,NA,"STDRG","PDS-12345678","Pharmaco-kinetic Concentrations Activity",NA,"5610","ng/mL","5610",5610,"ng/mL",NA,NA,NA,"PLASMA",NA,NA,NA,NA,NA,20,NA,NA,29,"2011-01-08T12:00:00",NA,29,NA,"2H",2,NA,NA,NA,NA
"PDS2014","PC","PDS2014-0177",NA,227,NA,NA,NA,"STDRG","PDS-12345678","Pharmaco-kinetic Concentrations Activity",NA,"4180","ng/mL","4180",4180,"ng/mL",NA,NA,NA,"PLASMA",NA,NA,NA,NA,NA,20,NA,NA,29,"2011-01-08T12:00:00",NA,29,NA,"4H",4,NA,NA,NA,NA
"PDS2014","PC","PDS2014-0177",NA,228,NA,NA,NA,"STDRG","PDS-12345678","Pharmaco-kinetic Concentrations Activity",NA,"2680","ng/mL","2680",2680,"ng/mL",NA,NA,NA,"PLASMA",NA,NA,NA,NA,NA,20,NA,NA,29,"2011-01-08T12:00:00",NA,29,NA,"7H",7,NA,NA,NA,NA
"PDS2014","PC","PDS2014-0177",NA,229,NA,NA,NA,"STDRG","PDS-12345678","Pharmaco-kinetic Concentrations Activity",NA,"57.6","ng/mL","57.6",57.6,"ng/mL",NA,NA,NA,"PLASMA",NA,NA,NA,NA,NA,20,NA,NA,30,"2011-01-09T12:00:00",NA,30,NA,"24H",24,NA,NA,NA,NA
"PDS2014","PC","PDS2014-0177",NA,230,NA,NA,NA,"STDRG","PDS-12345678","Pharmaco-kinetic Concentrations Activity",NA,"BQL","ng/mL","BQL",NA,"ng/mL",NA,NA,NA,"PLASMA",NA,NA,NA,NA,NA,20,NA,NA,31,"2011-01-10T12:00:00",NA,31,NA,"48H",48,NA,NA,NA,NA
"PDS2014","PC","PDS2014-0177",NA,231,NA,NA,NA,"STDRG","PDS-12345678","Pharmaco-kinetic Concentrations Activity",NA,"BQL","ng/mL","BQL",NA,"ng/mL",NA,NA,NA,"PLASMA",NA,NA,NA,NA,NA,20,NA,NA,32,"2011-01-11T12:00:00",NA,32,NA,"72H",72,NA,NA,NA,NA
"PDS2014","PC","PDS2014-0178",NA,232,NA,NA,NA,"STDRG","PDS-12345678","Pharmaco-kinetic Concentrations Activity",NA,"2760","ng/mL","2760",2760,"ng/mL",NA,NA,NA,"PLASMA",NA,NA,NA,NA,NA,20,NA,NA,1,"2010-12-11T12:00:00",NA,1,NA,"0.5H",0.5,NA,NA,NA,NA
"PDS2014","PC","PDS2014-0178",NA,233,NA,NA,NA,"STDRG","PDS-12345678","Pharmaco-kinetic Concentrations Activity",NA,"3670","ng/mL","3670",3670,"ng/mL",NA,NA,NA,"PLASMA",NA,NA,NA,NA,NA,20,NA,NA,1,"2010-12-11T12:00:00",NA,1,NA,"1H",1,NA,NA,NA,NA
"PDS2014","PC","PDS2014-0178",NA,234,NA,NA,NA,"STDRG","PDS-12345678","Pharmaco-kinetic Concentrations Activity",NA,"4120","ng/mL","4120",4120,"ng/mL",NA,NA,NA,"PLASMA",NA,NA,NA,NA,NA,20,NA,NA,1,"2010-12-11T12:00:00",NA,1,NA,"2H",2,NA,NA,NA,NA
"PDS2014","PC","PDS2014-0178",NA,235,NA,NA,NA,"STDRG","PDS-12345678","Pharmaco-kinetic Concentrations Activity",NA,"4280","ng/mL","4280",4280,"ng/mL",NA,NA,NA,"PLASMA",NA,NA,NA,NA,NA,20,NA,NA,1,"2010-12-11T12:00:00",NA,1,NA,"4H",4,NA,NA,NA,NA
"PDS2014","PC","PDS2014-0178",NA,236,NA,NA,NA,"STDRG","PDS-12345678","Pharmaco-kinetic Concentrations Activity",NA,"4040","ng/mL","4040",4040,"ng/mL",NA,NA,NA,"PLASMA",NA,NA,NA,NA,NA,20,NA,NA,1,"2010-12-11T12:00:00",NA,1,NA,"7H",7,NA,NA,NA,NA
"PDS2014","PC","PDS2014-0178",NA,237,NA,NA,NA,"STDRG","PDS-12345678","Pharmaco-kinetic Concentrations Activity",NA,"3470","ng/mL","3470",3470,"ng/mL",NA,NA,NA,"PLASMA",NA,NA,NA,NA,NA,20,NA,NA,2,"2010-12-12T12:00:00",NA,2,NA,"24H",24,NA,NA,NA,NA
"PDS2014","PC","PDS2014-0178",NA,238,NA,NA,NA,"STDRG","PDS-12345678","Pharmaco-kinetic Concentrations Activity",NA,"4860","ng/mL","4860",4860,"ng/mL",NA,NA,NA,"PLASMA",NA,NA,NA,NA,NA,20,NA,NA,29,"2011-01-08T12:00:00",NA,29,NA,"0H",0,NA,NA,NA,NA
"PDS2014","PC","PDS2014-0178",NA,239,NA,NA,NA,"STDRG","PDS-12345678","Pharmaco-kinetic Concentrations Activity",NA,"8320","ng/mL","8320",8320,"ng/mL",NA,NA,NA,"PLASMA",NA,NA,NA,NA,NA,20,NA,NA,29,"2011-01-08T12:00:00",NA,29,NA,"0.5H",0.5,NA,NA,NA,NA
"PDS2014","PC","PDS2014-0178",NA,240,NA,NA,NA,"STDRG","PDS-12345678","Pharmaco-kinetic Concentrations Activity",NA,"9840","ng/mL","9840",9840,"ng/mL",NA,NA,NA,"PLASMA",NA,NA,NA,NA,NA,20,NA,NA,29,"2011-01-08T12:00:00",NA,29,NA,"1H",1,NA,NA,NA,NA
"PDS2014","PC","PDS2014-0178",NA,241,NA,NA,NA,"STDRG","PDS-12345678","Pharmaco-kinetic Concentrations Activity",NA,"10400","ng/mL","10400",10400,"ng/mL",NA,NA,NA,"PLASMA",NA,NA,NA,NA,NA,20,NA,NA,29,"2011-01-08T12:00:00",NA,29,NA,"2H",2,NA,NA,NA,NA
"PDS2014","PC","PDS2014-0178",NA,242,NA,NA,NA,"STDRG","PDS-12345678","Pharmaco-kinetic Concentrations Activity",NA,"9540","ng/mL","9540",9540,"ng/mL",NA,NA,NA,"PLASMA",NA,NA,NA,NA,NA,20,NA,NA,29,"2011-01-08T12:00:00",NA,29,NA,"4H",4,NA,NA,NA,NA
"PDS2014","PC","PDS2014-0178",NA,243,NA,NA,NA,"STDRG","PDS-12345678","Pharmaco-kinetic Concentrations Activity",NA,"8740","ng/mL","8740",8740,"ng/mL",NA,NA,NA,"PLASMA",NA,NA,NA,NA,NA,20,NA,NA,29,"2011-01-08T12:00:00",NA,29,NA,"7H",7,NA,NA,NA,NA
"PDS2014","PC","PDS2014-0178",NA,244,NA,NA,NA,"STDRG","PDS-12345678","Pharmaco-kinetic Concentrations Activity",NA,"4860","ng/mL","4860",4860,"ng/mL",NA,NA,NA,"PLASMA",NA,NA,NA,NA,NA,20,NA,NA,30,"2011-01-09T12:00:00",NA,30,NA,"24H",24,NA,NA,NA,NA
"PDS2014","PC","PDS2014-0178",NA,245,NA,NA,NA,"STDRG","PDS-12345678","Pharmaco-kinetic Concentrations Activity",NA,"BQL","ng/mL","BQL",NA,"ng/mL",NA,NA,NA,"PLASMA",NA,NA,NA,NA,NA,20,NA,NA,31,"2011-01-10T12:00:00",NA,31,NA,"48H",48,NA,NA,NA,NA
"PDS2014","PC","PDS2014-0178",NA,246,NA,NA,NA,"STDRG","PDS-12345678","Pharmaco-kinetic Concentrations Activity",NA,"BQL","ng/mL","BQL",NA,"ng/mL",NA,NA,NA,"PLASMA",NA,NA,NA,NA,NA,20,NA,NA,32,"2011-01-11T12:00:00",NA,32,NA,"72H",72,NA,NA,NA,NA
