<?xml version="1.0" encoding="UTF-8" standalone="no"?>
<?xml-stylesheet type='text/xsl' href='define2-0-0.xsl'?>
<ODM xmlns="http://www.cdisc.org/ns/odm/v1.3" xmlns:def="http://www.cdisc.org/ns/def/v2.0" xmlns:xlink="http://www.w3.org/1999/xlink" AsOfDateTime="2017-08-02T19:36:17" CreationDateTime="2017-08-02T19:36:17" FileOID="PC201708" FileType="Snapshot" ODMVersion="1.3.2">
  <Study OID="PC201708">
    <GlobalVariables>
      <StudyName>PC201708</StudyName>
      <StudyDescription>13-Week Repeat Dose Toxicity Study on PCDRUG in Rats</StudyDescription>
      <ProtocolName>PC201708</ProtocolName>
    </GlobalVariables>
    <MetaDataVersion Description="13-Week Repeat Dose Toxicity Study on PCDRUG in Rats" Name="PC201708" OID="PC201708" def:DefineVersion="2.0.0" def:StandardName="SEND-IG" def:StandardVersion="3.0">
      <ItemGroupDef Domain="TA" IsReferenceData="Yes" Name="TA" OID="IG.TA" Purpose="Tabulation" Repeating="No" SASDatasetName="TA" def:ArchiveLocationID="LF.TA" def:Class="Trial Design" def:Structure="One record per planned Element per Arm">
        <Description>
          <TranslatedText xml:lang="en">Trial Arms</TranslatedText>
        </Description>
        <ItemRef ItemOID="IT.STUDYID" KeySequence="1" Mandatory="Yes" OrderNumber="1"/>
        <ItemRef ItemOID="IT.TA.DOMAIN" Mandatory="Yes" OrderNumber="2"/>
        <ItemRef ItemOID="IT.TA.ARMCD" KeySequence="2" Mandatory="Yes" OrderNumber="3"/>
        <ItemRef ItemOID="IT.TA.ARM" Mandatory="Yes" OrderNumber="4"/>
        <ItemRef ItemOID="IT.TA.TAETORD" KeySequence="3" Mandatory="Yes" OrderNumber="5"/>
        <ItemRef ItemOID="IT.TA.ETCD" Mandatory="Yes" OrderNumber="6"/>
        <ItemRef ItemOID="IT.TA.ELEMENT" Mandatory="No" OrderNumber="7"/>
        <ItemRef ItemOID="IT.TA.TABRANCH" Mandatory="No" OrderNumber="8"/>
        <ItemRef ItemOID="IT.TA.EPOCH" Mandatory="No" OrderNumber="9"/>
        <def:leaf ID="LF.TA" xlink:href="ta.xpt">
          <def:title>ta.xpt</def:title>
        </def:leaf>
      </ItemGroupDef>
      <ItemGroupDef Domain="TE" IsReferenceData="Yes" Name="TE" OID="IG.TE" Purpose="Tabulation" Repeating="No" SASDatasetName="TE" def:ArchiveLocationID="LF.TE" def:Class="Trial Design" def:Structure="One record per planned Element">
        <Description>
          <TranslatedText xml:lang="en">Trial Elements</TranslatedText>
        </Description>
        <ItemRef ItemOID="IT.STUDYID" KeySequence="1" Mandatory="Yes" OrderNumber="1"/>
        <ItemRef ItemOID="IT.TE.DOMAIN" Mandatory="Yes" OrderNumber="2"/>
        <ItemRef ItemOID="IT.TE.ETCD" KeySequence="2" Mandatory="Yes" OrderNumber="3"/>
        <ItemRef ItemOID="IT.TE.ELEMENT" Mandatory="Yes" OrderNumber="4"/>
        <ItemRef ItemOID="IT.TE.TESTRL" Mandatory="Yes" OrderNumber="5"/>
        <ItemRef ItemOID="IT.TE.TEENRL" Mandatory="No" OrderNumber="6"/>
        <ItemRef ItemOID="IT.TE.TEDUR" Mandatory="No" OrderNumber="7"/>
        <def:leaf ID="LF.TE" xlink:href="te.xpt">
          <def:title>te.xpt</def:title>
        </def:leaf>
      </ItemGroupDef>
      <ItemGroupDef Domain="TS" IsReferenceData="Yes" Name="TS" OID="IG.TS" Purpose="Tabulation" Repeating="No" SASDatasetName="TS" def:ArchiveLocationID="LF.TS" def:Class="Trial Design" def:Structure="One record per Trial Summary parameter value">
        <Description>
          <TranslatedText xml:lang="en">Trial Summary</TranslatedText>
        </Description>
        <ItemRef ItemOID="IT.STUDYID" KeySequence="1" Mandatory="Yes" OrderNumber="1"/>
        <ItemRef ItemOID="IT.TS.DOMAIN" Mandatory="Yes" OrderNumber="2"/>
        <ItemRef ItemOID="IT.TS.TSSEQ" KeySequence="3" Mandatory="Yes" MethodOID="MT.TSSEQ" OrderNumber="3"/>
        <ItemRef ItemOID="IT.TS.TSGRPID" Mandatory="No" OrderNumber="4"/>
        <ItemRef ItemOID="IT.TS.TSPARMCD" KeySequence="2" Mandatory="Yes" OrderNumber="5"/>
        <ItemRef ItemOID="IT.TS.TSPARM" Mandatory="Yes" OrderNumber="6"/>
        <ItemRef ItemOID="IT.TS.TSVAL" Mandatory="Yes" OrderNumber="7"/>
        <def:leaf ID="LF.TS" xlink:href="ts.xpt">
          <def:title>ts.xpt</def:title>
        </def:leaf>
      </ItemGroupDef>
      <ItemGroupDef Domain="TX" IsReferenceData="Yes" Name="TX" OID="IG.TX" Purpose="Tabulation" Repeating="No" SASDatasetName="TX" def:ArchiveLocationID="LF.TX" def:Class="Trial Design" def:Structure="One record per Trial Set parameter per Trial Set">
        <Description>
          <TranslatedText xml:lang="en">Trial Sets</TranslatedText>
        </Description>
        <ItemRef ItemOID="IT.STUDYID" KeySequence="1" Mandatory="Yes" OrderNumber="1"/>
        <ItemRef ItemOID="IT.TX.DOMAIN" Mandatory="Yes" OrderNumber="2"/>
        <ItemRef ItemOID="IT.TX.SETCD" KeySequence="2" Mandatory="Yes" OrderNumber="3"/>
        <ItemRef ItemOID="IT.TX.SET" Mandatory="Yes" OrderNumber="4"/>
        <ItemRef ItemOID="IT.TX.TXSEQ" Mandatory="Yes" MethodOID="MT.TXSEQ" OrderNumber="5"/>
        <ItemRef ItemOID="IT.TX.TXPARMCD" KeySequence="3" Mandatory="Yes" OrderNumber="6"/>
        <ItemRef ItemOID="IT.TX.TXPARM" Mandatory="Yes" OrderNumber="7"/>
        <ItemRef ItemOID="IT.TX.TXVAL" Mandatory="Yes" OrderNumber="8"/>
        <def:leaf ID="LF.TX" xlink:href="tx.xpt">
          <def:title>tx.xpt</def:title>
        </def:leaf>
      </ItemGroupDef>
      <ItemGroupDef Domain="CO" IsReferenceData="No" Name="CO" OID="IG.CO" Purpose="Tabulation" Repeating="Yes" SASDatasetName="CO" def:ArchiveLocationID="LF.CO" def:Class="Special Purpose" def:Structure="One record per comment">
        <Description>
          <TranslatedText xml:lang="en">Comments</TranslatedText>
        </Description>
        <ItemRef ItemOID="IT.STUDYID" KeySequence="1" Mandatory="Yes" OrderNumber="1"/>
        <ItemRef ItemOID="IT.CO.DOMAIN" Mandatory="Yes" OrderNumber="2"/>
        <ItemRef ItemOID="IT.CO.RDOMAIN" Mandatory="No" OrderNumber="3"/>
        <ItemRef ItemOID="IT.USUBJID" Mandatory="No" OrderNumber="4"/>
        <ItemRef ItemOID="IT.CO.COSEQ" KeySequence="2" Mandatory="Yes" MethodOID="MT.--SEQ" OrderNumber="5"/>
        <ItemRef ItemOID="IT.CO.IDVAR" Mandatory="No" OrderNumber="6"/>
        <ItemRef ItemOID="IT.CO.IDVARVAL" Mandatory="No" OrderNumber="7"/>
        <ItemRef ItemOID="IT.CO.COVAL" Mandatory="Yes" OrderNumber="8"/>
        <ItemRef ItemOID="IT.CO.CODTC" Mandatory="No" OrderNumber="9"/>
        <def:leaf ID="LF.CO" xlink:href="co.xpt">
          <def:title>co.xpt</def:title>
        </def:leaf>
      </ItemGroupDef>
      <ItemGroupDef Domain="DM" IsReferenceData="No" Name="DM" OID="IG.DM" Purpose="Tabulation" Repeating="No" SASDatasetName="DM" def:ArchiveLocationID="LF.DM" def:Class="Special Purpose" def:Structure="One record per subject">
        <Description>
          <TranslatedText xml:lang="en">Demographics</TranslatedText>
        </Description>
        <ItemRef ItemOID="IT.STUDYID" KeySequence="1" Mandatory="Yes" OrderNumber="1"/>
        <ItemRef ItemOID="IT.DM.DOMAIN" Mandatory="Yes" OrderNumber="2"/>
        <ItemRef ItemOID="IT.USUBJID" KeySequence="2" Mandatory="Yes" OrderNumber="3"/>
        <ItemRef ItemOID="IT.SUBJID" Mandatory="Yes" OrderNumber="4"/>
        <ItemRef ItemOID="IT.DM.RFSTDTC" Mandatory="Yes" OrderNumber="5"/>
        <ItemRef ItemOID="IT.DM.RFENDTC" Mandatory="No" OrderNumber="6"/>
        <ItemRef ItemOID="IT.DM.AGETXT" Mandatory="No" OrderNumber="7"/>
        <ItemRef ItemOID="IT.DM.AGEU" Mandatory="No" OrderNumber="8"/>
        <ItemRef ItemOID="IT.DM.SEX" Mandatory="Yes" OrderNumber="9"/>
        <ItemRef ItemOID="IT.DM.ARMCD" Mandatory="No" OrderNumber="10"/>
        <ItemRef ItemOID="IT.DM.ARM" Mandatory="No" OrderNumber="11"/>
        <ItemRef ItemOID="IT.DM.SETCD" Mandatory="Yes" OrderNumber="12"/>
        <def:leaf ID="LF.DM" xlink:href="dm.xpt">
          <def:title>dm.xpt</def:title>
        </def:leaf>
      </ItemGroupDef>
      <ItemGroupDef Domain="SE" IsReferenceData="No" Name="SE" OID="IG.SE" Purpose="Tabulation" Repeating="Yes" SASDatasetName="SE" def:ArchiveLocationID="LF.SE" def:Class="Special Purpose" def:Structure="One record per element experienced per subject">
        <Description>
          <TranslatedText xml:lang="en">Subject Elements</TranslatedText>
        </Description>
        <ItemRef ItemOID="IT.STUDYID" KeySequence="1" Mandatory="Yes" OrderNumber="1"/>
        <ItemRef ItemOID="IT.SE.DOMAIN" Mandatory="Yes" OrderNumber="2"/>
        <ItemRef ItemOID="IT.USUBJID" KeySequence="2" Mandatory="Yes" OrderNumber="3"/>
        <ItemRef ItemOID="IT.SE.SESEQ" Mandatory="Yes" MethodOID="MT.SESEQ" OrderNumber="4"/>
        <ItemRef ItemOID="IT.SE.ETCD" KeySequence="3" Mandatory="Yes" OrderNumber="5"/>
        <ItemRef ItemOID="IT.SE.ELEMENT" Mandatory="No" OrderNumber="6"/>
        <ItemRef ItemOID="IT.SE.SESTDTC" KeySequence="4" Mandatory="Yes" OrderNumber="7"/>
        <ItemRef ItemOID="IT.SE.SEENDTC" Mandatory="No" OrderNumber="8"/>
        <def:leaf ID="LF.SE" xlink:href="se.xpt">
          <def:title>se.xpt</def:title>
        </def:leaf>
      </ItemGroupDef>
      <ItemGroupDef Domain="EX" IsReferenceData="No" Name="EX" OID="IG.EX" Purpose="Tabulation" Repeating="Yes" SASDatasetName="EX" def:ArchiveLocationID="LF.EX" def:Class="Interventions" def:Structure="One record per constant dosing interval per treatment per subject or pool">
        <Description>
          <TranslatedText xml:lang="en">Exposure</TranslatedText>
        </Description>
        <ItemRef ItemOID="IT.STUDYID" KeySequence="1" Mandatory="Yes" OrderNumber="1"/>
        <ItemRef ItemOID="IT.EX.DOMAIN" Mandatory="Yes" OrderNumber="2"/>
        <ItemRef ItemOID="IT.USUBJID" KeySequence="2" Mandatory="No" OrderNumber="3"/>
        <ItemRef ItemOID="IT.EX.EXSEQ" Mandatory="Yes" MethodOID="MT.EXSEQ" OrderNumber="4"/>
        <ItemRef ItemOID="IT.EX.EXTRT" KeySequence="3" Mandatory="Yes" OrderNumber="5"/>
        <ItemRef ItemOID="IT.EX.EXDOSE" Mandatory="No" OrderNumber="6"/>
        <ItemRef ItemOID="IT.EX.EXDOSU" Mandatory="No" OrderNumber="7"/>
        <ItemRef ItemOID="IT.EX.EXDOSFRM" Mandatory="No" OrderNumber="8"/>
        <ItemRef ItemOID="IT.EX.EXDOSFRQ" Mandatory="Yes" OrderNumber="9"/>
        <ItemRef ItemOID="IT.EX.EXROUTE" Mandatory="Yes" OrderNumber="10"/>
        <ItemRef ItemOID="IT.EX.EXLOT" Mandatory="No" OrderNumber="11"/>
        <ItemRef ItemOID="IT.EX.EXTRTV" Mandatory="No" OrderNumber="12"/>
        <ItemRef ItemOID="IT.EX.EXSTDTC" KeySequence="4" Mandatory="No" OrderNumber="13"/>
        <ItemRef ItemOID="IT.EX.EXENDTC" Mandatory="No" OrderNumber="14"/>
        <ItemRef ItemOID="IT.EX.EXSTDY" Mandatory="No" MethodOID="MT.EXSTDY" OrderNumber="15"/>
        <ItemRef ItemOID="IT.EX.EXENDY" Mandatory="No" MethodOID="MT.EXENDY" OrderNumber="16"/>
        <def:leaf ID="LF.EX" xlink:href="ex.xpt">
          <def:title>ex.xpt</def:title>
        </def:leaf>
      </ItemGroupDef>
      <ItemGroupDef Domain="DS" IsReferenceData="No" Name="DS" OID="IG.DS" Purpose="Tabulation" Repeating="Yes" SASDatasetName="DS" def:ArchiveLocationID="LF.DS" def:Class="Events" def:Structure="One record per subject">
        <Description>
          <TranslatedText xml:lang="en">Disposition</TranslatedText>
        </Description>
        <ItemRef ItemOID="IT.STUDYID" KeySequence="1" Mandatory="Yes" OrderNumber="1"/>
        <ItemRef ItemOID="IT.DS.DOMAIN" Mandatory="Yes" OrderNumber="2"/>
        <ItemRef ItemOID="IT.USUBJID" KeySequence="2" Mandatory="Yes" OrderNumber="3"/>
        <ItemRef ItemOID="IT.DS.DSSEQ" Mandatory="Yes" MethodOID="MT.DSSEQ" OrderNumber="4"/>
        <ItemRef ItemOID="IT.DS.DSTERM" Mandatory="Yes" OrderNumber="5"/>
        <ItemRef ItemOID="IT.DS.DSDECOD" Mandatory="Yes" OrderNumber="6"/>
        <ItemRef ItemOID="IT.DS.VISITDY" Mandatory="No" OrderNumber="7"/>
        <ItemRef ItemOID="IT.DS.DSSTDTC" Mandatory="Yes" OrderNumber="8"/>
        <ItemRef ItemOID="IT.DS.DSSTDY" Mandatory="No" MethodOID="MT.DSSTDY" OrderNumber="9"/>
        <def:leaf ID="LF.DS" xlink:href="ds.xpt">
          <def:title>ds.xpt</def:title>
        </def:leaf>
      </ItemGroupDef>
      <ItemGroupDef Domain="BG" IsReferenceData="No" Name="BG" OID="IG.BG" Purpose="Tabulation" Repeating="Yes" SASDatasetName="BG" def:ArchiveLocationID="LF.BG" def:Class="Findings" def:Structure="One record per test per interval per subject">
        <Description>
          <TranslatedText xml:lang="en">Body Weight Gains</TranslatedText>
        </Description>
        <ItemRef ItemOID="IT.STUDYID" KeySequence="1" Mandatory="Yes" OrderNumber="1"/>
        <ItemRef ItemOID="IT.BG.DOMAIN" Mandatory="Yes" OrderNumber="2"/>
        <ItemRef ItemOID="IT.USUBJID" KeySequence="2" Mandatory="Yes" OrderNumber="3"/>
        <ItemRef ItemOID="IT.BG.BGSEQ" Mandatory="Yes" MethodOID="MT.BGSEQ" OrderNumber="4"/>
        <ItemRef ItemOID="IT.BG.BGTESTCD" KeySequence="3" Mandatory="Yes" OrderNumber="5"/>
        <ItemRef ItemOID="IT.BG.BGTEST" Mandatory="Yes" OrderNumber="6"/>
        <ItemRef ItemOID="IT.BG.BGORRES" Mandatory="No" OrderNumber="7"/>
        <ItemRef ItemOID="IT.BG.BGORRESU" Mandatory="No" OrderNumber="8"/>
        <ItemRef ItemOID="IT.BG.BGSTRESC" Mandatory="No" OrderNumber="9"/>
        <ItemRef ItemOID="IT.BG.BGSTRESN" Mandatory="No" OrderNumber="10"/>
        <ItemRef ItemOID="IT.BG.BGSTRESU" Mandatory="No" OrderNumber="11"/>
        <ItemRef ItemOID="IT.BG.BGDTC" KeySequence="4" Mandatory="No" OrderNumber="12"/>
        <ItemRef ItemOID="IT.BG.BGENDTC" KeySequence="5" Mandatory="No" OrderNumber="13"/>
        <ItemRef ItemOID="IT.BG.BGDY" Mandatory="No" MethodOID="MT.BGDY" OrderNumber="14"/>
        <ItemRef ItemOID="IT.BG.BGENDY" Mandatory="No" MethodOID="MT.BGENDY" OrderNumber="15"/>
        <def:leaf ID="LF.BG" xlink:href="bg.xpt">
          <def:title>bg.xpt</def:title>
        </def:leaf>
      </ItemGroupDef>
      <ItemGroupDef Domain="BW" IsReferenceData="No" Name="BW" OID="IG.BW" Purpose="Tabulation" Repeating="Yes" SASDatasetName="BW" def:ArchiveLocationID="LF.BW" def:Class="Findings" def:Structure="One record per test per observation time per subject">
        <Description>
          <TranslatedText xml:lang="en">Body Weights</TranslatedText>
        </Description>
        <ItemRef ItemOID="IT.STUDYID" KeySequence="1" Mandatory="Yes" OrderNumber="1"/>
        <ItemRef ItemOID="IT.BW.DOMAIN" Mandatory="Yes" OrderNumber="2"/>
        <ItemRef ItemOID="IT.USUBJID" KeySequence="2" Mandatory="Yes" OrderNumber="3"/>
        <ItemRef ItemOID="IT.BW.BWSEQ" Mandatory="Yes" MethodOID="MT.BWSEQ" OrderNumber="4"/>
        <ItemRef ItemOID="IT.BW.BWTESTCD" KeySequence="3" Mandatory="Yes" OrderNumber="5"/>
        <ItemRef ItemOID="IT.BW.BWTEST" Mandatory="Yes" OrderNumber="6"/>
        <ItemRef ItemOID="IT.BW.BWORRES" Mandatory="No" OrderNumber="7"/>
        <ItemRef ItemOID="IT.BW.BWORRESU" Mandatory="No" OrderNumber="8"/>
        <ItemRef ItemOID="IT.BW.BWSTRESC" Mandatory="No" OrderNumber="9"/>
        <ItemRef ItemOID="IT.BW.BWSTRESN" Mandatory="No" OrderNumber="10"/>
        <ItemRef ItemOID="IT.BW.BWSTRESU" Mandatory="No" OrderNumber="11"/>
        <ItemRef ItemOID="IT.BW.BWBLFL" Mandatory="No" OrderNumber="12"/>
        <ItemRef ItemOID="IT.BW.VISITDY" Mandatory="No" OrderNumber="13"/>
        <ItemRef ItemOID="IT.BW.BWDTC" KeySequence="4" Mandatory="No" OrderNumber="14"/>
        <ItemRef ItemOID="IT.BW.BWDY" Mandatory="No" MethodOID="MT.BWDY" OrderNumber="15"/>
        <def:leaf ID="LF.BW" xlink:href="bw.xpt">
          <def:title>bw.xpt</def:title>
        </def:leaf>
      </ItemGroupDef>
      <ItemGroupDef Domain="CL" IsReferenceData="No" Name="CL" OID="IG.CL" Purpose="Tabulation" Repeating="Yes" SASDatasetName="CL" def:ArchiveLocationID="LF.CL" def:Class="Findings" def:Structure="One record per finding per observation time per subject or pool">
        <Description>
          <TranslatedText xml:lang="en">Clinical Observations</TranslatedText>
        </Description>
        <ItemRef ItemOID="IT.STUDYID" KeySequence="1" Mandatory="Yes" OrderNumber="1"/>
        <ItemRef ItemOID="IT.CL.DOMAIN" Mandatory="Yes" OrderNumber="2"/>
        <ItemRef ItemOID="IT.USUBJID" KeySequence="2" Mandatory="No" OrderNumber="3"/>
        <ItemRef ItemOID="IT.CL.CLSEQ" Mandatory="Yes" MethodOID="MT.CLSEQ" OrderNumber="4"/>
        <ItemRef ItemOID="IT.CL.CLTESTCD" KeySequence="3" Mandatory="Yes" OrderNumber="5"/>
        <ItemRef ItemOID="IT.CL.CLTEST" Mandatory="Yes" OrderNumber="6"/>
        <ItemRef ItemOID="IT.CL.CLCAT" KeySequence="4" Mandatory="Yes" OrderNumber="7"/>
        <ItemRef ItemOID="IT.CL.CLORRES" KeySequence="5" Mandatory="No" OrderNumber="8"/>
        <ItemRef ItemOID="IT.CL.CLSTRESC" Mandatory="No" OrderNumber="9"/>
        <ItemRef ItemOID="IT.CL.CLLOC" KeySequence="6" Mandatory="No" OrderNumber="10"/>
        <ItemRef ItemOID="IT.CL.VISITDY" Mandatory="No" OrderNumber="11"/>
        <ItemRef ItemOID="IT.CL.CLDTC" KeySequence="7" Mandatory="No" OrderNumber="12"/>
        <ItemRef ItemOID="IT.CL.CLDY" Mandatory="No" MethodOID="MT.CLDY" OrderNumber="13"/>
        <def:leaf ID="LF.CL" xlink:href="cl.xpt">
          <def:title>cl.xpt</def:title>
        </def:leaf>
      </ItemGroupDef>
      <ItemGroupDef Domain="DD" IsReferenceData="No" Name="DD" OID="IG.DD" Purpose="Tabulation" Repeating="Yes" SASDatasetName="DD" def:ArchiveLocationID="LF.DD" def:Class="Findings" def:Structure="One record per diagnosis per subject (for unscheduled deaths only)">
        <Description>
          <TranslatedText xml:lang="en">Death Diagnosis</TranslatedText>
        </Description>
        <ItemRef ItemOID="IT.STUDYID" KeySequence="1" Mandatory="Yes" OrderNumber="1"/>
        <ItemRef ItemOID="IT.DD.DOMAIN" Mandatory="Yes" OrderNumber="2"/>
        <ItemRef ItemOID="IT.USUBJID" KeySequence="2" Mandatory="Yes" OrderNumber="3"/>
        <ItemRef ItemOID="IT.DD.DDSEQ" Mandatory="Yes" MethodOID="MT.--SEQ" OrderNumber="4"/>
        <ItemRef ItemOID="IT.DD.DDTESTCD" Mandatory="Yes" OrderNumber="5"/>
        <ItemRef ItemOID="IT.DD.DDTEST" Mandatory="Yes" OrderNumber="6"/>
        <ItemRef ItemOID="IT.DD.DDORRES" Mandatory="Yes" OrderNumber="7"/>
        <ItemRef ItemOID="IT.DD.DDSTRESC" Mandatory="No" OrderNumber="8"/>
        <ItemRef ItemOID="IT.DD.DDRESCAT" Mandatory="No" OrderNumber="9"/>
        <ItemRef ItemOID="IT.DD.DDDY" Mandatory="No" MethodOID="MT.--DY" OrderNumber="10"/>
        <def:leaf ID="LF.DD" xlink:href="dd.xpt">
          <def:title>dd.xpt</def:title>
        </def:leaf>
      </ItemGroupDef>
      <ItemGroupDef Domain="EG" IsReferenceData="No" Name="EG" OID="IG.EG" Purpose="Tabulation" Repeating="Yes" SASDatasetName="EG" def:ArchiveLocationID="LF.EG" def:Class="Findings" def:Structure="One record per test per observation time per subject">
        <Description>
          <TranslatedText xml:lang="en">ECG Test Results</TranslatedText>
        </Description>
        <ItemRef ItemOID="IT.STUDYID" KeySequence="1" Mandatory="Yes" OrderNumber="1"/>
        <ItemRef ItemOID="IT.EG.DOMAIN" Mandatory="Yes" OrderNumber="2"/>
        <ItemRef ItemOID="IT.USUBJID" KeySequence="2" Mandatory="Yes" OrderNumber="3"/>
        <ItemRef ItemOID="IT.EG.EGSEQ" Mandatory="Yes" MethodOID="MT.EGSEQ" OrderNumber="4"/>
        <ItemRef ItemOID="IT.EG.EGTESTCD" KeySequence="3" Mandatory="Yes" OrderNumber="5"/>
        <ItemRef ItemOID="IT.EG.EGTEST" Mandatory="Yes" OrderNumber="6"/>
        <ItemRef ItemOID="IT.EG.EGPOS" Mandatory="No" OrderNumber="7"/>
        <ItemRef ItemOID="IT.EG.EGORRES" Mandatory="No" OrderNumber="8"/>
        <ItemRef ItemOID="IT.EG.EGORRESU" Mandatory="No" OrderNumber="9"/>
        <ItemRef ItemOID="IT.EG.EGSTRESC" Mandatory="No" OrderNumber="10"/>
        <ItemRef ItemOID="IT.EG.EGSTRESN" Mandatory="No" OrderNumber="11"/>
        <ItemRef ItemOID="IT.EG.EGSTRESU" Mandatory="No" OrderNumber="12"/>
        <ItemRef ItemOID="IT.EG.EGLEAD" Mandatory="No" OrderNumber="13"/>
        <ItemRef ItemOID="IT.EG.EGMETHOD" Mandatory="No" OrderNumber="14"/>
        <ItemRef ItemOID="IT.EG.EGCSTATE" Mandatory="No" OrderNumber="15"/>
        <ItemRef ItemOID="IT.EG.EGBLFL" Mandatory="No" OrderNumber="16"/>
        <ItemRef ItemOID="IT.EG.VISITDY" Mandatory="No" OrderNumber="17"/>
        <ItemRef ItemOID="IT.EG.EGDTC" KeySequence="4" Mandatory="No" OrderNumber="18"/>
        <ItemRef ItemOID="IT.EG.EGDY" Mandatory="No" MethodOID="MT.EGDY" OrderNumber="19"/>
        <def:leaf ID="LF.EG" xlink:href="eg.xpt">
          <def:title>eg.xpt</def:title>
        </def:leaf>
      </ItemGroupDef>
      <ItemGroupDef Domain="FW" IsReferenceData="No" Name="FW" OID="IG.FW" Purpose="Tabulation" Repeating="Yes" SASDatasetName="FW" def:ArchiveLocationID="LF.FW" def:Class="Findings" def:Structure="One record per test per interval per subject or pool">
        <Description>
          <TranslatedText xml:lang="en">Food and Water Consumption</TranslatedText>
        </Description>
        <ItemRef ItemOID="IT.STUDYID" KeySequence="1" Mandatory="Yes" OrderNumber="1"/>
        <ItemRef ItemOID="IT.FW.DOMAIN" Mandatory="Yes" OrderNumber="2"/>
        <ItemRef ItemOID="IT.USUBJID" KeySequence="2" Mandatory="No" OrderNumber="3"/>
        <ItemRef ItemOID="IT.FW.FWSEQ" Mandatory="Yes" MethodOID="MT.--SEQ" OrderNumber="4"/>
        <ItemRef ItemOID="IT.FW.FWTESTCD" KeySequence="3" Mandatory="Yes" OrderNumber="5"/>
        <ItemRef ItemOID="IT.FW.FWTEST" Mandatory="Yes" OrderNumber="6"/>
        <ItemRef ItemOID="IT.FW.FWORRES" Mandatory="No" OrderNumber="7"/>
        <ItemRef ItemOID="IT.FW.FWORRESU" Mandatory="No" OrderNumber="8"/>
        <ItemRef ItemOID="IT.FW.FWSTRESC" Mandatory="No" OrderNumber="9"/>
        <ItemRef ItemOID="IT.FW.FWSTRESN" Mandatory="No" OrderNumber="10"/>
        <ItemRef ItemOID="IT.FW.FWSTRESU" Mandatory="No" OrderNumber="11"/>
        <ItemRef ItemOID="IT.FW.FWDTC" KeySequence="4" Mandatory="No" OrderNumber="12"/>
        <ItemRef ItemOID="IT.FW.FWENDTC" KeySequence="5" Mandatory="No" OrderNumber="13"/>
        <ItemRef ItemOID="IT.FW.FWDY" Mandatory="No" MethodOID="MT.--DY" OrderNumber="14"/>
        <ItemRef ItemOID="IT.FW.FWENDY" Mandatory="No" MethodOID="MT.--ENDY" OrderNumber="15"/>
        <def:leaf ID="LF.FW" xlink:href="fw.xpt">
          <def:title>fw.xpt</def:title>
        </def:leaf>
      </ItemGroupDef>
      <ItemGroupDef Domain="LB" IsReferenceData="No" Name="LB" OID="IG.LB" Purpose="Tabulation" Repeating="Yes" SASDatasetName="LB" def:ArchiveLocationID="LF.LB" def:Class="Findings" def:Structure="One record per test per specimen per observation time per subject or pool">
        <Description>
          <TranslatedText xml:lang="en">Laboratory Test Results</TranslatedText>
        </Description>
        <ItemRef ItemOID="IT.STUDYID" KeySequence="1" Mandatory="Yes" OrderNumber="1"/>
        <ItemRef ItemOID="IT.LB.DOMAIN" Mandatory="Yes" OrderNumber="2"/>
        <ItemRef ItemOID="IT.USUBJID" KeySequence="2" Mandatory="No" OrderNumber="3"/>
        <ItemRef ItemOID="IT.LB.LBSEQ" Mandatory="Yes" MethodOID="MT.LBSEQ" OrderNumber="4"/>
        <ItemRef ItemOID="IT.LB.LBTESTCD" KeySequence="3" Mandatory="Yes" OrderNumber="5"/>
        <ItemRef ItemOID="IT.LB.LBTEST" Mandatory="Yes" OrderNumber="6"/>
        <ItemRef ItemOID="IT.LB.LBCAT" Mandatory="No" OrderNumber="7"/>
        <ItemRef ItemOID="IT.LB.LBORRES" Mandatory="No" OrderNumber="8"/>
        <ItemRef ItemOID="IT.LB.LBORRESU" Mandatory="No" OrderNumber="9"/>
        <ItemRef ItemOID="IT.LB.LBSTRESC" Mandatory="No" OrderNumber="10"/>
        <ItemRef ItemOID="IT.LB.LBSTRESN" Mandatory="No" OrderNumber="11"/>
        <ItemRef ItemOID="IT.LB.LBSTRESU" Mandatory="No" OrderNumber="12"/>
        <ItemRef ItemOID="IT.LB.LBSTAT" Mandatory="No" OrderNumber="13"/>
        <ItemRef ItemOID="IT.LB.LBREASND" Mandatory="No" OrderNumber="14"/>
        <ItemRef ItemOID="IT.LB.LBSPEC" KeySequence="4" Mandatory="No" OrderNumber="15"/>
        <ItemRef ItemOID="IT.LB.LBMETHOD" Mandatory="No" OrderNumber="16"/>
        <ItemRef ItemOID="IT.LB.LBBLFL" Mandatory="No" OrderNumber="17"/>
        <ItemRef ItemOID="IT.LB.VISITDY" Mandatory="No" OrderNumber="18"/>
        <ItemRef ItemOID="IT.LB.LBDTC" KeySequence="5" Mandatory="No" OrderNumber="19"/>
        <ItemRef ItemOID="IT.LB.LBDY" Mandatory="No" MethodOID="MT.LBDY" OrderNumber="20"/>
        <def:leaf ID="LF.LB" xlink:href="lb.xpt">
          <def:title>lb.xpt</def:title>
        </def:leaf>
      </ItemGroupDef>
      <ItemGroupDef Domain="MA" IsReferenceData="No" Name="MA" OID="IG.MA" Purpose="Tabulation" Repeating="Yes" SASDatasetName="MA" def:ArchiveLocationID="LF.MA" def:Class="Findings" def:Structure="One record per finding per specimen per subject">
        <Description>
          <TranslatedText xml:lang="en">Macroscopic Findings</TranslatedText>
        </Description>
        <ItemRef ItemOID="IT.STUDYID" KeySequence="1" Mandatory="Yes" OrderNumber="1"/>
        <ItemRef ItemOID="IT.MA.DOMAIN" Mandatory="Yes" OrderNumber="2"/>
        <ItemRef ItemOID="IT.USUBJID" KeySequence="2" Mandatory="Yes" OrderNumber="3"/>
        <ItemRef ItemOID="IT.MA.MASEQ" Mandatory="Yes" MethodOID="MT.--SEQ" OrderNumber="4"/>
        <ItemRef ItemOID="IT.MA.MASPID" Mandatory="No" OrderNumber="5"/>
        <ItemRef ItemOID="IT.MA.MATESTCD" KeySequence="3" Mandatory="Yes" OrderNumber="6"/>
        <ItemRef ItemOID="IT.MA.MATEST" Mandatory="Yes" OrderNumber="7"/>
        <ItemRef ItemOID="IT.MA.MAORRES" Mandatory="No" OrderNumber="8"/>
        <ItemRef ItemOID="IT.MA.MASTRESC" KeySequence="4" Mandatory="No" OrderNumber="9"/>
        <ItemRef ItemOID="IT.MA.MASPEC" KeySequence="5" Mandatory="No" OrderNumber="10"/>
        <ItemRef ItemOID="IT.MA.MAANTREG" KeySequence="6" Mandatory="No" OrderNumber="11"/>
        <ItemRef ItemOID="IT.MA.MALAT" KeySequence="7" Mandatory="No" OrderNumber="12"/>
        <ItemRef ItemOID="IT.MA.MASEV" Mandatory="No" OrderNumber="13"/>
        <ItemRef ItemOID="IT.MA.MADY" Mandatory="No" MethodOID="MT.--DY" OrderNumber="14"/>
        <def:leaf ID="LF.MA" xlink:href="ma.xpt">
          <def:title>ma.xpt</def:title>
        </def:leaf>
      </ItemGroupDef>
      <ItemGroupDef Domain="MI" IsReferenceData="No" Name="MI" OID="IG.MI" Purpose="Tabulation" Repeating="Yes" SASDatasetName="MI" def:ArchiveLocationID="LF.MI" def:Class="Findings" def:Structure="One record per finding per specimen per subject">
        <Description>
          <TranslatedText xml:lang="en">Microscopic Findings</TranslatedText>
        </Description>
        <ItemRef ItemOID="IT.STUDYID" KeySequence="1" Mandatory="Yes" OrderNumber="1"/>
        <ItemRef ItemOID="IT.MI.DOMAIN" Mandatory="Yes" OrderNumber="2"/>
        <ItemRef ItemOID="IT.USUBJID" KeySequence="2" Mandatory="Yes" OrderNumber="3"/>
        <ItemRef ItemOID="IT.MI.MISEQ" Mandatory="Yes" MethodOID="MT.--SEQ" OrderNumber="4"/>
        <ItemRef ItemOID="IT.MI.MISPID" Mandatory="No" OrderNumber="5"/>
        <ItemRef ItemOID="IT.MI.MITESTCD" KeySequence="3" Mandatory="Yes" OrderNumber="6"/>
        <ItemRef ItemOID="IT.MI.MITEST" Mandatory="Yes" OrderNumber="7"/>
        <ItemRef ItemOID="IT.MI.MIORRES" Mandatory="No" OrderNumber="8"/>
        <ItemRef ItemOID="IT.MI.MISTRESC" KeySequence="4" Mandatory="No" OrderNumber="9"/>
        <ItemRef ItemOID="IT.MI.MIRESCAT" Mandatory="No" OrderNumber="10"/>
        <ItemRef ItemOID="IT.MI.MISTAT" Mandatory="No" OrderNumber="11"/>
        <ItemRef ItemOID="IT.MI.MIREASND" Mandatory="No" OrderNumber="12"/>
        <ItemRef ItemOID="IT.MI.MISPEC" KeySequence="5" Mandatory="Yes" OrderNumber="13"/>
        <ItemRef ItemOID="IT.MI.MIANTREG" KeySequence="6" Mandatory="No" OrderNumber="14"/>
        <ItemRef ItemOID="IT.MI.MISPCCND" Mandatory="No" OrderNumber="15"/>
        <ItemRef ItemOID="IT.MI.MISPCUFL" Mandatory="No" OrderNumber="16"/>
        <ItemRef ItemOID="IT.MI.MILAT" KeySequence="7" Mandatory="No" OrderNumber="17"/>
        <ItemRef ItemOID="IT.MI.MIDIR" KeySequence="8" Mandatory="No" OrderNumber="18"/>
        <ItemRef ItemOID="IT.MI.MISEV" Mandatory="No" OrderNumber="19"/>
        <ItemRef ItemOID="IT.MI.MIDTHREL" Mandatory="No" OrderNumber="20"/>
        <ItemRef ItemOID="IT.MI.MIDY" Mandatory="No" MethodOID="MT.--DY" OrderNumber="21"/>
        <def:leaf ID="LF.MI" xlink:href="mi.xpt">
          <def:title>mi.xpt</def:title>
        </def:leaf>
      </ItemGroupDef>
      <ItemGroupDef Domain="OM" IsReferenceData="No" Name="OM" OID="IG.OM" Purpose="Tabulation" Repeating="Yes" SASDatasetName="OM" def:ArchiveLocationID="LF.OM" def:Class="Findings" def:Structure="One record per test per specimen per subject">
        <Description>
          <TranslatedText xml:lang="en">Organ Measurements</TranslatedText>
        </Description>
        <ItemRef ItemOID="IT.STUDYID" KeySequence="1" Mandatory="Yes" OrderNumber="1"/>
        <ItemRef ItemOID="IT.OM.DOMAIN" Mandatory="Yes" OrderNumber="2"/>
        <ItemRef ItemOID="IT.USUBJID" KeySequence="2" Mandatory="Yes" OrderNumber="3"/>
        <ItemRef ItemOID="IT.OM.OMSEQ" Mandatory="Yes" MethodOID="MT.--SEQ" OrderNumber="4"/>
        <ItemRef ItemOID="IT.OM.OMTESTCD" KeySequence="3" Mandatory="Yes" OrderNumber="5"/>
        <ItemRef ItemOID="IT.OM.OMTEST" Mandatory="Yes" OrderNumber="6"/>
        <ItemRef ItemOID="IT.OM.OMORRES" Mandatory="No" OrderNumber="7"/>
        <ItemRef ItemOID="IT.OM.OMORRESU" Mandatory="No" OrderNumber="8"/>
        <ItemRef ItemOID="IT.OM.OMSTRESC" Mandatory="No" OrderNumber="9"/>
        <ItemRef ItemOID="IT.OM.OMSTRESN" Mandatory="No" OrderNumber="10"/>
        <ItemRef ItemOID="IT.OM.OMSTRESU" Mandatory="No" OrderNumber="11"/>
        <ItemRef ItemOID="IT.OM.OMSPEC" KeySequence="4" Mandatory="Yes" OrderNumber="12"/>
        <ItemRef ItemOID="IT.OM.OMDTC" Mandatory="No" OrderNumber="13"/>
        <ItemRef ItemOID="IT.OM.OMDY" Mandatory="No" MethodOID="MT.--DY" OrderNumber="14"/>
        <def:leaf ID="LF.OM" xlink:href="om.xpt">
          <def:title>om.xpt</def:title>
        </def:leaf>
      </ItemGroupDef>
      <ItemGroupDef Domain="PC" IsReferenceData="No" Name="PC" OID="IG.PC" Purpose="Tabulation" Repeating="Yes" SASDatasetName="PC" def:ArchiveLocationID="LF.PC" def:Class="Findings" def:Structure="One record per test per specimen per observation time per subject or pool">
        <Description>
          <TranslatedText xml:lang="en">Pharmacokinetics Concentrations</TranslatedText>
        </Description>
        <ItemRef ItemOID="IT.STUDYID" KeySequence="1" Mandatory="Yes" OrderNumber="1"/>
        <ItemRef ItemOID="IT.PC.DOMAIN" Mandatory="Yes" OrderNumber="2"/>
        <ItemRef ItemOID="IT.USUBJID" KeySequence="2" Mandatory="No" OrderNumber="3"/>
        <ItemRef ItemOID="IT.PC.PCSEQ" Mandatory="Yes" MethodOID="MT.PCSEQ" OrderNumber="4"/>
        <ItemRef ItemOID="IT.PC.PCTESTCD" KeySequence="3" Mandatory="Yes" OrderNumber="5"/>
        <ItemRef ItemOID="IT.PC.PCTEST" Mandatory="Yes" OrderNumber="6"/>
        <ItemRef ItemOID="IT.PC.PCORRES" Mandatory="No" OrderNumber="7"/>
        <ItemRef ItemOID="IT.PC.PCORRESU" Mandatory="No" OrderNumber="8"/>
        <ItemRef ItemOID="IT.PC.PCSTRESC" Mandatory="No" OrderNumber="9"/>
        <ItemRef ItemOID="IT.PC.PCSTRESN" Mandatory="No" OrderNumber="10"/>
        <ItemRef ItemOID="IT.PC.PCSTRESU" Mandatory="No" OrderNumber="11"/>
        <ItemRef ItemOID="IT.PC.PCSPEC" KeySequence="4" Mandatory="Yes" OrderNumber="12"/>
        <ItemRef ItemOID="IT.PC.PCMETHOD" Mandatory="No" OrderNumber="13"/>
        <ItemRef ItemOID="IT.PC.PCBLFL" Mandatory="No" OrderNumber="14"/>
        <ItemRef ItemOID="IT.PC.PCLLOQ" Mandatory="No" OrderNumber="15"/>
        <ItemRef ItemOID="IT.PC.VISITDY" Mandatory="No" OrderNumber="16"/>
        <ItemRef ItemOID="IT.PC.PCDTC" KeySequence="5" Mandatory="No" OrderNumber="17"/>
        <ItemRef ItemOID="IT.PC.PCDY" Mandatory="No" MethodOID="MT.PCDY" OrderNumber="18"/>
        <ItemRef ItemOID="IT.PC.PCTPT" Mandatory="No" OrderNumber="19"/>
        <ItemRef ItemOID="IT.PC.PCTPTNUM" Mandatory="No" OrderNumber="20"/>
        <ItemRef ItemOID="IT.PC.PCELTM" Mandatory="No" OrderNumber="21"/>
        <ItemRef ItemOID="IT.PC.PCTPTREF" Mandatory="No" OrderNumber="22"/>
        <ItemRef ItemOID="IT.PC.PCRFTDTC" Mandatory="No" OrderNumber="23"/>
        <def:leaf ID="LF.PC" xlink:href="pc.xpt">
          <def:title>pc.xpt</def:title>
        </def:leaf>
      </ItemGroupDef>
      <ItemGroupDef Domain="PM" IsReferenceData="No" Name="PM" OID="IG.PM" Purpose="Tabulation" Repeating="Yes" SASDatasetName="PM" def:ArchiveLocationID="LF.PM" def:Class="Findings" def:Structure="One record per test per palpable mass per observation time per subject">
        <Description>
          <TranslatedText xml:lang="en">Palpable Masses</TranslatedText>
        </Description>
        <ItemRef ItemOID="IT.STUDYID" KeySequence="1" Mandatory="Yes" OrderNumber="1"/>
        <ItemRef ItemOID="IT.PM.DOMAIN" Mandatory="Yes" OrderNumber="2"/>
        <ItemRef ItemOID="IT.USUBJID" KeySequence="2" Mandatory="Yes" OrderNumber="3"/>
        <ItemRef ItemOID="IT.PM.PMSEQ" Mandatory="Yes" MethodOID="MT.--SEQ" OrderNumber="4"/>
        <ItemRef ItemOID="IT.PM.PMSPID" KeySequence="4" Mandatory="No" OrderNumber="5"/>
        <ItemRef ItemOID="IT.PM.PMTESTCD" KeySequence="3" Mandatory="Yes" OrderNumber="6"/>
        <ItemRef ItemOID="IT.PM.PMTEST" Mandatory="Yes" OrderNumber="7"/>
        <ItemRef ItemOID="IT.PM.PMORRES" Mandatory="No" OrderNumber="8"/>
        <ItemRef ItemOID="IT.PM.PMORRESU" Mandatory="No" OrderNumber="9"/>
        <ItemRef ItemOID="IT.PM.PMSTRESC" Mandatory="No" OrderNumber="10"/>
        <ItemRef ItemOID="IT.PM.PMSTRESN" Mandatory="No" OrderNumber="11"/>
        <ItemRef ItemOID="IT.PM.PMSTRESU" Mandatory="No" OrderNumber="12"/>
        <ItemRef ItemOID="IT.PM.PMLOC" Mandatory="No" OrderNumber="13"/>
        <ItemRef ItemOID="IT.PM.VISITDY" Mandatory="No" OrderNumber="14"/>
        <ItemRef ItemOID="IT.PM.PMDTC" KeySequence="5" Mandatory="No" OrderNumber="15"/>
        <ItemRef ItemOID="IT.PM.PMDY" Mandatory="No" MethodOID="MT.--DY" OrderNumber="16"/>
        <def:leaf ID="LF.PM" xlink:href="pm.xpt">
          <def:title>pm.xpt</def:title>
        </def:leaf>
      </ItemGroupDef>
      <ItemGroupDef Domain="PP" IsReferenceData="No" Name="PP" OID="IG.PP" Purpose="Tabulation" Repeating="Yes" SASDatasetName="PP" def:ArchiveLocationID="LF.PP" def:Class="Findings" def:Structure="One record per test per timeconcentration profile per specimen per subject or pool">
        <Description>
          <TranslatedText xml:lang="en">Pharmacokinetics Parameters</TranslatedText>
        </Description>
        <ItemRef ItemOID="IT.STUDYID" KeySequence="1" Mandatory="Yes" OrderNumber="1"/>
        <ItemRef ItemOID="IT.PP.DOMAIN" Mandatory="Yes" OrderNumber="2"/>
        <ItemRef ItemOID="IT.USUBJID" KeySequence="2" Mandatory="No" OrderNumber="3"/>
        <ItemRef ItemOID="IT.PP.PPSEQ" Mandatory="Yes" MethodOID="MT.PPSEQ" OrderNumber="4"/>
        <ItemRef ItemOID="IT.PP.PPTESTCD" KeySequence="3" Mandatory="Yes" OrderNumber="5"/>
        <ItemRef ItemOID="IT.PP.PPTEST" Mandatory="Yes" OrderNumber="6"/>
        <ItemRef ItemOID="IT.PP.PPCAT" KeySequence="4" Mandatory="No" OrderNumber="7"/>
        <ItemRef ItemOID="IT.PP.PPORRES" Mandatory="No" OrderNumber="8"/>
        <ItemRef ItemOID="IT.PP.PPORRESU" Mandatory="No" OrderNumber="9"/>
        <ItemRef ItemOID="IT.PP.PPSTRESC" Mandatory="No" OrderNumber="10"/>
        <ItemRef ItemOID="IT.PP.PPSTRESN" Mandatory="No" OrderNumber="11"/>
        <ItemRef ItemOID="IT.PP.PPSTRESU" Mandatory="No" OrderNumber="12"/>
        <ItemRef ItemOID="IT.PP.PPSTAT" Mandatory="No" OrderNumber="13"/>
        <ItemRef ItemOID="IT.PP.PPREASND" Mandatory="No" OrderNumber="14"/>
        <ItemRef ItemOID="IT.PP.PPSPEC" KeySequence="5" Mandatory="No" OrderNumber="15"/>
        <ItemRef ItemOID="IT.PP.VISITDY" Mandatory="No" OrderNumber="16"/>
        <ItemRef ItemOID="IT.PP.PPRFTDTC" KeySequence="6" Mandatory="No" OrderNumber="17"/>
        <def:leaf ID="LF.PP" xlink:href="pp.xpt">
          <def:title>pp.xpt</def:title>
        </def:leaf>
      </ItemGroupDef>
      <ItemGroupDef Domain="SC" IsReferenceData="No" Name="SC" OID="IG.SC" Purpose="Tabulation" Repeating="Yes" SASDatasetName="SC" def:ArchiveLocationID="LF.SC" def:Class="Findings" def:Structure="One record per characteristic per subject">
        <Description>
          <TranslatedText xml:lang="en">Subject Characteristics</TranslatedText>
        </Description>
        <ItemRef ItemOID="IT.STUDYID" KeySequence="1" Mandatory="Yes" OrderNumber="1"/>
        <ItemRef ItemOID="IT.SC.DOMAIN" Mandatory="Yes" OrderNumber="2"/>
        <ItemRef ItemOID="IT.USUBJID" KeySequence="2" Mandatory="Yes" OrderNumber="3"/>
        <ItemRef ItemOID="IT.SC.SCSEQ" Mandatory="Yes" MethodOID="MT.--SEQ" OrderNumber="4"/>
        <ItemRef ItemOID="IT.SC.SCTESTCD" KeySequence="3" Mandatory="Yes" OrderNumber="5"/>
        <ItemRef ItemOID="IT.SC.SCTEST" Mandatory="Yes" OrderNumber="6"/>
        <ItemRef ItemOID="IT.SC.SCORRES" Mandatory="No" OrderNumber="7"/>
        <ItemRef ItemOID="IT.SC.SCSTRESC" Mandatory="No" OrderNumber="8"/>
        <ItemRef ItemOID="IT.SC.SCDY" Mandatory="No" MethodOID="MT.--DY" OrderNumber="9"/>
        <def:leaf ID="LF.SC" xlink:href="sc.xpt">
          <def:title>sc.xpt</def:title>
        </def:leaf>
      </ItemGroupDef>
      <ItemGroupDef Domain="TF" IsReferenceData="No" Name="TF" OID="IG.TF" Purpose="Tabulation" Repeating="Yes" SASDatasetName="TF" def:ArchiveLocationID="LF.TF" def:Class="Findings" def:Structure="One record per tumor per specimen per subject">
        <Description>
          <TranslatedText xml:lang="en">Tumor Findings</TranslatedText>
        </Description>
        <ItemRef ItemOID="IT.STUDYID" KeySequence="1" Mandatory="Yes" OrderNumber="1"/>
        <ItemRef ItemOID="IT.TF.DOMAIN" Mandatory="Yes" OrderNumber="2"/>
        <ItemRef ItemOID="IT.USUBJID" KeySequence="2" Mandatory="Yes" OrderNumber="3"/>
        <ItemRef ItemOID="IT.TF.TFSEQ" Mandatory="Yes" MethodOID="MT.--SEQ" OrderNumber="4"/>
        <ItemRef ItemOID="IT.TF.TFSPID" Mandatory="No" OrderNumber="5"/>
        <ItemRef ItemOID="IT.TF.TFTESTCD" KeySequence="3" Mandatory="Yes" OrderNumber="6"/>
        <ItemRef ItemOID="IT.TF.TFTEST" Mandatory="Yes" OrderNumber="7"/>
        <ItemRef ItemOID="IT.TF.TFORRES" KeySequence="4" Mandatory="No" OrderNumber="8"/>
        <ItemRef ItemOID="IT.TF.TFSTRESC" Mandatory="No" OrderNumber="9"/>
        <ItemRef ItemOID="IT.TF.TFRESCAT" Mandatory="Yes" OrderNumber="10"/>
        <ItemRef ItemOID="IT.TF.TFSPEC" KeySequence="5" Mandatory="Yes" OrderNumber="11"/>
        <ItemRef ItemOID="IT.TF.TFDTHREL" Mandatory="Yes" OrderNumber="12"/>
        <ItemRef ItemOID="IT.TF.TFDY" Mandatory="No" MethodOID="MT.--DY" OrderNumber="13"/>
        <ItemRef ItemOID="IT.TF.TFDETECT" Mandatory="Yes" OrderNumber="14"/>
        <def:leaf ID="LF.TF" xlink:href="tf.xpt">
          <def:title>tf.xpt</def:title>
        </def:leaf>
      </ItemGroupDef>
      <ItemGroupDef Domain="VS" IsReferenceData="No" Name="VS" OID="IG.VS" Purpose="Tabulation" Repeating="Yes" SASDatasetName="VS" def:ArchiveLocationID="LF.VS" def:Class="Findings" def:Structure="One record per measurement per observation time per subject">
        <Description>
          <TranslatedText xml:lang="en">Vital Signs</TranslatedText>
        </Description>
        <ItemRef ItemOID="IT.STUDYID" KeySequence="1" Mandatory="Yes" OrderNumber="1"/>
        <ItemRef ItemOID="IT.VS.DOMAIN" Mandatory="Yes" OrderNumber="2"/>
        <ItemRef ItemOID="IT.USUBJID" KeySequence="2" Mandatory="Yes" OrderNumber="3"/>
        <ItemRef ItemOID="IT.VS.VSSEQ" Mandatory="Yes" MethodOID="MT.VSSEQ" OrderNumber="4"/>
        <ItemRef ItemOID="IT.VS.VSTESTCD" KeySequence="3" Mandatory="Yes" OrderNumber="5"/>
        <ItemRef ItemOID="IT.VS.VSTEST" Mandatory="Yes" OrderNumber="6"/>
        <ItemRef ItemOID="IT.VS.VSORRES" Mandatory="No" OrderNumber="7"/>
        <ItemRef ItemOID="IT.VS.VSORRESU" Mandatory="No" OrderNumber="8"/>
        <ItemRef ItemOID="IT.VS.VSSTRESC" Mandatory="No" OrderNumber="9"/>
        <ItemRef ItemOID="IT.VS.VSSTRESN" Mandatory="No" OrderNumber="10"/>
        <ItemRef ItemOID="IT.VS.VSSTRESU" Mandatory="No" OrderNumber="11"/>
        <ItemRef ItemOID="IT.VS.VSBLFL" Mandatory="No" OrderNumber="12"/>
        <ItemRef ItemOID="IT.VS.VISITDY" Mandatory="No" OrderNumber="13"/>
        <ItemRef ItemOID="IT.VS.VSDTC" KeySequence="4" Mandatory="No" OrderNumber="14"/>
        <ItemRef ItemOID="IT.VS.VSDY" Mandatory="No" MethodOID="MT.VSDY" OrderNumber="15"/>
        <def:leaf ID="LF.VS" xlink:href="vs.xpt">
          <def:title>vs.xpt</def:title>
        </def:leaf>
      </ItemGroupDef>
      <ItemGroupDef Domain="RELREC" IsReferenceData="No" Name="RELREC" OID="IG.RELREC" Purpose="Tabulation" Repeating="Yes" SASDatasetName="RELREC" def:ArchiveLocationID="LF.RELREC" def:Class="Relationship" def:Structure="One record per related record, related group of records (e.g., --GRPID), or related dataset">
        <Description>
          <TranslatedText xml:lang="en">Related Records</TranslatedText>
        </Description>
        <ItemRef ItemOID="IT.STUDYID" KeySequence="1" Mandatory="Yes" OrderNumber="1"/>
        <ItemRef ItemOID="IT.RELREC.RDOMAIN" KeySequence="2" Mandatory="Yes" OrderNumber="2"/>
        <ItemRef ItemOID="IT.USUBJID" KeySequence="3" Mandatory="No" OrderNumber="3"/>
        <ItemRef ItemOID="IT.RELREC.IDVAR" KeySequence="4" Mandatory="No" OrderNumber="4"/>
        <ItemRef ItemOID="IT.RELREC.IDVARVAL" KeySequence="5" Mandatory="No" OrderNumber="5"/>
        <ItemRef ItemOID="IT.RELREC.RELTYPE" Mandatory="No" OrderNumber="6"/>
        <ItemRef ItemOID="IT.RELREC.RELID" KeySequence="6" Mandatory="Yes" OrderNumber="7"/>
        <def:leaf ID="LF.RELREC" xlink:href="relrec.xpt">
          <def:title>relrec.xpt</def:title>
        </def:leaf>
      </ItemGroupDef>
      <ItemGroupDef Domain="SUPPMA" IsReferenceData="No" Name="SUPPMA" OID="IG.SUPPMA" Purpose="Tabulation" Repeating="Yes" SASDatasetName="SUPPMA" def:ArchiveLocationID="LF.SUPPMA" def:Class="Relationship" def:Structure="One record per IDVAR, IDVARVAL, and QNAM value per subject per related domain">
        <Description>
          <TranslatedText xml:lang="en">Supplemental Qualifiers for MA</TranslatedText>
        </Description>
        <ItemRef ItemOID="IT.STUDYID" KeySequence="1" Mandatory="Yes" OrderNumber="1"/>
        <ItemRef ItemOID="IT.SUPPMA.RDOMAIN" KeySequence="2" Mandatory="Yes" OrderNumber="2"/>
        <ItemRef ItemOID="IT.USUBJID" KeySequence="3" Mandatory="No" OrderNumber="3"/>
        <ItemRef ItemOID="IT.SUPPMA.IDVAR" KeySequence="4" Mandatory="No" OrderNumber="4"/>
        <ItemRef ItemOID="IT.SUPPMA.IDVARVAL" KeySequence="5" Mandatory="No" OrderNumber="5"/>
        <ItemRef ItemOID="IT.SUPPMA.QNAM" KeySequence="6" Mandatory="Yes" OrderNumber="6"/>
        <ItemRef ItemOID="IT.SUPPMA.QLABEL" Mandatory="Yes" OrderNumber="7"/>
        <ItemRef ItemOID="IT.SUPPMA.QVAL" Mandatory="Yes" OrderNumber="8"/>
        <ItemRef ItemOID="IT.SUPPMA.QORIG" Mandatory="No" OrderNumber="9"/>
        <ItemRef ItemOID="IT.SUPPMA.QEVAL" Mandatory="No" OrderNumber="10"/>
        <def:leaf ID="LF.SUPPMA" xlink:href="suppma.xpt">
          <def:title>suppma.xpt</def:title>
        </def:leaf>
      </ItemGroupDef>
      <ItemGroupDef Domain="SUPPMI" IsReferenceData="No" Name="SUPPMI" OID="IG.SUPPMI" Purpose="Tabulation" Repeating="Yes" SASDatasetName="SUPPMI" def:ArchiveLocationID="LF.SUPPMI" def:Class="Relationship" def:Structure="One record per IDVAR, IDVARVAL, and QNAM value per subject per related domain">
        <Description>
          <TranslatedText xml:lang="en">Supplemental Qualifiers for MI</TranslatedText>
        </Description>
        <ItemRef ItemOID="IT.STUDYID" KeySequence="1" Mandatory="Yes" OrderNumber="1"/>
        <ItemRef ItemOID="IT.SUPPMI.RDOMAIN" KeySequence="2" Mandatory="Yes" OrderNumber="2"/>
        <ItemRef ItemOID="IT.USUBJID" KeySequence="3" Mandatory="No" OrderNumber="3"/>
        <ItemRef ItemOID="IT.SUPPMI.IDVAR" KeySequence="4" Mandatory="No" OrderNumber="4"/>
        <ItemRef ItemOID="IT.SUPPMI.IDVARVAL" KeySequence="5" Mandatory="No" OrderNumber="5"/>
        <ItemRef ItemOID="IT.SUPPMI.QNAM" KeySequence="6" Mandatory="Yes" OrderNumber="6"/>
        <ItemRef ItemOID="IT.SUPPMI.QLABEL" Mandatory="Yes" OrderNumber="7"/>
        <ItemRef ItemOID="IT.SUPPMI.QVAL" Mandatory="Yes" OrderNumber="8"/>
        <ItemRef ItemOID="IT.SUPPMI.QORIG" Mandatory="No" OrderNumber="9"/>
        <ItemRef ItemOID="IT.SUPPMI.QEVAL" Mandatory="No" OrderNumber="10"/>
        <def:leaf ID="LF.SUPPMI" xlink:href="suppmi.xpt">
          <def:title>suppmi.xpt</def:title>
        </def:leaf>
      </ItemGroupDef>
      <ItemDef DataType="text" Length="8" Name="STUDYID" OID="IT.STUDYID" SASFieldName="STUDYID" def:CommentOID="COM.STUDYID">
        <Description>
          <TranslatedText xml:lang="en">Study Identifier</TranslatedText>
        </Description>
        <def:Origin Type="Other"/>
      </ItemDef>
      <ItemDef DataType="text" Length="2" Name="DOMAIN" OID="IT.TA.DOMAIN" SASFieldName="DOMAIN" def:CommentOID="COM.TA.DOMAIN">
        <Description>
          <TranslatedText xml:lang="en">Domain Abbreviation</TranslatedText>
        </Description>
        <CodeListRef CodeListOID="CL.SDOMAIN.7648"/>
        <def:Origin Type="Other"/>
      </ItemDef>
      <ItemDef DataType="text" Length="2" Name="ARMCD" OID="IT.TA.ARMCD" SASFieldName="ARMCD" def:CommentOID="COM.TA.ARMCD">
        <Description>
          <TranslatedText xml:lang="en">Planned Arm Code</TranslatedText>
        </Description>
        <def:Origin Type="Other"/>
      </ItemDef>
      <ItemDef DataType="text" Length="30" Name="ARM" OID="IT.TA.ARM" SASFieldName="ARM" def:CommentOID="COM.TA.ARM">
        <Description>
          <TranslatedText xml:lang="en">Description of Planned Arm</TranslatedText>
        </Description>
        <def:Origin Type="Other"/>
      </ItemDef>
      <ItemDef DataType="integer" Length="8" Name="TAETORD" OID="IT.TA.TAETORD" SASFieldName="TAETORD" def:CommentOID="COM.TA.TAETORD">
        <Description>
          <TranslatedText xml:lang="en">Order of Element within Arm</TranslatedText>
        </Description>
        <def:Origin Type="Other"/>
      </ItemDef>
      <ItemDef DataType="text" Length="5" Name="ETCD" OID="IT.TA.ETCD" SASFieldName="ETCD" def:CommentOID="COM.TA.ETCD">
        <Description>
          <TranslatedText xml:lang="en">Element Code</TranslatedText>
        </Description>
        <def:Origin Type="Other"/>
      </ItemDef>
      <ItemDef DataType="text" Length="28" Name="ELEMENT" OID="IT.TA.ELEMENT" SASFieldName="ELEMENT" def:CommentOID="COM.TA.ELEMENT">
        <Description>
          <TranslatedText xml:lang="en">Description of Element</TranslatedText>
        </Description>
        <def:Origin Type="Other"/>
      </ItemDef>
      <ItemDef DataType="text" Length="21" Name="TABRANCH" OID="IT.TA.TABRANCH" SASFieldName="TABRANCH" def:CommentOID="COM.TA.TABRANCH">
        <Description>
          <TranslatedText xml:lang="en">Branch</TranslatedText>
        </Description>
        <def:Origin Type="Other"/>
      </ItemDef>
      <ItemDef DataType="text" Length="9" Name="EPOCH" OID="IT.TA.EPOCH" SASFieldName="EPOCH" def:CommentOID="COM.TA.EPOCH">
        <Description>
          <TranslatedText xml:lang="en">Trial Epoch</TranslatedText>
        </Description>
        <def:Origin Type="Other"/>
      </ItemDef>
      <ItemDef DataType="text" Length="2" Name="DOMAIN" OID="IT.TE.DOMAIN" SASFieldName="DOMAIN" def:CommentOID="COM.TE.DOMAIN">
        <Description>
          <TranslatedText xml:lang="en">Domain Abbreviation</TranslatedText>
        </Description>
        <CodeListRef CodeListOID="CL.SDOMAIN.7648"/>
        <def:Origin Type="Other"/>
      </ItemDef>
      <ItemDef DataType="text" Length="5" Name="ETCD" OID="IT.TE.ETCD" SASFieldName="ETCD" def:CommentOID="COM.TE.ETCD">
        <Description>
          <TranslatedText xml:lang="en">Element Code</TranslatedText>
        </Description>
        <def:Origin Type="Other"/>
      </ItemDef>
      <ItemDef DataType="text" Length="28" Name="ELEMENT" OID="IT.TE.ELEMENT" SASFieldName="ELEMENT" def:CommentOID="COM.TE.ELEMENT">
        <Description>
          <TranslatedText xml:lang="en">Description of Element</TranslatedText>
        </Description>
        <def:Origin Type="Other"/>
      </ItemDef>
      <ItemDef DataType="text" Length="41" Name="TESTRL" OID="IT.TE.TESTRL" SASFieldName="TESTRL" def:CommentOID="COM.TE.TESTRL">
        <Description>
          <TranslatedText xml:lang="en">Rule for Start of Element</TranslatedText>
        </Description>
        <def:Origin Type="Other"/>
      </ItemDef>
      <ItemDef DataType="text" Length="31" Name="TEENRL" OID="IT.TE.TEENRL" SASFieldName="TEENRL" def:CommentOID="COM.TE.TEENRL">
        <Description>
          <TranslatedText xml:lang="en">Rule for End of Element</TranslatedText>
        </Description>
        <def:Origin Type="Other"/>
      </ItemDef>
      <ItemDef DataType="text" Length="4" Name="TEDUR" OID="IT.TE.TEDUR" SASFieldName="TEDUR" def:CommentOID="COM.TE.TEDUR">
        <Description>
          <TranslatedText xml:lang="en">Planned Duration of Element</TranslatedText>
        </Description>
        <def:Origin Type="Other"/>
      </ItemDef>
      <ItemDef DataType="text" Length="2" Name="DOMAIN" OID="IT.TS.DOMAIN" SASFieldName="DOMAIN" def:CommentOID="COM.TS.DOMAIN">
        <Description>
          <TranslatedText xml:lang="en">Domain Abbreviation</TranslatedText>
        </Description>
        <CodeListRef CodeListOID="CL.SDOMAIN.7648"/>
        <def:Origin Type="Other"/>
      </ItemDef>
      <ItemDef DataType="integer" Length="8" Name="TSSEQ" OID="IT.TS.TSSEQ" SASFieldName="TSSEQ" def:CommentOID="COM.TS.TSSEQ">
        <Description>
          <TranslatedText xml:lang="en">Sequence Number</TranslatedText>
        </Description>
        <def:Origin Type="Derived"/>
      </ItemDef>
      <ItemDef DataType="text" Length="1" Name="TSGRPID" OID="IT.TS.TSGRPID" SASFieldName="TSGRPID" def:CommentOID="COM.TS.TSGRPID">
        <Description>
          <TranslatedText xml:lang="en">Group Identifier</TranslatedText>
        </Description>
        <def:Origin Type="Other"/>
      </ItemDef>
      <ItemDef DataType="text" Length="8" Name="TSPARMCD" OID="IT.TS.TSPARMCD" SASFieldName="TSPARMCD" def:CommentOID="COM.TS.TSPARMCD">
        <Description>
          <TranslatedText xml:lang="en">Trial Summary Parameter Short Name</TranslatedText>
        </Description>
        <def:Origin Type="Other"/>
      </ItemDef>
      <ItemDef DataType="text" Length="37" Name="TSPARM" OID="IT.TS.TSPARM" SASFieldName="TSPARM" def:CommentOID="COM.TS.TSPARM">
        <Description>
          <TranslatedText xml:lang="en">Trial Summary Parameter</TranslatedText>
        </Description>
        <CodeListRef CodeListOID="CL.STSPRM.7681"/>
        <def:Origin Type="Other"/>
      </ItemDef>
      <ItemDef DataType="text" Length="52" Name="TSVAL" OID="IT.TS.TSVAL" SASFieldName="TSVAL" def:CommentOID="COM.TS.TSVAL">
        <Description>
          <TranslatedText xml:lang="en">Parameter Value</TranslatedText>
        </Description>
        <def:Origin Type="Other"/>
      </ItemDef>
      <ItemDef DataType="text" Length="2" Name="DOMAIN" OID="IT.TX.DOMAIN" SASFieldName="DOMAIN" def:CommentOID="COM.TX.DOMAIN">
        <Description>
          <TranslatedText xml:lang="en">Domain Abbreviation</TranslatedText>
        </Description>
        <CodeListRef CodeListOID="CL.SDOMAIN.7648"/>
        <def:Origin Type="Other"/>
      </ItemDef>
      <ItemDef DataType="text" Length="3" Name="SETCD" OID="IT.TX.SETCD" SASFieldName="SETCD" def:CommentOID="COM.TX.SETCD">
        <Description>
          <TranslatedText xml:lang="en">Set Code</TranslatedText>
        </Description>
        <def:Origin Type="Other"/>
      </ItemDef>
      <ItemDef DataType="text" Length="37" Name="SET" OID="IT.TX.SET" SASFieldName="SET" def:CommentOID="COM.TX.SET">
        <Description>
          <TranslatedText xml:lang="en">Set Description</TranslatedText>
        </Description>
        <def:Origin Type="Other"/>
      </ItemDef>
      <ItemDef DataType="integer" Length="8" Name="TXSEQ" OID="IT.TX.TXSEQ" SASFieldName="TXSEQ" def:CommentOID="COM.TX.TXSEQ">
        <Description>
          <TranslatedText xml:lang="en">Sequence Number</TranslatedText>
        </Description>
        <def:Origin Type="Derived"/>
      </ItemDef>
      <ItemDef DataType="text" Length="8" Name="TXPARMCD" OID="IT.TX.TXPARMCD" SASFieldName="TXPARMCD" def:CommentOID="COM.TX.TXPARMCD">
        <Description>
          <TranslatedText xml:lang="en">Trial Set Parameter Short Name</TranslatedText>
        </Description>
        <def:Origin Type="Other"/>
      </ItemDef>
      <ItemDef DataType="text" Length="33" Name="TXPARM" OID="IT.TX.TXPARM" SASFieldName="TXPARM" def:CommentOID="COM.TX.TXPARM">
        <Description>
          <TranslatedText xml:lang="en">Trial Set Parameter</TranslatedText>
        </Description>
        <CodeListRef CodeListOID="CL.STSPRM.7681"/>
        <def:Origin Type="Other"/>
      </ItemDef>
      <ItemDef DataType="text" Length="32" Name="TXVAL" OID="IT.TX.TXVAL" SASFieldName="TXVAL" def:CommentOID="COM.TX.TXVAL">
        <Description>
          <TranslatedText xml:lang="en">Trial Set Parameter Value</TranslatedText>
        </Description>
        <def:Origin Type="Other"/>
      </ItemDef>
      <ItemDef DataType="text" Length="2" Name="DOMAIN" OID="IT.CO.DOMAIN" SASFieldName="DOMAIN" def:CommentOID="COM.CO.DOMAIN">
        <Description>
          <TranslatedText xml:lang="en">Domain Abbreviation</TranslatedText>
        </Description>
        <CodeListRef CodeListOID="CL.SDOMAIN.7648"/>
        <def:Origin Type="Other"/>
      </ItemDef>
      <ItemDef DataType="text" Length="2" Name="RDOMAIN" OID="IT.CO.RDOMAIN" SASFieldName="RDOMAIN" def:CommentOID="COM.CO.RDOMAIN">
        <Description>
          <TranslatedText xml:lang="en">Related Domain Abbreviation</TranslatedText>
        </Description>
        <def:Origin Type="Other"/>
      </ItemDef>
      <ItemDef DataType="text" Length="13" Name="USUBJID" OID="IT.USUBJID" SASFieldName="USUBJID" def:CommentOID="COM.USUBJID">
        <Description>
          <TranslatedText xml:lang="en">Unique Subject Identifier</TranslatedText>
        </Description>
        <def:Origin Type="Other"/>
      </ItemDef>
      <ItemDef DataType="integer" Length="8" Name="COSEQ" OID="IT.CO.COSEQ" SASFieldName="COSEQ" def:CommentOID="COM.CO.COSEQ">
        <Description>
          <TranslatedText xml:lang="en">Sequence Number</TranslatedText>
        </Description>
        <def:Origin Type="Derived"/>
      </ItemDef>
      <ItemDef DataType="text" Length="5" Name="IDVAR" OID="IT.CO.IDVAR" SASFieldName="IDVAR" def:CommentOID="COM.CO.IDVAR">
        <Description>
          <TranslatedText xml:lang="en">Identifying Variable</TranslatedText>
        </Description>
        <def:Origin Type="Other"/>
      </ItemDef>
      <ItemDef DataType="text" Length="2" Name="IDVARVAL" OID="IT.CO.IDVARVAL" SASFieldName="IDVARVAL" def:CommentOID="COM.CO.IDVARVAL">
        <Description>
          <TranslatedText xml:lang="en">Identifying Variable Value</TranslatedText>
        </Description>
        <def:Origin Type="Other"/>
      </ItemDef>
      <ItemDef DataType="text" Length="33" Name="COVAL" OID="IT.CO.COVAL" SASFieldName="COVAL" def:CommentOID="COM.CO.COVAL">
        <Description>
          <TranslatedText xml:lang="en">Comment</TranslatedText>
        </Description>
        <def:Origin Type="Collected"/>
      </ItemDef>
      <ItemDef DataType="datetime" Name="CODTC" OID="IT.CO.CODTC" SASFieldName="CODTC" def:CommentOID="COM.CO.CODTC">
        <Description>
          <TranslatedText xml:lang="en">Date/Time of Comment</TranslatedText>
        </Description>
        <def:Origin Type="Collected"/>
      </ItemDef>
      <ItemDef DataType="text" Length="2" Name="DOMAIN" OID="IT.DM.DOMAIN" SASFieldName="DOMAIN" def:CommentOID="COM.DM.DOMAIN">
        <Description>
          <TranslatedText xml:lang="en">Domain Abbreviation</TranslatedText>
        </Description>
        <CodeListRef CodeListOID="CL.SDOMAIN.7648"/>
        <def:Origin Type="Other"/>
      </ItemDef>
      <ItemDef DataType="text" Length="4" Name="SUBJID" OID="IT.SUBJID" SASFieldName="SUBJID" def:CommentOID="COM.SUBJID">
        <Description>
          <TranslatedText xml:lang="en">Subject Identifier for the Study</TranslatedText>
        </Description>
        <def:Origin Type="Other"/>
      </ItemDef>
      <ItemDef DataType="datetime" Name="RFSTDTC" OID="IT.DM.RFSTDTC" SASFieldName="RFSTDTC" def:CommentOID="COM.DM.RFSTDTC">
        <Description>
          <TranslatedText xml:lang="en">Subject Reference Start Date/Time</TranslatedText>
        </Description>
        <def:Origin Type="Collected"/>
      </ItemDef>
      <ItemDef DataType="datetime" Name="RFENDTC" OID="IT.DM.RFENDTC" SASFieldName="RFENDTC" def:CommentOID="COM.DM.RFENDTC">
        <Description>
          <TranslatedText xml:lang="en">Subject Reference End Date/Time</TranslatedText>
        </Description>
        <def:Origin Type="Collected"/>
      </ItemDef>
      <ItemDef DataType="text" Length="3" Name="AGETXT" OID="IT.DM.AGETXT" SASFieldName="AGETXT" def:CommentOID="COM.DM.AGETXT">
        <Description>
          <TranslatedText xml:lang="en">Age Range</TranslatedText>
        </Description>
        <def:Origin Type="Other"/>
      </ItemDef>
      <ItemDef DataType="text" Length="5" Name="AGEU" OID="IT.DM.AGEU" SASFieldName="AGEU" def:CommentOID="COM.DM.AGEU">
        <Description>
          <TranslatedText xml:lang="en">Age Unit</TranslatedText>
        </Description>
        <CodeListRef CodeListOID="CL.AGEU.7639"/>
        <def:Origin Type="Other"/>
      </ItemDef>
      <ItemDef DataType="text" Length="1" Name="SEX" OID="IT.DM.SEX" SASFieldName="SEX" def:CommentOID="COM.DM.SEX">
        <Description>
          <TranslatedText xml:lang="en">Sex</TranslatedText>
        </Description>
        <CodeListRef CodeListOID="CL.SEX.7683"/>
        <def:Origin Type="Other"/>
      </ItemDef>
      <ItemDef DataType="text" Length="2" Name="ARMCD" OID="IT.DM.ARMCD" SASFieldName="ARMCD" def:CommentOID="COM.DM.ARMCD">
        <Description>
          <TranslatedText xml:lang="en">Planned Arm Code</TranslatedText>
        </Description>
        <def:Origin Type="Other"/>
      </ItemDef>
      <ItemDef DataType="text" Length="30" Name="ARM" OID="IT.DM.ARM" SASFieldName="ARM" def:CommentOID="COM.DM.ARM">
        <Description>
          <TranslatedText xml:lang="en">Description of Planned Arm</TranslatedText>
        </Description>
        <def:Origin Type="Other"/>
      </ItemDef>
      <ItemDef DataType="text" Length="3" Name="SETCD" OID="IT.DM.SETCD" SASFieldName="SETCD" def:CommentOID="COM.DM.SETCD">
        <Description>
          <TranslatedText xml:lang="en">Set Code</TranslatedText>
        </Description>
        <def:Origin Type="Other"/>
      </ItemDef>
      <ItemDef DataType="text" Length="2" Name="DOMAIN" OID="IT.SE.DOMAIN" SASFieldName="DOMAIN" def:CommentOID="COM.SE.DOMAIN">
        <Description>
          <TranslatedText xml:lang="en">Domain Abbreviation</TranslatedText>
        </Description>
        <CodeListRef CodeListOID="CL.SDOMAIN.7648"/>
        <def:Origin Type="Other"/>
      </ItemDef>
      <ItemDef DataType="integer" Length="8" Name="SESEQ" OID="IT.SE.SESEQ" SASFieldName="SESEQ" def:CommentOID="COM.SE.SESEQ">
        <Description>
          <TranslatedText xml:lang="en">Sequence Number</TranslatedText>
        </Description>
        <def:Origin Type="Derived"/>
      </ItemDef>
      <ItemDef DataType="text" Length="5" Name="ETCD" OID="IT.SE.ETCD" SASFieldName="ETCD" def:CommentOID="COM.SE.ETCD">
        <Description>
          <TranslatedText xml:lang="en">Element Code</TranslatedText>
        </Description>
        <def:Origin Type="Other"/>
      </ItemDef>
      <ItemDef DataType="text" Length="28" Name="ELEMENT" OID="IT.SE.ELEMENT" SASFieldName="ELEMENT" def:CommentOID="COM.SE.ELEMENT">
        <Description>
          <TranslatedText xml:lang="en">Description of Element</TranslatedText>
        </Description>
        <def:Origin Type="Other"/>
      </ItemDef>
      <ItemDef DataType="datetime" Name="SESTDTC" OID="IT.SE.SESTDTC" SASFieldName="SESTDTC" def:CommentOID="COM.SE.SESTDTC">
        <Description>
          <TranslatedText xml:lang="en">Start Date/Time of Element</TranslatedText>
        </Description>
        <def:Origin Type="Collected"/>
      </ItemDef>
      <ItemDef DataType="datetime" Name="SEENDTC" OID="IT.SE.SEENDTC" SASFieldName="SEENDTC" def:CommentOID="COM.SE.SEENDTC">
        <Description>
          <TranslatedText xml:lang="en">End Date/Time of Element</TranslatedText>
        </Description>
        <def:Origin Type="Collected"/>
      </ItemDef>
      <ItemDef DataType="text" Length="2" Name="DOMAIN" OID="IT.EX.DOMAIN" SASFieldName="DOMAIN" def:CommentOID="COM.EX.DOMAIN">
        <Description>
          <TranslatedText xml:lang="en">Domain Abbreviation</TranslatedText>
        </Description>
        <CodeListRef CodeListOID="CL.SDOMAIN.7648"/>
        <def:Origin Type="Other"/>
      </ItemDef>
      <ItemDef DataType="integer" Length="8" Name="EXSEQ" OID="IT.EX.EXSEQ" SASFieldName="EXSEQ" def:CommentOID="COM.EX.EXSEQ">
        <Description>
          <TranslatedText xml:lang="en">Sequence Number</TranslatedText>
        </Description>
        <def:Origin Type="Derived"/>
      </ItemDef>
      <ItemDef DataType="text" Length="6" Name="EXTRT" OID="IT.EX.EXTRT" SASFieldName="EXTRT" def:CommentOID="COM.EX.EXTRT">
        <Description>
          <TranslatedText xml:lang="en">Name of Actual Treatment</TranslatedText>
        </Description>
        <def:Origin Type="Collected"/>
      </ItemDef>
      <ItemDef DataType="float" Length="8" Name="EXDOSE" OID="IT.EX.EXDOSE" SASFieldName="EXDOSE" SignificantDigits="2" def:CommentOID="COM.EX.EXDOSE">
        <Description>
          <TranslatedText xml:lang="en">Dose per Administration</TranslatedText>
        </Description>
        <def:Origin Type="Collected"/>
      </ItemDef>
      <ItemDef DataType="text" Length="5" Name="EXDOSU" OID="IT.EX.EXDOSU" SASFieldName="EXDOSU" def:CommentOID="COM.EX.EXDOSU">
        <Description>
          <TranslatedText xml:lang="en">Dose Units</TranslatedText>
        </Description>
        <CodeListRef CodeListOID="CL.UNIT.7693"/>
        <def:Origin Type="Other"/>
      </ItemDef>
      <ItemDef DataType="text" Length="8" Name="EXDOSFRM" OID="IT.EX.EXDOSFRM" SASFieldName="EXDOSFRM" def:CommentOID="COM.EX.EXDOSFRM">
        <Description>
          <TranslatedText xml:lang="en">Dose Form</TranslatedText>
        </Description>
        <CodeListRef CodeListOID="CL.FRM.7668"/>
        <def:Origin Type="Collected"/>
      </ItemDef>
      <ItemDef DataType="text" Length="3" Name="EXDOSFRQ" OID="IT.EX.EXDOSFRQ" SASFieldName="EXDOSFRQ" def:CommentOID="COM.EX.EXDOSFRQ">
        <Description>
          <TranslatedText xml:lang="en">Dosing Frequency Per Interval</TranslatedText>
        </Description>
        <CodeListRef CodeListOID="CL.FREQ.7655"/>
        <def:Origin Type="Collected"/>
      </ItemDef>
      <ItemDef DataType="text" Length="11" Name="EXROUTE" OID="IT.EX.EXROUTE" SASFieldName="EXROUTE" def:CommentOID="COM.EX.EXROUTE">
        <Description>
          <TranslatedText xml:lang="en">Route of Administration</TranslatedText>
        </Description>
        <CodeListRef CodeListOID="CL.ROUTE.7675"/>
        <def:Origin Type="Collected"/>
      </ItemDef>
      <ItemDef DataType="text" Length="6" Name="EXLOT" OID="IT.EX.EXLOT" SASFieldName="EXLOT" def:CommentOID="COM.EX.EXLOT">
        <Description>
          <TranslatedText xml:lang="en">Lot Number</TranslatedText>
        </Description>
        <def:Origin Type="Collected"/>
      </ItemDef>
      <ItemDef DataType="text" Length="6" Name="EXTRTV" OID="IT.EX.EXTRTV" SASFieldName="EXTRTV" def:CommentOID="COM.EX.EXTRTV">
        <Description>
          <TranslatedText xml:lang="en">Treatment Vehicle</TranslatedText>
        </Description>
        <def:Origin Type="Collected"/>
      </ItemDef>
      <ItemDef DataType="datetime" Name="EXSTDTC" OID="IT.EX.EXSTDTC" SASFieldName="EXSTDTC" def:CommentOID="COM.EX.EXSTDTC">
        <Description>
          <TranslatedText xml:lang="en">Start Date/Time of Treatment</TranslatedText>
        </Description>
        <def:Origin Type="Collected"/>
      </ItemDef>
      <ItemDef DataType="datetime" Name="EXENDTC" OID="IT.EX.EXENDTC" SASFieldName="EXENDTC" def:CommentOID="COM.EX.EXENDTC">
        <Description>
          <TranslatedText xml:lang="en">End Date/Time of Treatment</TranslatedText>
        </Description>
        <def:Origin Type="Collected"/>
      </ItemDef>
      <ItemDef DataType="integer" Length="8" Name="EXSTDY" OID="IT.EX.EXSTDY" SASFieldName="EXSTDY" def:CommentOID="COM.EX.EXSTDY">
        <Description>
          <TranslatedText xml:lang="en">Study Day of Start of Treatment</TranslatedText>
        </Description>
        <def:Origin Type="Derived"/>
      </ItemDef>
      <ItemDef DataType="integer" Length="8" Name="EXENDY" OID="IT.EX.EXENDY" SASFieldName="EXENDY" def:CommentOID="COM.EX.EXENDY">
        <Description>
          <TranslatedText xml:lang="en">Study Day of End of Treatment</TranslatedText>
        </Description>
        <def:Origin Type="Derived"/>
      </ItemDef>
      <ItemDef DataType="text" Length="2" Name="DOMAIN" OID="IT.DS.DOMAIN" SASFieldName="DOMAIN" def:CommentOID="COM.DS.DOMAIN">
        <Description>
          <TranslatedText xml:lang="en">Domain Abbreviation</TranslatedText>
        </Description>
        <CodeListRef CodeListOID="CL.SDOMAIN.7648"/>
        <def:Origin Type="Other"/>
      </ItemDef>
      <ItemDef DataType="integer" Length="8" Name="DSSEQ" OID="IT.DS.DSSEQ" SASFieldName="DSSEQ" def:CommentOID="COM.DS.DSSEQ">
        <Description>
          <TranslatedText xml:lang="en">Sequence Number</TranslatedText>
        </Description>
        <def:Origin Type="Derived"/>
      </ItemDef>
      <ItemDef DataType="text" Length="13" Name="DSTERM" OID="IT.DS.DSTERM" SASFieldName="DSTERM" def:CommentOID="COM.DS.DSTERM">
        <Description>
          <TranslatedText xml:lang="en">Reported Term for the Disposition Event</TranslatedText>
        </Description>
        <def:Origin Type="Collected"/>
      </ItemDef>
      <ItemDef DataType="text" Length="18" Name="DSDECOD" OID="IT.DS.DSDECOD" SASFieldName="DSDECOD" def:CommentOID="COM.DS.DSDECOD">
        <Description>
          <TranslatedText xml:lang="en">Standardized Disposition Term</TranslatedText>
        </Description>
        <CodeListRef CodeListOID="CL.DSDECOD.7687"/>
        <def:Origin Type="Other"/>
      </ItemDef>
      <ItemDef DataType="integer" Length="8" Name="VISITDY" OID="IT.DS.VISITDY" SASFieldName="VISITDY" def:CommentOID="COM.DS.VISITDY">
        <Description>
          <TranslatedText xml:lang="en">Planned Study Day of Disposition</TranslatedText>
        </Description>
        <def:Origin Type="Other"/>
      </ItemDef>
      <ItemDef DataType="datetime" Name="DSSTDTC" OID="IT.DS.DSSTDTC" SASFieldName="DSSTDTC" def:CommentOID="COM.DS.DSSTDTC">
        <Description>
          <TranslatedText xml:lang="en">Date/Time of Disposition</TranslatedText>
        </Description>
        <def:Origin Type="Collected"/>
      </ItemDef>
      <ItemDef DataType="integer" Length="8" Name="DSSTDY" OID="IT.DS.DSSTDY" SASFieldName="DSSTDY" def:CommentOID="COM.DS.DSSTDY">
        <Description>
          <TranslatedText xml:lang="en">Study Day of Disposition</TranslatedText>
        </Description>
        <def:Origin Type="Derived"/>
      </ItemDef>
      <ItemDef DataType="text" Length="2" Name="DOMAIN" OID="IT.BG.DOMAIN" SASFieldName="DOMAIN" def:CommentOID="COM.BG.DOMAIN">
        <Description>
          <TranslatedText xml:lang="en">Domain Abbreviation</TranslatedText>
        </Description>
        <CodeListRef CodeListOID="CL.SDOMAIN.7648"/>
        <def:Origin Type="Other"/>
      </ItemDef>
      <ItemDef DataType="integer" Length="8" Name="BGSEQ" OID="IT.BG.BGSEQ" SASFieldName="BGSEQ" def:CommentOID="COM.BG.BGSEQ">
        <Description>
          <TranslatedText xml:lang="en">Sequence Number</TranslatedText>
        </Description>
        <def:Origin Type="Derived"/>
      </ItemDef>
      <ItemDef DataType="text" Length="6" Name="BGTESTCD" OID="IT.BG.BGTESTCD" SASFieldName="BGTESTCD" def:CommentOID="COM.BG.BGTESTCD">
        <Description>
          <TranslatedText xml:lang="en">Test Short Name</TranslatedText>
        </Description>
        <CodeListRef CodeListOID="CL.BGTESTCD.7641"/>
        <def:Origin Type="Other"/>
      </ItemDef>
      <ItemDef DataType="text" Length="16" Name="BGTEST" OID="IT.BG.BGTEST" SASFieldName="BGTEST" def:CommentOID="COM.BG.BGTEST">
        <Description>
          <TranslatedText xml:lang="en">Test Name</TranslatedText>
        </Description>
        <CodeListRef CodeListOID="CL.BGTEST.7641"/>
        <def:Origin Type="Other"/>
      </ItemDef>
      <ItemDef DataType="text" Length="3" Name="BGORRES" OID="IT.BG.BGORRES" SASFieldName="BGORRES" def:CommentOID="COM.BG.BGORRES">
        <Description>
          <TranslatedText xml:lang="en">Result or Findings as Collected</TranslatedText>
        </Description>
        <def:Origin Type="Other"/>
      </ItemDef>
      <ItemDef DataType="text" Length="1" Name="BGORRESU" OID="IT.BG.BGORRESU" SASFieldName="BGORRESU" def:CommentOID="COM.BG.BGORRESU">
        <Description>
          <TranslatedText xml:lang="en">Unit of the Original Result</TranslatedText>
        </Description>
        <CodeListRef CodeListOID="CL.UNIT.7693"/>
        <def:Origin Type="Other"/>
      </ItemDef>
      <ItemDef DataType="text" Length="3" Name="BGSTRESC" OID="IT.BG.BGSTRESC" SASFieldName="BGSTRESC" def:CommentOID="COM.BG.BGSTRESC">
        <Description>
          <TranslatedText xml:lang="en">Standardized Result in Character Format</TranslatedText>
        </Description>
        <def:Origin Type="Other"/>
      </ItemDef>
      <ItemDef DataType="float" Length="8" Name="BGSTRESN" OID="IT.BG.BGSTRESN" SASFieldName="BGSTRESN" SignificantDigits="2" def:CommentOID="COM.BG.BGSTRESN">
        <Description>
          <TranslatedText xml:lang="en">Standardized Result in Numeric Format</TranslatedText>
        </Description>
        <def:Origin Type="Other"/>
      </ItemDef>
      <ItemDef DataType="text" Length="1" Name="BGSTRESU" OID="IT.BG.BGSTRESU" SASFieldName="BGSTRESU" def:CommentOID="COM.BG.BGSTRESU">
        <Description>
          <TranslatedText xml:lang="en">Unit of the Standardized Result</TranslatedText>
        </Description>
        <CodeListRef CodeListOID="CL.UNIT.7693"/>
        <def:Origin Type="Other"/>
      </ItemDef>
      <ItemDef DataType="datetime" Name="BGDTC" OID="IT.BG.BGDTC" SASFieldName="BGDTC" def:CommentOID="COM.BG.BGDTC">
        <Description>
          <TranslatedText xml:lang="en">Date/Time Animal Weighed</TranslatedText>
        </Description>
        <def:Origin Type="Collected"/>
      </ItemDef>
      <ItemDef DataType="datetime" Name="BGENDTC" OID="IT.BG.BGENDTC" SASFieldName="BGENDTC" def:CommentOID="COM.BG.BGENDTC">
        <Description>
          <TranslatedText xml:lang="en">End Date/Time Animal Weighed</TranslatedText>
        </Description>
        <def:Origin Type="Collected"/>
      </ItemDef>
      <ItemDef DataType="integer" Length="8" Name="BGDY" OID="IT.BG.BGDY" SASFieldName="BGDY" def:CommentOID="COM.BG.BGDY">
        <Description>
          <TranslatedText xml:lang="en">Study Day Animal Weighed</TranslatedText>
        </Description>
        <def:Origin Type="Derived"/>
      </ItemDef>
      <ItemDef DataType="integer" Length="8" Name="BGENDY" OID="IT.BG.BGENDY" SASFieldName="BGENDY" def:CommentOID="COM.BG.BGENDY">
        <Description>
          <TranslatedText xml:lang="en">Study Day of End of Weight Interval</TranslatedText>
        </Description>
        <def:Origin Type="Derived"/>
      </ItemDef>
      <ItemDef DataType="text" Length="2" Name="DOMAIN" OID="IT.BW.DOMAIN" SASFieldName="DOMAIN" def:CommentOID="COM.BW.DOMAIN">
        <Description>
          <TranslatedText xml:lang="en">Domain Abbreviation</TranslatedText>
        </Description>
        <CodeListRef CodeListOID="CL.SDOMAIN.7648"/>
        <def:Origin Type="Other"/>
      </ItemDef>
      <ItemDef DataType="integer" Length="8" Name="BWSEQ" OID="IT.BW.BWSEQ" SASFieldName="BWSEQ" def:CommentOID="COM.BW.BWSEQ">
        <Description>
          <TranslatedText xml:lang="en">Sequence Number</TranslatedText>
        </Description>
        <def:Origin Type="Derived"/>
      </ItemDef>
      <ItemDef DataType="text" Length="6" Name="BWTESTCD" OID="IT.BW.BWTESTCD" SASFieldName="BWTESTCD" def:CommentOID="COM.BW.BWTESTCD">
        <Description>
          <TranslatedText xml:lang="en">Test Short Name</TranslatedText>
        </Description>
        <CodeListRef CodeListOID="CL.BWTESTCD.7642"/>
        <def:Origin Type="Other"/>
      </ItemDef>
      <ItemDef DataType="text" Length="20" Name="BWTEST" OID="IT.BW.BWTEST" SASFieldName="BWTEST" def:CommentOID="COM.BW.BWTEST">
        <Description>
          <TranslatedText xml:lang="en">Test Name</TranslatedText>
        </Description>
        <CodeListRef CodeListOID="CL.BWTEST.7642"/>
        <def:Origin Type="Other"/>
      </ItemDef>
      <ItemDef DataType="text" Length="5" Name="BWORRES" OID="IT.BW.BWORRES" SASFieldName="BWORRES" def:CommentOID="COM.BW.BWORRES">
        <Description>
          <TranslatedText xml:lang="en">Result or Findings as Collected</TranslatedText>
        </Description>
        <def:Origin Type="Collected"/>
      </ItemDef>
      <ItemDef DataType="text" Length="1" Name="BWORRESU" OID="IT.BW.BWORRESU" SASFieldName="BWORRESU" def:CommentOID="COM.BW.BWORRESU">
        <Description>
          <TranslatedText xml:lang="en">Unit of the Original Result</TranslatedText>
        </Description>
        <CodeListRef CodeListOID="CL.UNIT.7693"/>
        <def:Origin Type="Other"/>
      </ItemDef>
      <ItemDef DataType="text" Length="5" Name="BWSTRESC" OID="IT.BW.BWSTRESC" SASFieldName="BWSTRESC" def:CommentOID="COM.BW.BWSTRESC">
        <Description>
          <TranslatedText xml:lang="en">Standardized Result in Character Format</TranslatedText>
        </Description>
        <def:Origin Type="Other"/>
      </ItemDef>
      <ItemDef DataType="float" Length="8" Name="BWSTRESN" OID="IT.BW.BWSTRESN" SASFieldName="BWSTRESN" SignificantDigits="2" def:CommentOID="COM.BW.BWSTRESN">
        <Description>
          <TranslatedText xml:lang="en">Standardized Result in Numeric Format</TranslatedText>
        </Description>
        <def:Origin Type="Other"/>
      </ItemDef>
      <ItemDef DataType="text" Length="1" Name="BWSTRESU" OID="IT.BW.BWSTRESU" SASFieldName="BWSTRESU" def:CommentOID="COM.BW.BWSTRESU">
        <Description>
          <TranslatedText xml:lang="en">Unit of the Standardized Result</TranslatedText>
        </Description>
        <CodeListRef CodeListOID="CL.UNIT.7693"/>
        <def:Origin Type="Other"/>
      </ItemDef>
      <ItemDef DataType="text" Length="1" Name="BWBLFL" OID="IT.BW.BWBLFL" SASFieldName="BWBLFL" def:CommentOID="COM.BW.BWBLFL">
        <Description>
          <TranslatedText xml:lang="en">Baseline Flag</TranslatedText>
        </Description>
        <CodeListRef CodeListOID="CL.NY.7665"/>
        <def:Origin Type="Other"/>
      </ItemDef>
      <ItemDef DataType="integer" Length="8" Name="VISITDY" OID="IT.BW.VISITDY" SASFieldName="VISITDY" def:CommentOID="COM.BW.VISITDY">
        <Description>
          <TranslatedText xml:lang="en">Planned Study Day of Collection</TranslatedText>
        </Description>
        <def:Origin Type="Other"/>
      </ItemDef>
      <ItemDef DataType="datetime" Name="BWDTC" OID="IT.BW.BWDTC" SASFieldName="BWDTC" def:CommentOID="COM.BW.BWDTC">
        <Description>
          <TranslatedText xml:lang="en">Date/Time Animal Weighed</TranslatedText>
        </Description>
        <def:Origin Type="Collected"/>
      </ItemDef>
      <ItemDef DataType="integer" Length="8" Name="BWDY" OID="IT.BW.BWDY" SASFieldName="BWDY" def:CommentOID="COM.BW.BWDY">
        <Description>
          <TranslatedText xml:lang="en">Study Day Animal Weighed</TranslatedText>
        </Description>
        <def:Origin Type="Derived"/>
      </ItemDef>
      <ItemDef DataType="text" Length="2" Name="DOMAIN" OID="IT.CL.DOMAIN" SASFieldName="DOMAIN" def:CommentOID="COM.CL.DOMAIN">
        <Description>
          <TranslatedText xml:lang="en">Domain Abbreviation</TranslatedText>
        </Description>
        <CodeListRef CodeListOID="CL.SDOMAIN.7648"/>
        <def:Origin Type="Other"/>
      </ItemDef>
      <ItemDef DataType="integer" Length="8" Name="CLSEQ" OID="IT.CL.CLSEQ" SASFieldName="CLSEQ" def:CommentOID="COM.CL.CLSEQ">
        <Description>
          <TranslatedText xml:lang="en">Sequence Number</TranslatedText>
        </Description>
        <def:Origin Type="Derived"/>
      </ItemDef>
      <ItemDef DataType="text" Length="2" Name="CLTESTCD" OID="IT.CL.CLTESTCD" SASFieldName="CLTESTCD" def:CommentOID="COM.CL.CLTESTCD">
        <Description>
          <TranslatedText xml:lang="en">Test Short Name</TranslatedText>
        </Description>
        <def:Origin Type="Other"/>
      </ItemDef>
      <ItemDef DataType="text" Length="13" Name="CLTEST" OID="IT.CL.CLTEST" SASFieldName="CLTEST" def:CommentOID="COM.CL.CLTEST">
        <Description>
          <TranslatedText xml:lang="en">Test Name</TranslatedText>
        </Description>
        <def:Origin Type="Other"/>
      </ItemDef>
      <ItemDef DataType="text" Length="14" Name="CLCAT" OID="IT.CL.CLCAT" SASFieldName="CLCAT" def:CommentOID="COM.CL.CLCAT">
        <Description>
          <TranslatedText xml:lang="en">Category for Clinical Observations</TranslatedText>
        </Description>
        <CodeListRef CodeListOID="CL.CLCAT.7643"/>
        <def:Origin Type="Other"/>
      </ItemDef>
      <ItemDef DataType="text" Length="37" Name="CLORRES" OID="IT.CL.CLORRES" SASFieldName="CLORRES" def:CommentOID="COM.CL.CLORRES">
        <Description>
          <TranslatedText xml:lang="en">Result or Findings as Collected</TranslatedText>
        </Description>
        <def:Origin Type="Collected"/>
      </ItemDef>
      <ItemDef DataType="text" Length="11" Name="CLSTRESC" OID="IT.CL.CLSTRESC" SASFieldName="CLSTRESC" def:CommentOID="COM.CL.CLSTRESC">
        <Description>
          <TranslatedText xml:lang="en">Standardized Result in Character Format</TranslatedText>
        </Description>
        <def:Origin Type="Other"/>
      </ItemDef>
      <ItemDef DataType="text" Length="20" Name="CLLOC" OID="IT.CL.CLLOC" SASFieldName="CLLOC" def:CommentOID="COM.CL.CLLOC">
        <Description>
          <TranslatedText xml:lang="en">Location of a Finding</TranslatedText>
        </Description>
        <def:Origin Type="Other"/>
      </ItemDef>
      <ItemDef DataType="integer" Length="8" Name="VISITDY" OID="IT.CL.VISITDY" SASFieldName="VISITDY" def:CommentOID="COM.CL.VISITDY">
        <Description>
          <TranslatedText xml:lang="en">Planned Study Day of Collection</TranslatedText>
        </Description>
        <def:Origin Type="Other"/>
      </ItemDef>
      <ItemDef DataType="datetime" Name="CLDTC" OID="IT.CL.CLDTC" SASFieldName="CLDTC" def:CommentOID="COM.CL.CLDTC">
        <Description>
          <TranslatedText xml:lang="en">Start Date/Time of Observation</TranslatedText>
        </Description>
        <def:Origin Type="Collected"/>
      </ItemDef>
      <ItemDef DataType="integer" Length="8" Name="CLDY" OID="IT.CL.CLDY" SASFieldName="CLDY" def:CommentOID="COM.CL.CLDY">
        <Description>
          <TranslatedText xml:lang="en">Study Day of Observation</TranslatedText>
        </Description>
        <def:Origin Type="Derived"/>
      </ItemDef>
      <ItemDef DataType="text" Length="2" Name="DOMAIN" OID="IT.DD.DOMAIN" SASFieldName="DOMAIN" def:CommentOID="COM.DD.DOMAIN">
        <Description>
          <TranslatedText xml:lang="en">Domain Abbreviation</TranslatedText>
        </Description>
        <CodeListRef CodeListOID="CL.SDOMAIN.7648"/>
        <def:Origin Type="Other"/>
      </ItemDef>
      <ItemDef DataType="integer" Length="8" Name="DDSEQ" OID="IT.DD.DDSEQ" SASFieldName="DDSEQ" def:CommentOID="COM.DD.DDSEQ">
        <Description>
          <TranslatedText xml:lang="en">Sequence Number</TranslatedText>
        </Description>
        <def:Origin Type="Derived"/>
      </ItemDef>
      <ItemDef DataType="text" Length="6" Name="DDTESTCD" OID="IT.DD.DDTESTCD" SASFieldName="DDTESTCD" def:CommentOID="COM.DD.DDTESTCD">
        <Description>
          <TranslatedText xml:lang="en">Death Diagnosis Short Name</TranslatedText>
        </Description>
        <CodeListRef CodeListOID="CL.DDTESTCD.7646"/>
        <def:Origin Type="Other"/>
      </ItemDef>
      <ItemDef DataType="text" Length="15" Name="DDTEST" OID="IT.DD.DDTEST" SASFieldName="DDTEST" def:CommentOID="COM.DD.DDTEST">
        <Description>
          <TranslatedText xml:lang="en">Death Diagnosis Name</TranslatedText>
        </Description>
        <CodeListRef CodeListOID="CL.DDTEST.7646"/>
        <def:Origin Type="Other"/>
      </ItemDef>
      <ItemDef DataType="text" Length="24" Name="DDORRES" OID="IT.DD.DDORRES" SASFieldName="DDORRES" def:CommentOID="COM.DD.DDORRES">
        <Description>
          <TranslatedText xml:lang="en">Result or Findings as Collected</TranslatedText>
        </Description>
        <def:Origin Type="Collected"/>
      </ItemDef>
      <ItemDef DataType="text" Length="24" Name="DDSTRESC" OID="IT.DD.DDSTRESC" SASFieldName="DDSTRESC" def:CommentOID="COM.DD.DDSTRESC">
        <Description>
          <TranslatedText xml:lang="en">Standardized Result in Character Format</TranslatedText>
        </Description>
        <def:Origin Type="Other"/>
      </ItemDef>
      <ItemDef DataType="text" Length="12" Name="DDRESCAT" OID="IT.DD.DDRESCAT" SASFieldName="DDRESCAT" def:CommentOID="COM.DD.DDRESCAT">
        <Description>
          <TranslatedText xml:lang="en">Result Category</TranslatedText>
        </Description>
        <def:Origin Type="Other"/>
      </ItemDef>
      <ItemDef DataType="integer" Length="8" Name="DDDY" OID="IT.DD.DDDY" SASFieldName="DDDY" def:CommentOID="COM.DD.DDDY">
        <Description>
          <TranslatedText xml:lang="en">Study Day of Diagnosis</TranslatedText>
        </Description>
        <def:Origin Type="Derived"/>
      </ItemDef>
      <ItemDef DataType="text" Length="2" Name="DOMAIN" OID="IT.EG.DOMAIN" SASFieldName="DOMAIN" def:CommentOID="COM.EG.DOMAIN">
        <Description>
          <TranslatedText xml:lang="en">Domain Abbreviation</TranslatedText>
        </Description>
        <CodeListRef CodeListOID="CL.SDOMAIN.7648"/>
        <def:Origin Type="Other"/>
      </ItemDef>
      <ItemDef DataType="integer" Length="8" Name="EGSEQ" OID="IT.EG.EGSEQ" SASFieldName="EGSEQ" def:CommentOID="COM.EG.EGSEQ">
        <Description>
          <TranslatedText xml:lang="en">Sequence Number</TranslatedText>
        </Description>
        <def:Origin Type="Derived"/>
      </ItemDef>
      <ItemDef DataType="text" Length="6" Name="EGTESTCD" OID="IT.EG.EGTESTCD" SASFieldName="EGTESTCD" def:CommentOID="COM.EG.EGTESTCD">
        <Description>
          <TranslatedText xml:lang="en">ECG Test or Examination Short Name</TranslatedText>
        </Description>
        <def:Origin Type="Other"/>
      </ItemDef>
      <ItemDef DataType="text" Length="24" Name="EGTEST" OID="IT.EG.EGTEST" SASFieldName="EGTEST" def:CommentOID="COM.EG.EGTEST">
        <Description>
          <TranslatedText xml:lang="en">ECG Test or Examination Name</TranslatedText>
        </Description>
        <CodeListRef CodeListOID="CL.EGTEST.7653"/>
        <def:Origin Type="Other"/>
      </ItemDef>
      <ItemDef DataType="text" Length="5" Name="EGPOS" OID="IT.EG.EGPOS" SASFieldName="EGPOS" def:CommentOID="COM.EG.EGPOS">
        <Description>
          <TranslatedText xml:lang="en">ECG Position of Subject</TranslatedText>
        </Description>
        <CodeListRef CodeListOID="CL.POSITION.7673"/>
        <def:Origin Type="Other"/>
      </ItemDef>
      <ItemDef DataType="text" Length="3" Name="EGORRES" OID="IT.EG.EGORRES" SASFieldName="EGORRES" def:CommentOID="COM.EG.EGORRES">
        <Description>
          <TranslatedText xml:lang="en">Result or Findings as Collected</TranslatedText>
        </Description>
        <def:Origin Type="Collected"/>
      </ItemDef>
      <ItemDef DataType="text" Length="4" Name="EGORRESU" OID="IT.EG.EGORRESU" SASFieldName="EGORRESU" def:CommentOID="COM.EG.EGORRESU">
        <Description>
          <TranslatedText xml:lang="en">Unit of the Original Result</TranslatedText>
        </Description>
        <CodeListRef CodeListOID="CL.UNIT.7693"/>
        <def:Origin Type="Other"/>
      </ItemDef>
      <ItemDef DataType="text" Length="3" Name="EGSTRESC" OID="IT.EG.EGSTRESC" SASFieldName="EGSTRESC" def:CommentOID="COM.EG.EGSTRESC">
        <Description>
          <TranslatedText xml:lang="en">Standardized Result in Character Format</TranslatedText>
        </Description>
        <CodeListRef CodeListOID="CL.EGSTRESC.7650"/>
        <def:Origin Type="Other"/>
      </ItemDef>
      <ItemDef DataType="float" Length="8" Name="EGSTRESN" OID="IT.EG.EGSTRESN" SASFieldName="EGSTRESN" SignificantDigits="2" def:CommentOID="COM.EG.EGSTRESN">
        <Description>
          <TranslatedText xml:lang="en">Standardized Result in Numeric Format</TranslatedText>
        </Description>
        <def:Origin Type="Other"/>
      </ItemDef>
      <ItemDef DataType="text" Length="4" Name="EGSTRESU" OID="IT.EG.EGSTRESU" SASFieldName="EGSTRESU" def:CommentOID="COM.EG.EGSTRESU">
        <Description>
          <TranslatedText xml:lang="en">Unit of the Standardized Result</TranslatedText>
        </Description>
        <CodeListRef CodeListOID="CL.UNIT.7693"/>
        <def:Origin Type="Other"/>
      </ItemDef>
      <ItemDef DataType="text" Length="7" Name="EGLEAD" OID="IT.EG.EGLEAD" SASFieldName="EGLEAD" def:CommentOID="COM.EG.EGLEAD">
        <Description>
          <TranslatedText xml:lang="en">Location Used for Measurement</TranslatedText>
        </Description>
        <CodeListRef CodeListOID="CL.EGLEAD.7649"/>
        <def:Origin Type="Other"/>
      </ItemDef>
      <ItemDef DataType="text" Length="1" Name="EGMETHOD" OID="IT.EG.EGMETHOD" SASFieldName="EGMETHOD" def:CommentOID="COM.EG.EGMETHOD">
        <Description>
          <TranslatedText xml:lang="en">Method of ECG Test</TranslatedText>
        </Description>
        <def:Origin Type="Other"/>
      </ItemDef>
      <ItemDef DataType="text" Length="9" Name="EGCSTATE" OID="IT.EG.EGCSTATE" SASFieldName="EGCSTATE" def:CommentOID="COM.EG.EGCSTATE">
        <Description>
          <TranslatedText xml:lang="en">Consciousness State</TranslatedText>
        </Description>
        <CodeListRef CodeListOID="CL.CSTATE.7644"/>
        <def:Origin Type="Other"/>
      </ItemDef>
      <ItemDef DataType="text" Length="1" Name="EGBLFL" OID="IT.EG.EGBLFL" SASFieldName="EGBLFL" def:CommentOID="COM.EG.EGBLFL">
        <Description>
          <TranslatedText xml:lang="en">Baseline Flag</TranslatedText>
        </Description>
        <CodeListRef CodeListOID="CL.NY.7665"/>
        <def:Origin Type="Other"/>
      </ItemDef>
      <ItemDef DataType="integer" Length="8" Name="VISITDY" OID="IT.EG.VISITDY" SASFieldName="VISITDY" def:CommentOID="COM.EG.VISITDY">
        <Description>
          <TranslatedText xml:lang="en">Planned Study Day of Collection</TranslatedText>
        </Description>
        <def:Origin Type="Other"/>
      </ItemDef>
      <ItemDef DataType="datetime" Name="EGDTC" OID="IT.EG.EGDTC" SASFieldName="EGDTC" def:CommentOID="COM.EG.EGDTC">
        <Description>
          <TranslatedText xml:lang="en">Date/Time of ECG</TranslatedText>
        </Description>
        <def:Origin Type="Collected"/>
      </ItemDef>
      <ItemDef DataType="integer" Length="8" Name="EGDY" OID="IT.EG.EGDY" SASFieldName="EGDY" def:CommentOID="COM.EG.EGDY">
        <Description>
          <TranslatedText xml:lang="en">Study Day of ECG Collection</TranslatedText>
        </Description>
        <def:Origin Type="Derived"/>
      </ItemDef>
      <ItemDef DataType="text" Length="2" Name="DOMAIN" OID="IT.FW.DOMAIN" SASFieldName="DOMAIN" def:CommentOID="COM.FW.DOMAIN">
        <Description>
          <TranslatedText xml:lang="en">Domain Abbreviation</TranslatedText>
        </Description>
        <CodeListRef CodeListOID="CL.SDOMAIN.7648"/>
        <def:Origin Type="Other"/>
      </ItemDef>
      <ItemDef DataType="integer" Length="8" Name="FWSEQ" OID="IT.FW.FWSEQ" SASFieldName="FWSEQ" def:CommentOID="COM.FW.FWSEQ">
        <Description>
          <TranslatedText xml:lang="en">Sequence Number</TranslatedText>
        </Description>
        <def:Origin Type="Derived"/>
      </ItemDef>
      <ItemDef DataType="text" Length="2" Name="FWTESTCD" OID="IT.FW.FWTESTCD" SASFieldName="FWTESTCD" def:CommentOID="COM.FW.FWTESTCD">
        <Description>
          <TranslatedText xml:lang="en">Food /Water Consumption Short Name</TranslatedText>
        </Description>
        <CodeListRef CodeListOID="CL.FWTESTCD.7654"/>
        <def:Origin Type="Other"/>
      </ItemDef>
      <ItemDef DataType="text" Length="16" Name="FWTEST" OID="IT.FW.FWTEST" SASFieldName="FWTEST" def:CommentOID="COM.FW.FWTEST">
        <Description>
          <TranslatedText xml:lang="en">Food /Water Consumption Name</TranslatedText>
        </Description>
        <CodeListRef CodeListOID="CL.FWTEST.7654"/>
        <def:Origin Type="Other"/>
      </ItemDef>
      <ItemDef DataType="text" Length="3" Name="FWORRES" OID="IT.FW.FWORRES" SASFieldName="FWORRES" def:CommentOID="COM.FW.FWORRES">
        <Description>
          <TranslatedText xml:lang="en">Result or Findings as Collected</TranslatedText>
        </Description>
        <def:Origin Type="Collected"/>
      </ItemDef>
      <ItemDef DataType="text" Length="5" Name="FWORRESU" OID="IT.FW.FWORRESU" SASFieldName="FWORRESU" def:CommentOID="COM.FW.FWORRESU">
        <Description>
          <TranslatedText xml:lang="en">Unit of the Original Result</TranslatedText>
        </Description>
        <CodeListRef CodeListOID="CL.UNIT.7693"/>
        <def:Origin Type="Other"/>
      </ItemDef>
      <ItemDef DataType="text" Length="3" Name="FWSTRESC" OID="IT.FW.FWSTRESC" SASFieldName="FWSTRESC" def:CommentOID="COM.FW.FWSTRESC">
        <Description>
          <TranslatedText xml:lang="en">Standardized Result in Character Format</TranslatedText>
        </Description>
        <def:Origin Type="Other"/>
      </ItemDef>
      <ItemDef DataType="float" Length="8" Name="FWSTRESN" OID="IT.FW.FWSTRESN" SASFieldName="FWSTRESN" SignificantDigits="2" def:CommentOID="COM.FW.FWSTRESN">
        <Description>
          <TranslatedText xml:lang="en">Standardized Result in Numeric Format</TranslatedText>
        </Description>
        <def:Origin Type="Other"/>
      </ItemDef>
      <ItemDef DataType="text" Length="5" Name="FWSTRESU" OID="IT.FW.FWSTRESU" SASFieldName="FWSTRESU" def:CommentOID="COM.FW.FWSTRESU">
        <Description>
          <TranslatedText xml:lang="en">Unit of the Standardized Result</TranslatedText>
        </Description>
        <CodeListRef CodeListOID="CL.UNIT.7693"/>
        <def:Origin Type="Other"/>
      </ItemDef>
      <ItemDef DataType="datetime" Name="FWDTC" OID="IT.FW.FWDTC" SASFieldName="FWDTC" def:CommentOID="COM.FW.FWDTC">
        <Description>
          <TranslatedText xml:lang="en">Date/Time of Observation</TranslatedText>
        </Description>
        <def:Origin Type="Collected"/>
      </ItemDef>
      <ItemDef DataType="datetime" Name="FWENDTC" OID="IT.FW.FWENDTC" SASFieldName="FWENDTC" def:CommentOID="COM.FW.FWENDTC">
        <Description>
          <TranslatedText xml:lang="en">End Date/Time of Observation</TranslatedText>
        </Description>
        <def:Origin Type="Collected"/>
      </ItemDef>
      <ItemDef DataType="integer" Length="8" Name="FWDY" OID="IT.FW.FWDY" SASFieldName="FWDY" def:CommentOID="COM.FW.FWDY">
        <Description>
          <TranslatedText xml:lang="en">Study Day of Observation</TranslatedText>
        </Description>
        <def:Origin Type="Derived"/>
      </ItemDef>
      <ItemDef DataType="integer" Length="8" Name="FWENDY" OID="IT.FW.FWENDY" SASFieldName="FWENDY" def:CommentOID="COM.FW.FWENDY">
        <Description>
          <TranslatedText xml:lang="en">Study Day of End of Observation</TranslatedText>
        </Description>
        <def:Origin Type="Derived"/>
      </ItemDef>
      <ItemDef DataType="text" Length="2" Name="DOMAIN" OID="IT.LB.DOMAIN" SASFieldName="DOMAIN" def:CommentOID="COM.LB.DOMAIN">
        <Description>
          <TranslatedText xml:lang="en">Domain Abbreviation</TranslatedText>
        </Description>
        <CodeListRef CodeListOID="CL.SDOMAIN.7648"/>
        <def:Origin Type="Other"/>
      </ItemDef>
      <ItemDef DataType="integer" Length="8" Name="LBSEQ" OID="IT.LB.LBSEQ" SASFieldName="LBSEQ" def:CommentOID="COM.LB.LBSEQ">
        <Description>
          <TranslatedText xml:lang="en">Sequence Number</TranslatedText>
        </Description>
        <def:Origin Type="Derived"/>
      </ItemDef>
      <ItemDef DataType="text" Length="7" Name="LBTESTCD" OID="IT.LB.LBTESTCD" SASFieldName="LBTESTCD" def:CommentOID="COM.LB.LBTESTCD">
        <Description>
          <TranslatedText xml:lang="en">Lab Test or Examination Short Name</TranslatedText>
        </Description>
        <def:Origin Type="Other"/>
      </ItemDef>
      <ItemDef DataType="text" Length="39" Name="LBTEST" OID="IT.LB.LBTEST" SASFieldName="LBTEST" def:CommentOID="COM.LB.LBTEST">
        <Description>
          <TranslatedText xml:lang="en">Lab Test or Examination Name</TranslatedText>
        </Description>
        <CodeListRef CodeListOID="CL.LBTEST.7657"/>
        <def:Origin Type="Other"/>
      </ItemDef>
      <ItemDef DataType="text" Length="18" Name="LBCAT" OID="IT.LB.LBCAT" SASFieldName="LBCAT" def:CommentOID="COM.LB.LBCAT">
        <Description>
          <TranslatedText xml:lang="en">Category for Lab Test</TranslatedText>
        </Description>
        <def:Origin Type="Other"/>
      </ItemDef>
      <ItemDef DataType="text" Length="11" Name="LBORRES" OID="IT.LB.LBORRES" SASFieldName="LBORRES" def:CommentOID="COM.LB.LBORRES">
        <Description>
          <TranslatedText xml:lang="en">Result or Findings as Collected</TranslatedText>
        </Description>
        <def:Origin Type="Collected"/>
      </ItemDef>
      <ItemDef DataType="text" Length="7" Name="LBORRESU" OID="IT.LB.LBORRESU" SASFieldName="LBORRESU" def:CommentOID="COM.LB.LBORRESU">
        <Description>
          <TranslatedText xml:lang="en">Unit of the Original Result</TranslatedText>
        </Description>
        <CodeListRef CodeListOID="CL.UNIT.7693"/>
        <def:Origin Type="Other"/>
      </ItemDef>
      <ItemDef DataType="text" Length="11" Name="LBSTRESC" OID="IT.LB.LBSTRESC" SASFieldName="LBSTRESC" def:CommentOID="COM.LB.LBSTRESC">
        <Description>
          <TranslatedText xml:lang="en">Standardized Result in Character Format</TranslatedText>
        </Description>
        <def:Origin Type="Other"/>
      </ItemDef>
      <ItemDef DataType="float" Length="8" Name="LBSTRESN" OID="IT.LB.LBSTRESN" SASFieldName="LBSTRESN" SignificantDigits="2" def:CommentOID="COM.LB.LBSTRESN">
        <Description>
          <TranslatedText xml:lang="en">Standardized Result in Numeric Format</TranslatedText>
        </Description>
        <def:Origin Type="Other"/>
      </ItemDef>
      <ItemDef DataType="text" Length="7" Name="LBSTRESU" OID="IT.LB.LBSTRESU" SASFieldName="LBSTRESU" def:CommentOID="COM.LB.LBSTRESU">
        <Description>
          <TranslatedText xml:lang="en">Unit of the Standardized Result</TranslatedText>
        </Description>
        <CodeListRef CodeListOID="CL.UNIT.7693"/>
        <def:Origin Type="Other"/>
      </ItemDef>
      <ItemDef DataType="text" Length="8" Name="LBSTAT" OID="IT.LB.LBSTAT" SASFieldName="LBSTAT" def:CommentOID="COM.LB.LBSTAT">
        <Description>
          <TranslatedText xml:lang="en">Completion Status</TranslatedText>
        </Description>
        <CodeListRef CodeListOID="CL.ND.7666"/>
        <def:Origin Type="Other"/>
      </ItemDef>
      <ItemDef DataType="text" Length="14" Name="LBREASND" OID="IT.LB.LBREASND" SASFieldName="LBREASND" def:CommentOID="COM.LB.LBREASND">
        <Description>
          <TranslatedText xml:lang="en">Reason Not Done</TranslatedText>
        </Description>
        <def:Origin Type="Other"/>
      </ItemDef>
      <ItemDef DataType="text" Length="11" Name="LBSPEC" OID="IT.LB.LBSPEC" SASFieldName="LBSPEC" def:CommentOID="COM.LB.LBSPEC">
        <Description>
          <TranslatedText xml:lang="en">Specimen Type</TranslatedText>
        </Description>
        <CodeListRef CodeListOID="CL.SPEC.7686"/>
        <def:Origin Type="Other"/>
      </ItemDef>
      <ItemDef DataType="text" Length="14" Name="LBMETHOD" OID="IT.LB.LBMETHOD" SASFieldName="LBMETHOD" def:CommentOID="COM.LB.LBMETHOD">
        <Description>
          <TranslatedText xml:lang="en">Method of Test or Examination</TranslatedText>
        </Description>
        <def:Origin Type="Other"/>
      </ItemDef>
      <ItemDef DataType="text" Length="1" Name="LBBLFL" OID="IT.LB.LBBLFL" SASFieldName="LBBLFL" def:CommentOID="COM.LB.LBBLFL">
        <Description>
          <TranslatedText xml:lang="en">Baseline Flag</TranslatedText>
        </Description>
        <CodeListRef CodeListOID="CL.NY.7665"/>
        <def:Origin Type="Other"/>
      </ItemDef>
      <ItemDef DataType="integer" Length="8" Name="VISITDY" OID="IT.LB.VISITDY" SASFieldName="VISITDY" def:CommentOID="COM.LB.VISITDY">
        <Description>
          <TranslatedText xml:lang="en">Planned Study Day of Collection</TranslatedText>
        </Description>
        <def:Origin Type="Other"/>
      </ItemDef>
      <ItemDef DataType="datetime" Name="LBDTC" OID="IT.LB.LBDTC" SASFieldName="LBDTC" def:CommentOID="COM.LB.LBDTC">
        <Description>
          <TranslatedText xml:lang="en">Date/Time of Specimen Collection</TranslatedText>
        </Description>
        <def:Origin Type="Collected"/>
      </ItemDef>
      <ItemDef DataType="integer" Length="8" Name="LBDY" OID="IT.LB.LBDY" SASFieldName="LBDY" def:CommentOID="COM.LB.LBDY">
        <Description>
          <TranslatedText xml:lang="en">Study Day of Specimen Collection</TranslatedText>
        </Description>
        <def:Origin Type="Derived"/>
      </ItemDef>
      <ItemDef DataType="text" Length="2" Name="DOMAIN" OID="IT.MA.DOMAIN" SASFieldName="DOMAIN" def:CommentOID="COM.MA.DOMAIN">
        <Description>
          <TranslatedText xml:lang="en">Domain Abbreviation</TranslatedText>
        </Description>
        <CodeListRef CodeListOID="CL.SDOMAIN.7648"/>
        <def:Origin Type="Other"/>
      </ItemDef>
      <ItemDef DataType="integer" Length="8" Name="MASEQ" OID="IT.MA.MASEQ" SASFieldName="MASEQ" def:CommentOID="COM.MA.MASEQ">
        <Description>
          <TranslatedText xml:lang="en">Sequence Number</TranslatedText>
        </Description>
        <def:Origin Type="Derived"/>
      </ItemDef>
      <ItemDef DataType="text" Length="1" Name="MASPID" OID="IT.MA.MASPID" SASFieldName="MASPID" def:CommentOID="COM.MA.MASPID">
        <Description>
          <TranslatedText xml:lang="en">Mass Identifier</TranslatedText>
        </Description>
        <def:Origin Type="Other"/>
      </ItemDef>
      <ItemDef DataType="text" Length="8" Name="MATESTCD" OID="IT.MA.MATESTCD" SASFieldName="MATESTCD" def:CommentOID="COM.MA.MATESTCD">
        <Description>
          <TranslatedText xml:lang="en">Macroscopic Examination Short Name</TranslatedText>
        </Description>
        <CodeListRef CodeListOID="CL.MATESTCD.7659"/>
        <def:Origin Type="Other"/>
      </ItemDef>
      <ItemDef DataType="text" Length="30" Name="MATEST" OID="IT.MA.MATEST" SASFieldName="MATEST" def:CommentOID="COM.MA.MATEST">
        <Description>
          <TranslatedText xml:lang="en">Macroscopic Examination Name</TranslatedText>
        </Description>
        <CodeListRef CodeListOID="CL.MATEST.7659"/>
        <def:Origin Type="Other"/>
      </ItemDef>
      <ItemDef DataType="text" Length="75" Name="MAORRES" OID="IT.MA.MAORRES" SASFieldName="MAORRES" def:CommentOID="COM.MA.MAORRES">
        <Description>
          <TranslatedText xml:lang="en">Result or Findings as Collected</TranslatedText>
        </Description>
        <def:Origin Type="Collected"/>
      </ItemDef>
      <ItemDef DataType="text" Length="18" Name="MASTRESC" OID="IT.MA.MASTRESC" SASFieldName="MASTRESC" def:CommentOID="COM.MA.MASTRESC">
        <Description>
          <TranslatedText xml:lang="en">Standardized Result in Character Format</TranslatedText>
        </Description>
        <def:Origin Type="Other"/>
      </ItemDef>
      <ItemDef DataType="text" Length="25" Name="MASPEC" OID="IT.MA.MASPEC" SASFieldName="MASPEC" def:CommentOID="COM.MA.MASPEC">
        <Description>
          <TranslatedText xml:lang="en">Specimen Material Type</TranslatedText>
        </Description>
        <CodeListRef CodeListOID="CL.SPEC.7686"/>
        <def:Origin Type="Other"/>
      </ItemDef>
      <ItemDef DataType="text" Length="1" Name="MAANTREG" OID="IT.MA.MAANTREG" SASFieldName="MAANTREG" def:CommentOID="COM.MA.MAANTREG">
        <Description>
          <TranslatedText xml:lang="en">Anatomical Region of Specimen</TranslatedText>
        </Description>
        <def:Origin Type="Other"/>
      </ItemDef>
      <ItemDef DataType="text" Length="9" Name="MALAT" OID="IT.MA.MALAT" SASFieldName="MALAT" def:CommentOID="COM.MA.MALAT">
        <Description>
          <TranslatedText xml:lang="en">Specimen Laterality within Subject</TranslatedText>
        </Description>
        <CodeListRef CodeListOID="CL.LAT.7658"/>
        <def:Origin Type="Other"/>
      </ItemDef>
      <ItemDef DataType="text" Length="8" Name="MASEV" OID="IT.MA.MASEV" SASFieldName="MASEV" def:CommentOID="COM.MA.MASEV">
        <Description>
          <TranslatedText xml:lang="en">Severity</TranslatedText>
        </Description>
        <CodeListRef CodeListOID="CL.SEV.7682"/>
        <def:Origin Type="Other"/>
      </ItemDef>
      <ItemDef DataType="integer" Length="8" Name="MADY" OID="IT.MA.MADY" SASFieldName="MADY" def:CommentOID="COM.MA.MADY">
        <Description>
          <TranslatedText xml:lang="en">Study Day of Specimen Collection</TranslatedText>
        </Description>
        <def:Origin Type="Derived"/>
      </ItemDef>
      <ItemDef DataType="text" Length="2" Name="DOMAIN" OID="IT.MI.DOMAIN" SASFieldName="DOMAIN" def:CommentOID="COM.MI.DOMAIN">
        <Description>
          <TranslatedText xml:lang="en">Domain Abbreviation</TranslatedText>
        </Description>
        <CodeListRef CodeListOID="CL.SDOMAIN.7648"/>
        <def:Origin Type="Other"/>
      </ItemDef>
      <ItemDef DataType="integer" Length="8" Name="MISEQ" OID="IT.MI.MISEQ" SASFieldName="MISEQ" def:CommentOID="COM.MI.MISEQ">
        <Description>
          <TranslatedText xml:lang="en">Sequence Number</TranslatedText>
        </Description>
        <def:Origin Type="Derived"/>
      </ItemDef>
      <ItemDef DataType="text" Length="1" Name="MISPID" OID="IT.MI.MISPID" SASFieldName="MISPID" def:CommentOID="COM.MI.MISPID">
        <Description>
          <TranslatedText xml:lang="en">Mass Identifier</TranslatedText>
        </Description>
        <def:Origin Type="Other"/>
      </ItemDef>
      <ItemDef DataType="text" Length="6" Name="MITESTCD" OID="IT.MI.MITESTCD" SASFieldName="MITESTCD" def:CommentOID="COM.MI.MITESTCD">
        <Description>
          <TranslatedText xml:lang="en">Microscopic Examination Short Name</TranslatedText>
        </Description>
        <CodeListRef CodeListOID="CL.MITESTCD.7661"/>
        <def:Origin Type="Other"/>
      </ItemDef>
      <ItemDef DataType="text" Length="23" Name="MITEST" OID="IT.MI.MITEST" SASFieldName="MITEST" def:CommentOID="COM.MI.MITEST">
        <Description>
          <TranslatedText xml:lang="en">Microscopic Examination Name</TranslatedText>
        </Description>
        <CodeListRef CodeListOID="CL.MITEST.7661"/>
        <def:Origin Type="Other"/>
      </ItemDef>
      <ItemDef DataType="text" Length="65" Name="MIORRES" OID="IT.MI.MIORRES" SASFieldName="MIORRES" def:CommentOID="COM.MI.MIORRES">
        <Description>
          <TranslatedText xml:lang="en">Result or Findings as Collected</TranslatedText>
        </Description>
        <def:Origin Type="Collected"/>
      </ItemDef>
      <ItemDef DataType="text" Length="29" Name="MISTRESC" OID="IT.MI.MISTRESC" SASFieldName="MISTRESC" def:CommentOID="COM.MI.MISTRESC">
        <Description>
          <TranslatedText xml:lang="en">Standardized Result in Character Format</TranslatedText>
        </Description>
        <def:Origin Type="Other"/>
      </ItemDef>
      <ItemDef DataType="text" Length="9" Name="MIRESCAT" OID="IT.MI.MIRESCAT" SASFieldName="MIRESCAT" def:CommentOID="COM.MI.MIRESCAT">
        <Description>
          <TranslatedText xml:lang="en">Result Category</TranslatedText>
        </Description>
        <CodeListRef CodeListOID="CL.MIRESCAT.7662"/>
        <def:Origin Type="Other"/>
      </ItemDef>
      <ItemDef DataType="text" Length="8" Name="MISTAT" OID="IT.MI.MISTAT" SASFieldName="MISTAT" def:CommentOID="COM.MI.MISTAT">
        <Description>
          <TranslatedText xml:lang="en">Completion Status</TranslatedText>
        </Description>
        <CodeListRef CodeListOID="CL.ND.7666"/>
        <def:Origin Type="Other"/>
      </ItemDef>
      <ItemDef DataType="text" Length="18" Name="MIREASND" OID="IT.MI.MIREASND" SASFieldName="MIREASND" def:CommentOID="COM.MI.MIREASND">
        <Description>
          <TranslatedText xml:lang="en">Reason Not Done</TranslatedText>
        </Description>
        <def:Origin Type="Other"/>
      </ItemDef>
      <ItemDef DataType="text" Length="30" Name="MISPEC" OID="IT.MI.MISPEC" SASFieldName="MISPEC" def:CommentOID="COM.MI.MISPEC">
        <Description>
          <TranslatedText xml:lang="en">Specimen Material Type</TranslatedText>
        </Description>
        <CodeListRef CodeListOID="CL.SPEC.7686"/>
        <def:Origin Type="Other"/>
      </ItemDef>
      <ItemDef DataType="text" Length="6" Name="MIANTREG" OID="IT.MI.MIANTREG" SASFieldName="MIANTREG" def:CommentOID="COM.MI.MIANTREG">
        <Description>
          <TranslatedText xml:lang="en">Anatomical Region of Specimen</TranslatedText>
        </Description>
        <def:Origin Type="Other"/>
      </ItemDef>
      <ItemDef DataType="text" Length="9" Name="MISPCCND" OID="IT.MI.MISPCCND" SASFieldName="MISPCCND" def:CommentOID="COM.MI.MISPCCND">
        <Description>
          <TranslatedText xml:lang="en">Specimen Condition</TranslatedText>
        </Description>
        <def:Origin Type="Other"/>
      </ItemDef>
      <ItemDef DataType="text" Length="1" Name="MISPCUFL" OID="IT.MI.MISPCUFL" SASFieldName="MISPCUFL" def:CommentOID="COM.MI.MISPCUFL">
        <Description>
          <TranslatedText xml:lang="en">Specimen Usability for the Test</TranslatedText>
        </Description>
        <CodeListRef CodeListOID="CL.NY.7665"/>
        <def:Origin Type="Other"/>
      </ItemDef>
      <ItemDef DataType="text" Length="5" Name="MILAT" OID="IT.MI.MILAT" SASFieldName="MILAT" def:CommentOID="COM.MI.MILAT">
        <Description>
          <TranslatedText xml:lang="en">Specimen Laterality within Subject</TranslatedText>
        </Description>
        <CodeListRef CodeListOID="CL.LAT.7658"/>
        <def:Origin Type="Other"/>
      </ItemDef>
      <ItemDef DataType="text" Length="7" Name="MIDIR" OID="IT.MI.MIDIR" SASFieldName="MIDIR" def:CommentOID="COM.MI.MIDIR">
        <Description>
          <TranslatedText xml:lang="en">Specimen Directionality within Subject</TranslatedText>
        </Description>
        <CodeListRef CodeListOID="CL.DIR.7647"/>
        <def:Origin Type="Other"/>
      </ItemDef>
      <ItemDef DataType="text" Length="8" Name="MISEV" OID="IT.MI.MISEV" SASFieldName="MISEV" def:CommentOID="COM.MI.MISEV">
        <Description>
          <TranslatedText xml:lang="en">Severity</TranslatedText>
        </Description>
        <CodeListRef CodeListOID="CL.SEV.7682"/>
        <def:Origin Type="Other"/>
      </ItemDef>
      <ItemDef DataType="text" Length="1" Name="MIDTHREL" OID="IT.MI.MIDTHREL" SASFieldName="MIDTHREL" def:CommentOID="COM.MI.MIDTHREL">
        <Description>
          <TranslatedText xml:lang="en">Relationship to Death</TranslatedText>
        </Description>
        <CodeListRef CodeListOID="CL.NY.7665"/>
        <def:Origin Type="Other"/>
      </ItemDef>
      <ItemDef DataType="integer" Length="8" Name="MIDY" OID="IT.MI.MIDY" SASFieldName="MIDY" def:CommentOID="COM.MI.MIDY">
        <Description>
          <TranslatedText xml:lang="en">Study Day of Specimen Collection</TranslatedText>
        </Description>
        <def:Origin Type="Derived"/>
      </ItemDef>
      <ItemDef DataType="text" Length="2" Name="DOMAIN" OID="IT.OM.DOMAIN" SASFieldName="DOMAIN" def:CommentOID="COM.OM.DOMAIN">
        <Description>
          <TranslatedText xml:lang="en">Domain Abbreviation</TranslatedText>
        </Description>
        <CodeListRef CodeListOID="CL.SDOMAIN.7648"/>
        <def:Origin Type="Other"/>
      </ItemDef>
      <ItemDef DataType="integer" Length="8" Name="OMSEQ" OID="IT.OM.OMSEQ" SASFieldName="OMSEQ" def:CommentOID="COM.OM.OMSEQ">
        <Description>
          <TranslatedText xml:lang="en">Sequence Number</TranslatedText>
        </Description>
        <def:Origin Type="Derived"/>
      </ItemDef>
      <ItemDef DataType="text" Length="6" Name="OMTESTCD" OID="IT.OM.OMTESTCD" SASFieldName="OMTESTCD" def:CommentOID="COM.OM.OMTESTCD">
        <Description>
          <TranslatedText xml:lang="en">Test Short Name</TranslatedText>
        </Description>
        <CodeListRef CodeListOID="CL.OMTESTCD.7667"/>
        <def:Origin Type="Other"/>
      </ItemDef>
      <ItemDef DataType="text" Length="6" Name="OMTEST" OID="IT.OM.OMTEST" SASFieldName="OMTEST" def:CommentOID="COM.OM.OMTEST">
        <Description>
          <TranslatedText xml:lang="en">Test Name</TranslatedText>
        </Description>
        <CodeListRef CodeListOID="CL.OMTEST.7667"/>
        <def:Origin Type="Other"/>
      </ItemDef>
      <ItemDef DataType="text" Length="14" Name="OMORRES" OID="IT.OM.OMORRES" SASFieldName="OMORRES" def:CommentOID="COM.OM.OMORRES">
        <Description>
          <TranslatedText xml:lang="en">Result or Findings as Collected</TranslatedText>
        </Description>
        <def:Origin Type="Collected"/>
      </ItemDef>
      <ItemDef DataType="text" Length="1" Name="OMORRESU" OID="IT.OM.OMORRESU" SASFieldName="OMORRESU" def:CommentOID="COM.OM.OMORRESU">
        <Description>
          <TranslatedText xml:lang="en">Unit of the Original Result</TranslatedText>
        </Description>
        <CodeListRef CodeListOID="CL.UNIT.7693"/>
        <def:Origin Type="Other"/>
      </ItemDef>
      <ItemDef DataType="text" Length="14" Name="OMSTRESC" OID="IT.OM.OMSTRESC" SASFieldName="OMSTRESC" def:CommentOID="COM.OM.OMSTRESC">
        <Description>
          <TranslatedText xml:lang="en">Standardized Result in Character Format</TranslatedText>
        </Description>
        <def:Origin Type="Other"/>
      </ItemDef>
      <ItemDef DataType="float" Length="8" Name="OMSTRESN" OID="IT.OM.OMSTRESN" SASFieldName="OMSTRESN" SignificantDigits="4" def:CommentOID="COM.OM.OMSTRESN">
        <Description>
          <TranslatedText xml:lang="en">Standardized Result in Numeric Format</TranslatedText>
        </Description>
        <def:Origin Type="Other"/>
      </ItemDef>
      <ItemDef DataType="text" Length="1" Name="OMSTRESU" OID="IT.OM.OMSTRESU" SASFieldName="OMSTRESU" def:CommentOID="COM.OM.OMSTRESU">
        <Description>
          <TranslatedText xml:lang="en">Unit of the Standardized Result</TranslatedText>
        </Description>
        <CodeListRef CodeListOID="CL.UNIT.7693"/>
        <def:Origin Type="Other"/>
      </ItemDef>
      <ItemDef DataType="text" Length="16" Name="OMSPEC" OID="IT.OM.OMSPEC" SASFieldName="OMSPEC" def:CommentOID="COM.OM.OMSPEC">
        <Description>
          <TranslatedText xml:lang="en">Specimen Material Type</TranslatedText>
        </Description>
        <CodeListRef CodeListOID="CL.SPEC.7686"/>
        <def:Origin Type="Other"/>
      </ItemDef>
      <ItemDef DataType="datetime" Name="OMDTC" OID="IT.OM.OMDTC" SASFieldName="OMDTC" def:CommentOID="COM.OM.OMDTC">
        <Description>
          <TranslatedText xml:lang="en">Date/Time Organ Weighed</TranslatedText>
        </Description>
        <def:Origin Type="Collected"/>
      </ItemDef>
      <ItemDef DataType="integer" Length="8" Name="OMDY" OID="IT.OM.OMDY" SASFieldName="OMDY" def:CommentOID="COM.OM.OMDY">
        <Description>
          <TranslatedText xml:lang="en">Study Day of Weighing</TranslatedText>
        </Description>
        <def:Origin Type="Derived"/>
      </ItemDef>
      <ItemDef DataType="text" Length="2" Name="DOMAIN" OID="IT.PC.DOMAIN" SASFieldName="DOMAIN" def:CommentOID="COM.PC.DOMAIN">
        <Description>
          <TranslatedText xml:lang="en">Domain Abbreviation</TranslatedText>
        </Description>
        <CodeListRef CodeListOID="CL.SDOMAIN.7648"/>
        <def:Origin Type="Other"/>
      </ItemDef>
      <ItemDef DataType="integer" Length="8" Name="PCSEQ" OID="IT.PC.PCSEQ" SASFieldName="PCSEQ" def:CommentOID="COM.PC.PCSEQ">
        <Description>
          <TranslatedText xml:lang="en">Sequence Number</TranslatedText>
        </Description>
        <def:Origin Type="Derived"/>
      </ItemDef>
      <ItemDef DataType="text" Length="7" Name="PCTESTCD" OID="IT.PC.PCTESTCD" SASFieldName="PCTESTCD" def:CommentOID="COM.PC.PCTESTCD">
        <Description>
          <TranslatedText xml:lang="en">Test Short Name</TranslatedText>
        </Description>
        <def:Origin Type="Other"/>
      </ItemDef>
      <ItemDef DataType="text" Length="20" Name="PCTEST" OID="IT.PC.PCTEST" SASFieldName="PCTEST" def:CommentOID="COM.PC.PCTEST">
        <Description>
          <TranslatedText xml:lang="en">Test Name</TranslatedText>
        </Description>
        <def:Origin Type="Other"/>
      </ItemDef>
      <ItemDef DataType="text" Length="5" Name="PCORRES" OID="IT.PC.PCORRES" SASFieldName="PCORRES" def:CommentOID="COM.PC.PCORRES">
        <Description>
          <TranslatedText xml:lang="en">Result or Findings as Collected</TranslatedText>
        </Description>
        <def:Origin Type="Collected"/>
      </ItemDef>
      <ItemDef DataType="text" Length="5" Name="PCORRESU" OID="IT.PC.PCORRESU" SASFieldName="PCORRESU" def:CommentOID="COM.PC.PCORRESU">
        <Description>
          <TranslatedText xml:lang="en">Unit of the Original Result</TranslatedText>
        </Description>
        <CodeListRef CodeListOID="CL.PKUNIT.7670"/>
        <def:Origin Type="Other"/>
      </ItemDef>
      <ItemDef DataType="text" Length="5" Name="PCSTRESC" OID="IT.PC.PCSTRESC" SASFieldName="PCSTRESC" def:CommentOID="COM.PC.PCSTRESC">
        <Description>
          <TranslatedText xml:lang="en">Standardized Result in Character Format</TranslatedText>
        </Description>
        <def:Origin Type="Other"/>
      </ItemDef>
      <ItemDef DataType="float" Length="8" Name="PCSTRESN" OID="IT.PC.PCSTRESN" SASFieldName="PCSTRESN" SignificantDigits="3" def:CommentOID="COM.PC.PCSTRESN">
        <Description>
          <TranslatedText xml:lang="en">Standardized Result in Numeric Format</TranslatedText>
        </Description>
        <def:Origin Type="Other"/>
      </ItemDef>
      <ItemDef DataType="text" Length="5" Name="PCSTRESU" OID="IT.PC.PCSTRESU" SASFieldName="PCSTRESU" def:CommentOID="COM.PC.PCSTRESU">
        <Description>
          <TranslatedText xml:lang="en">Unit of the Standardized Result</TranslatedText>
        </Description>
        <CodeListRef CodeListOID="CL.PKUNIT.7670"/>
        <def:Origin Type="Other"/>
      </ItemDef>
      <ItemDef DataType="text" Length="6" Name="PCSPEC" OID="IT.PC.PCSPEC" SASFieldName="PCSPEC" def:CommentOID="COM.PC.PCSPEC">
        <Description>
          <TranslatedText xml:lang="en">Specimen Material Type</TranslatedText>
        </Description>
        <CodeListRef CodeListOID="CL.SPEC.7686"/>
        <def:Origin Type="Other"/>
      </ItemDef>
      <ItemDef DataType="text" Length="4" Name="PCMETHOD" OID="IT.PC.PCMETHOD" SASFieldName="PCMETHOD" def:CommentOID="COM.PC.PCMETHOD">
        <Description>
          <TranslatedText xml:lang="en">Method of Test or Examination</TranslatedText>
        </Description>
        <def:Origin Type="Other"/>
      </ItemDef>
      <ItemDef DataType="text" Length="1" Name="PCBLFL" OID="IT.PC.PCBLFL" SASFieldName="PCBLFL" def:CommentOID="COM.PC.PCBLFL">
        <Description>
          <TranslatedText xml:lang="en">Baseline Flag</TranslatedText>
        </Description>
        <CodeListRef CodeListOID="CL.NY.7665"/>
        <def:Origin Type="Other"/>
      </ItemDef>
      <ItemDef DataType="float" Length="8" Name="PCLLOQ" OID="IT.PC.PCLLOQ" SASFieldName="PCLLOQ" SignificantDigits="2" def:CommentOID="COM.PC.PCLLOQ">
        <Description>
          <TranslatedText xml:lang="en">Lower Limit of Quantitation</TranslatedText>
        </Description>
        <def:Origin Type="Other"/>
      </ItemDef>
      <ItemDef DataType="integer" Length="8" Name="VISITDY" OID="IT.PC.VISITDY" SASFieldName="VISITDY" def:CommentOID="COM.PC.VISITDY">
        <Description>
          <TranslatedText xml:lang="en">Visit Day</TranslatedText>
        </Description>
        <def:Origin Type="Other"/>
      </ItemDef>
      <ItemDef DataType="datetime" Name="PCDTC" OID="IT.PC.PCDTC" SASFieldName="PCDTC" def:CommentOID="COM.PC.PCDTC">
        <Description>
          <TranslatedText xml:lang="en">Date/Time of Specimen Collection</TranslatedText>
        </Description>
        <def:Origin Type="Collected"/>
      </ItemDef>
      <ItemDef DataType="integer" Length="8" Name="PCDY" OID="IT.PC.PCDY" SASFieldName="PCDY" def:CommentOID="COM.PC.PCDY">
        <Description>
          <TranslatedText xml:lang="en">Study Day of Specimen Collection</TranslatedText>
        </Description>
        <def:Origin Type="Derived"/>
      </ItemDef>
      <ItemDef DataType="text" Length="7" Name="PCTPT" OID="IT.PC.PCTPT" SASFieldName="PCTPT" def:CommentOID="COM.PC.PCTPT">
        <Description>
          <TranslatedText xml:lang="en">Planned Time Point Name</TranslatedText>
        </Description>
        <def:Origin Type="Other"/>
      </ItemDef>
      <ItemDef DataType="integer" Length="8" Name="PCTPTNUM" OID="IT.PC.PCTPTNUM" SASFieldName="PCTPTNUM" def:CommentOID="COM.PC.PCTPTNUM">
        <Description>
          <TranslatedText xml:lang="en">Planned Time Point Number</TranslatedText>
        </Description>
        <def:Origin Type="Other"/>
      </ItemDef>
      <ItemDef DataType="text" Length="6" Name="PCELTM" OID="IT.PC.PCELTM" SASFieldName="PCELTM" def:CommentOID="COM.PC.PCELTM">
        <Description>
          <TranslatedText xml:lang="en">Planned Elapsed Time from Time Point Ref</TranslatedText>
        </Description>
        <def:Origin Type="Other"/>
      </ItemDef>
      <ItemDef DataType="text" Length="11" Name="PCTPTREF" OID="IT.PC.PCTPTREF" SASFieldName="PCTPTREF" def:CommentOID="COM.PC.PCTPTREF">
        <Description>
          <TranslatedText xml:lang="en">Time Point Reference</TranslatedText>
        </Description>
        <def:Origin Type="Other"/>
      </ItemDef>
      <ItemDef DataType="datetime" Name="PCRFTDTC" OID="IT.PC.PCRFTDTC" SASFieldName="PCRFTDTC" def:CommentOID="COM.PC.PCRFTDTC">
        <Description>
          <TranslatedText xml:lang="en">Date/Time of Reference Point</TranslatedText>
        </Description>
        <def:Origin Type="Collected"/>
      </ItemDef>
      <ItemDef DataType="text" Length="2" Name="DOMAIN" OID="IT.PM.DOMAIN" SASFieldName="DOMAIN" def:CommentOID="COM.PM.DOMAIN">
        <Description>
          <TranslatedText xml:lang="en">Domain Abbreviation</TranslatedText>
        </Description>
        <CodeListRef CodeListOID="CL.SDOMAIN.7648"/>
        <def:Origin Type="Other"/>
      </ItemDef>
      <ItemDef DataType="integer" Length="8" Name="PMSEQ" OID="IT.PM.PMSEQ" SASFieldName="PMSEQ" def:CommentOID="COM.PM.PMSEQ">
        <Description>
          <TranslatedText xml:lang="en">Sequence Number</TranslatedText>
        </Description>
        <def:Origin Type="Derived"/>
      </ItemDef>
      <ItemDef DataType="text" Length="1" Name="PMSPID" OID="IT.PM.PMSPID" SASFieldName="PMSPID" def:CommentOID="COM.PM.PMSPID">
        <Description>
          <TranslatedText xml:lang="en">Mass Identifier</TranslatedText>
        </Description>
        <def:Origin Type="Other"/>
      </ItemDef>
      <ItemDef DataType="text" Length="5" Name="PMTESTCD" OID="IT.PM.PMTESTCD" SASFieldName="PMTESTCD" def:CommentOID="COM.PM.PMTESTCD">
        <Description>
          <TranslatedText xml:lang="en">Test Short Name</TranslatedText>
        </Description>
        <CodeListRef CodeListOID="CL.PHSPRPCD.7669"/>
        <def:Origin Type="Other"/>
      </ItemDef>
      <ItemDef DataType="text" Length="11" Name="PMTEST" OID="IT.PM.PMTEST" SASFieldName="PMTEST" def:CommentOID="COM.PM.PMTEST">
        <Description>
          <TranslatedText xml:lang="en">Test Name</TranslatedText>
        </Description>
        <CodeListRef CodeListOID="CL.PHSPRP.7669"/>
        <def:Origin Type="Other"/>
      </ItemDef>
      <ItemDef DataType="text" Length="23" Name="PMORRES" OID="IT.PM.PMORRES" SASFieldName="PMORRES" def:CommentOID="COM.PM.PMORRES">
        <Description>
          <TranslatedText xml:lang="en">Result or Findings as Collected</TranslatedText>
        </Description>
        <def:Origin Type="Collected"/>
      </ItemDef>
      <ItemDef DataType="text" Length="1" Name="PMORRESU" OID="IT.PM.PMORRESU" SASFieldName="PMORRESU" def:CommentOID="COM.PM.PMORRESU">
        <Description>
          <TranslatedText xml:lang="en">Unit of the Original Result</TranslatedText>
        </Description>
        <CodeListRef CodeListOID="CL.UNIT.7693"/>
        <def:Origin Type="Other"/>
      </ItemDef>
      <ItemDef DataType="text" Length="10" Name="PMSTRESC" OID="IT.PM.PMSTRESC" SASFieldName="PMSTRESC" def:CommentOID="COM.PM.PMSTRESC">
        <Description>
          <TranslatedText xml:lang="en">Standardized Result in Character Format</TranslatedText>
        </Description>
        <def:Origin Type="Other"/>
      </ItemDef>
      <ItemDef DataType="float" Length="8" Name="PMSTRESN" OID="IT.PM.PMSTRESN" SASFieldName="PMSTRESN" SignificantDigits="2" def:CommentOID="COM.PM.PMSTRESN">
        <Description>
          <TranslatedText xml:lang="en">Standardized Result in Numeric Format</TranslatedText>
        </Description>
        <def:Origin Type="Other"/>
      </ItemDef>
      <ItemDef DataType="text" Length="1" Name="PMSTRESU" OID="IT.PM.PMSTRESU" SASFieldName="PMSTRESU" def:CommentOID="COM.PM.PMSTRESU">
        <Description>
          <TranslatedText xml:lang="en">Unit of the Standardized Result</TranslatedText>
        </Description>
        <CodeListRef CodeListOID="CL.UNIT.7693"/>
        <def:Origin Type="Other"/>
      </ItemDef>
      <ItemDef DataType="text" Length="13" Name="PMLOC" OID="IT.PM.PMLOC" SASFieldName="PMLOC" def:CommentOID="COM.PM.PMLOC">
        <Description>
          <TranslatedText xml:lang="en">Location of a Finding</TranslatedText>
        </Description>
        <def:Origin Type="Other"/>
      </ItemDef>
      <ItemDef DataType="integer" Length="8" Name="VISITDY" OID="IT.PM.VISITDY" SASFieldName="VISITDY" def:CommentOID="COM.PM.VISITDY">
        <Description>
          <TranslatedText xml:lang="en">Planned Study Day of Collection</TranslatedText>
        </Description>
        <def:Origin Type="Other"/>
      </ItemDef>
      <ItemDef DataType="datetime" Name="PMDTC" OID="IT.PM.PMDTC" SASFieldName="PMDTC" def:CommentOID="COM.PM.PMDTC">
        <Description>
          <TranslatedText xml:lang="en">Start Date/Time of Observation</TranslatedText>
        </Description>
        <def:Origin Type="Collected"/>
      </ItemDef>
      <ItemDef DataType="integer" Length="8" Name="PMDY" OID="IT.PM.PMDY" SASFieldName="PMDY" def:CommentOID="COM.PM.PMDY">
        <Description>
          <TranslatedText xml:lang="en">Study Day of Observation</TranslatedText>
        </Description>
        <def:Origin Type="Derived"/>
      </ItemDef>
      <ItemDef DataType="text" Length="2" Name="DOMAIN" OID="IT.PP.DOMAIN" SASFieldName="DOMAIN" def:CommentOID="COM.PP.DOMAIN">
        <Description>
          <TranslatedText xml:lang="en">Domain Abbreviation</TranslatedText>
        </Description>
        <CodeListRef CodeListOID="CL.SDOMAIN.7648"/>
        <def:Origin Type="Other"/>
      </ItemDef>
      <ItemDef DataType="integer" Length="8" Name="PPSEQ" OID="IT.PP.PPSEQ" SASFieldName="PPSEQ" def:CommentOID="COM.PP.PPSEQ">
        <Description>
          <TranslatedText xml:lang="en">Sequence Number</TranslatedText>
        </Description>
        <def:Origin Type="Derived"/>
      </ItemDef>
      <ItemDef DataType="text" Length="6" Name="PPTESTCD" OID="IT.PP.PPTESTCD" SASFieldName="PPTESTCD" def:CommentOID="COM.PP.PPTESTCD">
        <Description>
          <TranslatedText xml:lang="en">Parameter Short Name</TranslatedText>
        </Description>
        <CodeListRef CodeListOID="CL.PKPARMCD.7671"/>
        <def:Origin Type="Other"/>
      </ItemDef>
      <ItemDef DataType="text" Length="25" Name="PPTEST" OID="IT.PP.PPTEST" SASFieldName="PPTEST" def:CommentOID="COM.PP.PPTEST">
        <Description>
          <TranslatedText xml:lang="en">Parameter Name</TranslatedText>
        </Description>
        <CodeListRef CodeListOID="CL.PKPARM.7671"/>
        <def:Origin Type="Other"/>
      </ItemDef>
      <ItemDef DataType="text" Length="6" Name="PPCAT" OID="IT.PP.PPCAT" SASFieldName="PPCAT" def:CommentOID="COM.PP.PPCAT">
        <Description>
          <TranslatedText xml:lang="en">Parameter Category</TranslatedText>
        </Description>
        <def:Origin Type="Other"/>
      </ItemDef>
      <ItemDef DataType="text" Length="8" Name="PPORRES" OID="IT.PP.PPORRES" SASFieldName="PPORRES" def:CommentOID="COM.PP.PPORRES">
        <Description>
          <TranslatedText xml:lang="en">Result or Findings as Collected</TranslatedText>
        </Description>
        <def:Origin Type="Other"/>
      </ItemDef>
      <ItemDef DataType="text" Length="7" Name="PPORRESU" OID="IT.PP.PPORRESU" SASFieldName="PPORRESU" def:CommentOID="COM.PP.PPORRESU">
        <Description>
          <TranslatedText xml:lang="en">Unit of the Original Result</TranslatedText>
        </Description>
        <CodeListRef CodeListOID="CL.PKUNIT.7670"/>
        <def:Origin Type="Other"/>
      </ItemDef>
      <ItemDef DataType="text" Length="8" Name="PPSTRESC" OID="IT.PP.PPSTRESC" SASFieldName="PPSTRESC" def:CommentOID="COM.PP.PPSTRESC">
        <Description>
          <TranslatedText xml:lang="en">Standardized Result in Character Format</TranslatedText>
        </Description>
        <def:Origin Type="Other"/>
      </ItemDef>
      <ItemDef DataType="float" Length="8" Name="PPSTRESN" OID="IT.PP.PPSTRESN" SASFieldName="PPSTRESN" SignificantDigits="3" def:CommentOID="COM.PP.PPSTRESN">
        <Description>
          <TranslatedText xml:lang="en">Standardized Result in Numeric Format</TranslatedText>
        </Description>
        <def:Origin Type="Other"/>
      </ItemDef>
      <ItemDef DataType="text" Length="7" Name="PPSTRESU" OID="IT.PP.PPSTRESU" SASFieldName="PPSTRESU" def:CommentOID="COM.PP.PPSTRESU">
        <Description>
          <TranslatedText xml:lang="en">Unit of the Standardized Result</TranslatedText>
        </Description>
        <CodeListRef CodeListOID="CL.PKUNIT.7670"/>
        <def:Origin Type="Other"/>
      </ItemDef>
      <ItemDef DataType="text" Length="8" Name="PPSTAT" OID="IT.PP.PPSTAT" SASFieldName="PPSTAT" def:CommentOID="COM.PP.PPSTAT">
        <Description>
          <TranslatedText xml:lang="en">Completion Status</TranslatedText>
        </Description>
        <CodeListRef CodeListOID="CL.ND.7666"/>
        <def:Origin Type="Other"/>
      </ItemDef>
      <ItemDef DataType="text" Length="14" Name="PPREASND" OID="IT.PP.PPREASND" SASFieldName="PPREASND" def:CommentOID="COM.PP.PPREASND">
        <Description>
          <TranslatedText xml:lang="en">Reason Not Done</TranslatedText>
        </Description>
        <def:Origin Type="Other"/>
      </ItemDef>
      <ItemDef DataType="text" Length="6" Name="PPSPEC" OID="IT.PP.PPSPEC" SASFieldName="PPSPEC" def:CommentOID="COM.PP.PPSPEC">
        <Description>
          <TranslatedText xml:lang="en">Specimen Material Type</TranslatedText>
        </Description>
        <CodeListRef CodeListOID="CL.SPEC.7686"/>
        <def:Origin Type="Other"/>
      </ItemDef>
      <ItemDef DataType="integer" Length="8" Name="VISITDY" OID="IT.PP.VISITDY" SASFieldName="VISITDY" def:CommentOID="COM.PP.VISITDY">
        <Description>
          <TranslatedText xml:lang="en">Planned Study Day of Collection</TranslatedText>
        </Description>
        <def:Origin Type="Other"/>
      </ItemDef>
      <ItemDef DataType="datetime" Name="PPRFTDTC" OID="IT.PP.PPRFTDTC" SASFieldName="PPRFTDTC" def:CommentOID="COM.PP.PPRFTDTC">
        <Description>
          <TranslatedText xml:lang="en">Date/Time of Reference Point</TranslatedText>
        </Description>
        <def:Origin Type="Collected"/>
      </ItemDef>
      <ItemDef DataType="text" Length="2" Name="DOMAIN" OID="IT.SC.DOMAIN" SASFieldName="DOMAIN" def:CommentOID="COM.SC.DOMAIN">
        <Description>
          <TranslatedText xml:lang="en">Domain Abbreviation</TranslatedText>
        </Description>
        <CodeListRef CodeListOID="CL.SDOMAIN.7648"/>
        <def:Origin Type="Other"/>
      </ItemDef>
      <ItemDef DataType="integer" Length="8" Name="SCSEQ" OID="IT.SC.SCSEQ" SASFieldName="SCSEQ" def:CommentOID="COM.SC.SCSEQ">
        <Description>
          <TranslatedText xml:lang="en">Sequence Number</TranslatedText>
        </Description>
        <def:Origin Type="Derived"/>
      </ItemDef>
      <ItemDef DataType="text" Length="5" Name="SCTESTCD" OID="IT.SC.SCTESTCD" SASFieldName="SCTESTCD" def:CommentOID="COM.SC.SCTESTCD">
        <Description>
          <TranslatedText xml:lang="en">Subject Characteristic Short Name</TranslatedText>
        </Description>
        <def:Origin Type="Other"/>
      </ItemDef>
      <ItemDef DataType="text" Length="20" Name="SCTEST" OID="IT.SC.SCTEST" SASFieldName="SCTEST" def:CommentOID="COM.SC.SCTEST">
        <Description>
          <TranslatedText xml:lang="en">Subject Characteristic</TranslatedText>
        </Description>
        <CodeListRef CodeListOID="CL.SBCSND.7679"/>
        <def:Origin Type="Other"/>
      </ItemDef>
      <ItemDef DataType="text" Length="6" Name="SCORRES" OID="IT.SC.SCORRES" SASFieldName="SCORRES" def:CommentOID="COM.SC.SCORRES">
        <Description>
          <TranslatedText xml:lang="en">Result or Findings as Collected</TranslatedText>
        </Description>
        <def:Origin Type="Collected"/>
      </ItemDef>
      <ItemDef DataType="text" Length="6" Name="SCSTRESC" OID="IT.SC.SCSTRESC" SASFieldName="SCSTRESC" def:CommentOID="COM.SC.SCSTRESC">
        <Description>
          <TranslatedText xml:lang="en">Standardized Result in Character Format</TranslatedText>
        </Description>
        <def:Origin Type="Other"/>
      </ItemDef>
      <ItemDef DataType="integer" Length="8" Name="SCDY" OID="IT.SC.SCDY" SASFieldName="SCDY" def:CommentOID="COM.SC.SCDY">
        <Description>
          <TranslatedText xml:lang="en">Study Day of Collection</TranslatedText>
        </Description>
        <def:Origin Type="Derived"/>
      </ItemDef>
      <ItemDef DataType="text" Length="2" Name="DOMAIN" OID="IT.TF.DOMAIN" SASFieldName="DOMAIN" def:CommentOID="COM.TF.DOMAIN">
        <Description>
          <TranslatedText xml:lang="en">Domain Abbreviation</TranslatedText>
        </Description>
        <CodeListRef CodeListOID="CL.SDOMAIN.7648"/>
        <def:Origin Type="Other"/>
      </ItemDef>
      <ItemDef DataType="integer" Length="8" Name="TFSEQ" OID="IT.TF.TFSEQ" SASFieldName="TFSEQ" def:CommentOID="COM.TF.TFSEQ">
        <Description>
          <TranslatedText xml:lang="en">Sequence Number</TranslatedText>
        </Description>
        <def:Origin Type="Derived"/>
      </ItemDef>
      <ItemDef DataType="text" Length="1" Name="TFSPID" OID="IT.TF.TFSPID" SASFieldName="TFSPID" def:CommentOID="COM.TF.TFSPID">
        <Description>
          <TranslatedText xml:lang="en">Mass Number</TranslatedText>
        </Description>
        <def:Origin Type="Other"/>
      </ItemDef>
      <ItemDef DataType="text" Length="5" Name="TFTESTCD" OID="IT.TF.TFTESTCD" SASFieldName="TFTESTCD" def:CommentOID="COM.TF.TFTESTCD">
        <Description>
          <TranslatedText xml:lang="en">Tumor Examination Short Name</TranslatedText>
        </Description>
        <CodeListRef CodeListOID="CL.TFTESTCD.7692"/>
        <def:Origin Type="Other"/>
      </ItemDef>
      <ItemDef DataType="text" Length="17" Name="TFTEST" OID="IT.TF.TFTEST" SASFieldName="TFTEST" def:CommentOID="COM.TF.TFTEST">
        <Description>
          <TranslatedText xml:lang="en">Tumor Examination</TranslatedText>
        </Description>
        <CodeListRef CodeListOID="CL.TFTEST.7692"/>
        <def:Origin Type="Other"/>
      </ItemDef>
      <ItemDef DataType="text" Length="31" Name="TFORRES" OID="IT.TF.TFORRES" SASFieldName="TFORRES" def:CommentOID="COM.TF.TFORRES">
        <Description>
          <TranslatedText xml:lang="en">Result or Findings as Collected</TranslatedText>
        </Description>
        <def:Origin Type="Collected"/>
      </ItemDef>
      <ItemDef DataType="text" Length="36" Name="TFSTRESC" OID="IT.TF.TFSTRESC" SASFieldName="TFSTRESC" def:CommentOID="COM.TF.TFSTRESC">
        <Description>
          <TranslatedText xml:lang="en">Standardized Result in Character Format</TranslatedText>
        </Description>
        <CodeListRef CodeListOID="CL.NEOPLASM.7663"/>
        <def:Origin Type="Other"/>
      </ItemDef>
      <ItemDef DataType="text" Length="9" Name="TFRESCAT" OID="IT.TF.TFRESCAT" SASFieldName="TFRESCAT" def:CommentOID="COM.TF.TFRESCAT">
        <Description>
          <TranslatedText xml:lang="en">Tumor Malignancy Status</TranslatedText>
        </Description>
        <CodeListRef CodeListOID="CL.NEOSTAT.7664"/>
        <def:Origin Type="Other"/>
      </ItemDef>
      <ItemDef DataType="text" Length="6" Name="TFSPEC" OID="IT.TF.TFSPEC" SASFieldName="TFSPEC" def:CommentOID="COM.TF.TFSPEC">
        <Description>
          <TranslatedText xml:lang="en">Specimen Material Type</TranslatedText>
        </Description>
        <CodeListRef CodeListOID="CL.SPEC.7686"/>
        <def:Origin Type="Other"/>
      </ItemDef>
      <ItemDef DataType="text" Length="1" Name="TFDTHREL" OID="IT.TF.TFDTHREL" SASFieldName="TFDTHREL" def:CommentOID="COM.TF.TFDTHREL">
        <Description>
          <TranslatedText xml:lang="en">Relationship to Death</TranslatedText>
        </Description>
        <CodeListRef CodeListOID="CL.NY.7665"/>
        <def:Origin Type="Other"/>
      </ItemDef>
      <ItemDef DataType="integer" Length="8" Name="TFDY" OID="IT.TF.TFDY" SASFieldName="TFDY" def:CommentOID="COM.TF.TFDY">
        <Description>
          <TranslatedText xml:lang="en">Study Day of Collection</TranslatedText>
        </Description>
        <def:Origin Type="Derived"/>
      </ItemDef>
      <ItemDef DataType="integer" Length="8" Name="TFDETECT" OID="IT.TF.TFDETECT" SASFieldName="TFDETECT" def:CommentOID="COM.TF.TFDETECT">
        <Description>
          <TranslatedText xml:lang="en">Time in Days to Detection of Tumor</TranslatedText>
        </Description>
        <def:Origin Type="Other"/>
      </ItemDef>
      <ItemDef DataType="text" Length="2" Name="DOMAIN" OID="IT.VS.DOMAIN" SASFieldName="DOMAIN" def:CommentOID="COM.VS.DOMAIN">
        <Description>
          <TranslatedText xml:lang="en">Domain Abbreviation</TranslatedText>
        </Description>
        <CodeListRef CodeListOID="CL.SDOMAIN.7648"/>
        <def:Origin Type="Other"/>
      </ItemDef>
      <ItemDef DataType="integer" Length="8" Name="VSSEQ" OID="IT.VS.VSSEQ" SASFieldName="VSSEQ" def:CommentOID="COM.VS.VSSEQ">
        <Description>
          <TranslatedText xml:lang="en">Sequence Number</TranslatedText>
        </Description>
        <def:Origin Type="Derived"/>
      </ItemDef>
      <ItemDef DataType="text" Length="2" Name="VSTESTCD" OID="IT.VS.VSTESTCD" SASFieldName="VSTESTCD" def:CommentOID="COM.VS.VSTESTCD">
        <Description>
          <TranslatedText xml:lang="en">Vital Signs Test Short Name</TranslatedText>
        </Description>
        <def:Origin Type="Other"/>
      </ItemDef>
      <ItemDef DataType="text" Length="10" Name="VSTEST" OID="IT.VS.VSTEST" SASFieldName="VSTEST" def:CommentOID="COM.VS.VSTEST">
        <Description>
          <TranslatedText xml:lang="en">Vital Signs Test Name</TranslatedText>
        </Description>
        <CodeListRef CodeListOID="CL.VSTEST.7696"/>
        <def:Origin Type="Other"/>
      </ItemDef>
      <ItemDef DataType="text" Length="3" Name="VSORRES" OID="IT.VS.VSORRES" SASFieldName="VSORRES" def:CommentOID="COM.VS.VSORRES">
        <Description>
          <TranslatedText xml:lang="en">Result or Findings as Collected</TranslatedText>
        </Description>
        <def:Origin Type="Collected"/>
      </ItemDef>
      <ItemDef DataType="text" Length="9" Name="VSORRESU" OID="IT.VS.VSORRESU" SASFieldName="VSORRESU" def:CommentOID="COM.VS.VSORRESU">
        <Description>
          <TranslatedText xml:lang="en">Unit of the Original Result</TranslatedText>
        </Description>
        <CodeListRef CodeListOID="CL.VSRESU.7694"/>
        <def:Origin Type="Other"/>
      </ItemDef>
      <ItemDef DataType="text" Length="3" Name="VSSTRESC" OID="IT.VS.VSSTRESC" SASFieldName="VSSTRESC" def:CommentOID="COM.VS.VSSTRESC">
        <Description>
          <TranslatedText xml:lang="en">Standardized Result in Character Format</TranslatedText>
        </Description>
        <def:Origin Type="Other"/>
      </ItemDef>
      <ItemDef DataType="float" Length="8" Name="VSSTRESN" OID="IT.VS.VSSTRESN" SASFieldName="VSSTRESN" SignificantDigits="2" def:CommentOID="COM.VS.VSSTRESN">
        <Description>
          <TranslatedText xml:lang="en">Standardized Result in Numeric Format</TranslatedText>
        </Description>
        <def:Origin Type="Other"/>
      </ItemDef>
      <ItemDef DataType="text" Length="9" Name="VSSTRESU" OID="IT.VS.VSSTRESU" SASFieldName="VSSTRESU" def:CommentOID="COM.VS.VSSTRESU">
        <Description>
          <TranslatedText xml:lang="en">Unit of the Standardized Result</TranslatedText>
        </Description>
        <CodeListRef CodeListOID="CL.VSRESU.7694"/>
        <def:Origin Type="Other"/>
      </ItemDef>
      <ItemDef DataType="text" Length="1" Name="VSBLFL" OID="IT.VS.VSBLFL" SASFieldName="VSBLFL" def:CommentOID="COM.VS.VSBLFL">
        <Description>
          <TranslatedText xml:lang="en">Baseline Flag</TranslatedText>
        </Description>
        <CodeListRef CodeListOID="CL.NY.7665"/>
        <def:Origin Type="Other"/>
      </ItemDef>
      <ItemDef DataType="integer" Length="8" Name="VISITDY" OID="IT.VS.VISITDY" SASFieldName="VISITDY" def:CommentOID="COM.VS.VISITDY">
        <Description>
          <TranslatedText xml:lang="en">Planned Study Day of Collection</TranslatedText>
        </Description>
        <def:Origin Type="Other"/>
      </ItemDef>
      <ItemDef DataType="datetime" Name="VSDTC" OID="IT.VS.VSDTC" SASFieldName="VSDTC" def:CommentOID="COM.VS.VSDTC">
        <Description>
          <TranslatedText xml:lang="en">Date/Time of Measurement</TranslatedText>
        </Description>
        <def:Origin Type="Collected"/>
      </ItemDef>
      <ItemDef DataType="integer" Length="8" Name="VSDY" OID="IT.VS.VSDY" SASFieldName="VSDY" def:CommentOID="COM.VS.VSDY">
        <Description>
          <TranslatedText xml:lang="en">Study Day of Vital Signs Measurement</TranslatedText>
        </Description>
        <def:Origin Type="Derived"/>
      </ItemDef>
      <ItemDef DataType="text" Length="2" Name="RDOMAIN" OID="IT.RELREC.RDOMAIN" SASFieldName="RDOMAIN" def:CommentOID="COM.RELREC.RDOMAIN">
        <Description>
          <TranslatedText xml:lang="en">Related Domain Abbreviation</TranslatedText>
        </Description>
        <def:Origin Type="Other"/>
      </ItemDef>
      <ItemDef DataType="text" Length="5" Name="IDVAR" OID="IT.RELREC.IDVAR" SASFieldName="IDVAR" def:CommentOID="COM.RELREC.IDVAR">
        <Description>
          <TranslatedText xml:lang="en">Identifying Variable</TranslatedText>
        </Description>
        <def:Origin Type="Other"/>
      </ItemDef>
      <ItemDef DataType="text" Length="2" Name="IDVARVAL" OID="IT.RELREC.IDVARVAL" SASFieldName="IDVARVAL" def:CommentOID="COM.RELREC.IDVARVAL">
        <Description>
          <TranslatedText xml:lang="en">Identifying Variable Value</TranslatedText>
        </Description>
        <def:Origin Type="Other"/>
      </ItemDef>
      <ItemDef DataType="text" Length="1" Name="RELTYPE" OID="IT.RELREC.RELTYPE" SASFieldName="RELTYPE" def:CommentOID="COM.RELREC.RELTYPE">
        <Description>
          <TranslatedText xml:lang="en">Relationship Type</TranslatedText>
        </Description>
        <def:Origin Type="Other"/>
      </ItemDef>
      <ItemDef DataType="text" Length="2" Name="RELID" OID="IT.RELREC.RELID" SASFieldName="RELID" def:CommentOID="COM.RELREC.RELID">
        <Description>
          <TranslatedText xml:lang="en">Relationship Identifier</TranslatedText>
        </Description>
        <def:Origin Type="Other"/>
      </ItemDef>
      <ItemDef DataType="text" Length="2" Name="RDOMAIN" OID="IT.SUPPMA.RDOMAIN" SASFieldName="RDOMAIN">
        <Description>
          <TranslatedText xml:lang="en">Related Domain Abbreviation</TranslatedText>
        </Description>
        <def:Origin Type="Other"/>
      </ItemDef>
      <ItemDef DataType="text" Length="5" Name="IDVAR" OID="IT.SUPPMA.IDVAR" SASFieldName="IDVAR">
        <Description>
          <TranslatedText xml:lang="en">Identifying Variable</TranslatedText>
        </Description>
        <def:Origin Type="Other"/>
      </ItemDef>
      <ItemDef DataType="text" Length="1" Name="IDVARVAL" OID="IT.SUPPMA.IDVARVAL" SASFieldName="IDVARVAL">
        <Description>
          <TranslatedText xml:lang="en">Identifying Variable Value</TranslatedText>
        </Description>
        <def:Origin Type="Other"/>
      </ItemDef>
      <ItemDef DataType="text" Length="8" Name="QNAM" OID="IT.SUPPMA.QNAM" SASFieldName="QNAM">
        <Description>
          <TranslatedText xml:lang="en">Qualifier Variable Name</TranslatedText>
        </Description>
        <def:Origin Type="Other"/>
      </ItemDef>
      <ItemDef DataType="text" Length="16" Name="QLABEL" OID="IT.SUPPMA.QLABEL" SASFieldName="QLABEL">
        <Description>
          <TranslatedText xml:lang="en">Qualifier Variable Label</TranslatedText>
        </Description>
        <def:Origin Type="Other"/>
      </ItemDef>
      <ItemDef DataType="text" Length="57" Name="QVAL" OID="IT.SUPPMA.QVAL" SASFieldName="QVAL">
        <Description>
          <TranslatedText xml:lang="en">Data Value</TranslatedText>
        </Description>
        <def:Origin Type="Other"/>
      </ItemDef>
      <ItemDef DataType="text" Length="9" Name="QORIG" OID="IT.SUPPMA.QORIG" SASFieldName="QORIG">
        <Description>
          <TranslatedText xml:lang="en">Origin</TranslatedText>
        </Description>
        <def:Origin Type="Other"/>
      </ItemDef>
      <ItemDef DataType="text" Length="1" Name="QEVAL" OID="IT.SUPPMA.QEVAL" SASFieldName="QEVAL">
        <Description>
          <TranslatedText xml:lang="en">Evaluator</TranslatedText>
        </Description>
        <def:Origin Type="Other"/>
      </ItemDef>
      <ItemDef DataType="text" Length="2" Name="RDOMAIN" OID="IT.SUPPMI.RDOMAIN" SASFieldName="RDOMAIN">
        <Description>
          <TranslatedText xml:lang="en">Related Domain Abbreviation</TranslatedText>
        </Description>
        <def:Origin Type="Other"/>
      </ItemDef>
      <ItemDef DataType="text" Length="5" Name="IDVAR" OID="IT.SUPPMI.IDVAR" SASFieldName="IDVAR">
        <Description>
          <TranslatedText xml:lang="en">Identifying Variable</TranslatedText>
        </Description>
        <def:Origin Type="Other"/>
      </ItemDef>
      <ItemDef DataType="text" Length="2" Name="IDVARVAL" OID="IT.SUPPMI.IDVARVAL" SASFieldName="IDVARVAL">
        <Description>
          <TranslatedText xml:lang="en">Identifying Variable Value</TranslatedText>
        </Description>
        <def:Origin Type="Other"/>
      </ItemDef>
      <ItemDef DataType="text" Length="8" Name="QNAM" OID="IT.SUPPMI.QNAM" SASFieldName="QNAM">
        <Description>
          <TranslatedText xml:lang="en">Qualifier Variable Name</TranslatedText>
        </Description>
        <def:Origin Type="Other"/>
      </ItemDef>
      <ItemDef DataType="text" Length="16" Name="QLABEL" OID="IT.SUPPMI.QLABEL" SASFieldName="QLABEL">
        <Description>
          <TranslatedText xml:lang="en">Qualifier Variable Label</TranslatedText>
        </Description>
        <def:Origin Type="Other"/>
      </ItemDef>
      <ItemDef DataType="text" Length="43" Name="QVAL" OID="IT.SUPPMI.QVAL" SASFieldName="QVAL">
        <Description>
          <TranslatedText xml:lang="en">Data Value</TranslatedText>
        </Description>
        <def:Origin Type="Other"/>
      </ItemDef>
      <ItemDef DataType="text" Length="9" Name="QORIG" OID="IT.SUPPMI.QORIG" SASFieldName="QORIG">
        <Description>
          <TranslatedText xml:lang="en">Origin</TranslatedText>
        </Description>
        <def:Origin Type="Other"/>
      </ItemDef>
      <ItemDef DataType="text" Length="1" Name="QEVAL" OID="IT.SUPPMI.QEVAL" SASFieldName="QEVAL">
        <Description>
          <TranslatedText xml:lang="en">Evaluator</TranslatedText>
        </Description>
        <def:Origin Type="Other"/>
      </ItemDef>
      <CodeList DataType="text" Name="Age Unit" OID="CL.AGEU.7639">
        <EnumeratedItem CodedValue="WEEKS">
          <Alias Context="" Name="C29844"/>
        </EnumeratedItem>
        <Alias Context="" Name="C66781"/>
      </CodeList>
      <CodeList DataType="text" Name="Body Weight Gain Test Code" OID="CL.BGTESTCD.7641">
        <EnumeratedItem CodedValue="BWGAIN">
          <Alias Context="" Name="C62754"/>
        </EnumeratedItem>
        <Alias Context="" Name="C89960"/>
      </CodeList>
      <CodeList DataType="text" Name="Body Weight Gain Test Name" OID="CL.BGTEST.7641">
        <EnumeratedItem CodedValue="Body Weight Gain">
          <Alias Context="" Name="C62754"/>
        </EnumeratedItem>
        <Alias Context="" Name="C89959"/>
      </CodeList>
      <CodeList DataType="text" Name="Body Weight Test Code" OID="CL.BWTESTCD.7642">
        <EnumeratedItem CodedValue="BW">
          <Alias Context="" Name="C81328"/>
        </EnumeratedItem>
        <EnumeratedItem CodedValue="TERMBW">
          <Alias Context="" Name="C90464"/>
        </EnumeratedItem>
        <Alias Context="" Name="C89962"/>
      </CodeList>
      <CodeList DataType="text" Name="Body Weight Test Name" OID="CL.BWTEST.7642">
        <EnumeratedItem CodedValue="Body Weight">
          <Alias Context="" Name="C81328"/>
        </EnumeratedItem>
        <EnumeratedItem CodedValue="Terminal Body Weight">
          <Alias Context="" Name="C90464"/>
        </EnumeratedItem>
        <Alias Context="" Name="C89961"/>
      </CodeList>
      <CodeList DataType="text" Name="Category for Clinical Observation" OID="CL.CLCAT.7643">
        <EnumeratedItem CodedValue="CLINICAL SIGNS">
          <Alias Context="" Name="C100104"/>
        </EnumeratedItem>
        <EnumeratedItem CodedValue="OPHTHALMOLOGY">
          <Alias Context="" Name="C16939"/>
        </EnumeratedItem>
        <Alias Context="" Name="C89963"/>
      </CodeList>
      <CodeList DataType="text" Name="Consciousness State" OID="CL.CSTATE.7644">
        <EnumeratedItem CodedValue="CONSCIOUS">
          <Alias Context="" Name="C88434"/>
        </EnumeratedItem>
        <Alias Context="" Name="C90018"/>
      </CodeList>
      <CodeList DataType="text" Name="Death Diagnosis Test Code" OID="CL.DDTESTCD.7646">
        <EnumeratedItem CodedValue="DEATHD">
          <Alias Context="" Name="C81239"/>
        </EnumeratedItem>
        <Alias Context="" Name="C89966"/>
      </CodeList>
      <CodeList DataType="text" Name="Death Diagnosis Test Name" OID="CL.DDTEST.7646">
        <EnumeratedItem CodedValue="Death Diagnosis">
          <Alias Context="" Name="C81239"/>
        </EnumeratedItem>
        <Alias Context="" Name="C89965"/>
      </CodeList>
      <CodeList DataType="text" Name="Directionality" OID="CL.DIR.7647">
        <EnumeratedItem CodedValue="CRANIAL">
          <Alias Context="" Name="C37936"/>
        </EnumeratedItem>
        <EnumeratedItem CodedValue="CAUDAL">
          <Alias Context="" Name="C73851"/>
        </EnumeratedItem>
        <Alias Context="" Name="C99074"/>
      </CodeList>
      <CodeList DataType="text" Name="ECG Lead" OID="CL.EGLEAD.7649">
        <EnumeratedItem CodedValue="LEAD II">
          <Alias Context="" Name="C90409"/>
        </EnumeratedItem>
        <Alias Context="" Name="C90013"/>
      </CodeList>
      <CodeList DataType="text" Name="ECG Result" OID="CL.EGSTRESC.7650">
        <EnumeratedItem CodedValue="68" def:ExtendedValue="Yes"/>
        <EnumeratedItem CodedValue="157" def:ExtendedValue="Yes"/>
        <EnumeratedItem CodedValue="243" def:ExtendedValue="Yes"/>
        <EnumeratedItem CodedValue="69" def:ExtendedValue="Yes"/>
        <EnumeratedItem CodedValue="158" def:ExtendedValue="Yes"/>
        <EnumeratedItem CodedValue="167" def:ExtendedValue="Yes"/>
        <EnumeratedItem CodedValue="55" def:ExtendedValue="Yes"/>
        <EnumeratedItem CodedValue="145" def:ExtendedValue="Yes"/>
        <EnumeratedItem CodedValue="201" def:ExtendedValue="Yes"/>
        <EnumeratedItem CodedValue="44" def:ExtendedValue="Yes"/>
        <EnumeratedItem CodedValue="164" def:ExtendedValue="Yes"/>
        <EnumeratedItem CodedValue="217" def:ExtendedValue="Yes"/>
        <EnumeratedItem CodedValue="48" def:ExtendedValue="Yes"/>
        <EnumeratedItem CodedValue="166" def:ExtendedValue="Yes"/>
        <EnumeratedItem CodedValue="238" def:ExtendedValue="Yes"/>
        <EnumeratedItem CodedValue="59" def:ExtendedValue="Yes"/>
        <EnumeratedItem CodedValue="165" def:ExtendedValue="Yes"/>
        <EnumeratedItem CodedValue="141" def:ExtendedValue="Yes"/>
        <EnumeratedItem CodedValue="45" def:ExtendedValue="Yes"/>
        <EnumeratedItem CodedValue="153" def:ExtendedValue="Yes"/>
        <EnumeratedItem CodedValue="228" def:ExtendedValue="Yes"/>
        <EnumeratedItem CodedValue="58" def:ExtendedValue="Yes"/>
        <EnumeratedItem CodedValue="156" def:ExtendedValue="Yes"/>
        <EnumeratedItem CodedValue="246" def:ExtendedValue="Yes"/>
        <EnumeratedItem CodedValue="61" def:ExtendedValue="Yes"/>
        <EnumeratedItem CodedValue="139" def:ExtendedValue="Yes"/>
        <EnumeratedItem CodedValue="221" def:ExtendedValue="Yes"/>
        <EnumeratedItem CodedValue="40" def:ExtendedValue="Yes"/>
        <EnumeratedItem CodedValue="149" def:ExtendedValue="Yes"/>
        <EnumeratedItem CodedValue="227" def:ExtendedValue="Yes"/>
        <EnumeratedItem CodedValue="51" def:ExtendedValue="Yes"/>
        <EnumeratedItem CodedValue="236" def:ExtendedValue="Yes"/>
        <EnumeratedItem CodedValue="49" def:ExtendedValue="Yes"/>
        <EnumeratedItem CodedValue="161" def:ExtendedValue="Yes"/>
        <EnumeratedItem CodedValue="140" def:ExtendedValue="Yes"/>
        <EnumeratedItem CodedValue="66" def:ExtendedValue="Yes"/>
        <EnumeratedItem CodedValue="134" def:ExtendedValue="Yes"/>
        <EnumeratedItem CodedValue="237" def:ExtendedValue="Yes"/>
        <EnumeratedItem CodedValue="146" def:ExtendedValue="Yes"/>
        <EnumeratedItem CodedValue="171" def:ExtendedValue="Yes"/>
        <EnumeratedItem CodedValue="159" def:ExtendedValue="Yes"/>
        <EnumeratedItem CodedValue="193" def:ExtendedValue="Yes"/>
        <EnumeratedItem CodedValue="41" def:ExtendedValue="Yes"/>
        <EnumeratedItem CodedValue="203" def:ExtendedValue="Yes"/>
        <EnumeratedItem CodedValue="65" def:ExtendedValue="Yes"/>
        <EnumeratedItem CodedValue="137" def:ExtendedValue="Yes"/>
        <EnumeratedItem CodedValue="224" def:ExtendedValue="Yes"/>
        <EnumeratedItem CodedValue="135" def:ExtendedValue="Yes"/>
        <EnumeratedItem CodedValue="220" def:ExtendedValue="Yes"/>
        <EnumeratedItem CodedValue="176" def:ExtendedValue="Yes"/>
        <EnumeratedItem CodedValue="43" def:ExtendedValue="Yes"/>
        <EnumeratedItem CodedValue="175" def:ExtendedValue="Yes"/>
        <EnumeratedItem CodedValue="67" def:ExtendedValue="Yes"/>
        <EnumeratedItem CodedValue="218" def:ExtendedValue="Yes"/>
        <EnumeratedItem CodedValue="138" def:ExtendedValue="Yes"/>
        <EnumeratedItem CodedValue="245" def:ExtendedValue="Yes"/>
        <EnumeratedItem CodedValue="177" def:ExtendedValue="Yes"/>
        <EnumeratedItem CodedValue="160" def:ExtendedValue="Yes"/>
        <EnumeratedItem CodedValue="163" def:ExtendedValue="Yes"/>
        <EnumeratedItem CodedValue="231" def:ExtendedValue="Yes"/>
        <EnumeratedItem CodedValue="154" def:ExtendedValue="Yes"/>
        <EnumeratedItem CodedValue="50" def:ExtendedValue="Yes"/>
        <EnumeratedItem CodedValue="240" def:ExtendedValue="Yes"/>
        <EnumeratedItem CodedValue="39" def:ExtendedValue="Yes"/>
        <EnumeratedItem CodedValue="147" def:ExtendedValue="Yes"/>
        <EnumeratedItem CodedValue="38" def:ExtendedValue="Yes"/>
        <EnumeratedItem CodedValue="168" def:ExtendedValue="Yes"/>
        <EnumeratedItem CodedValue="52" def:ExtendedValue="Yes"/>
        <EnumeratedItem CodedValue="173" def:ExtendedValue="Yes"/>
        <EnumeratedItem CodedValue="151" def:ExtendedValue="Yes"/>
        <EnumeratedItem CodedValue="219" def:ExtendedValue="Yes"/>
        <EnumeratedItem CodedValue="42" def:ExtendedValue="Yes"/>
        <EnumeratedItem CodedValue="56" def:ExtendedValue="Yes"/>
        <EnumeratedItem CodedValue="208" def:ExtendedValue="Yes"/>
        <EnumeratedItem CodedValue="64" def:ExtendedValue="Yes"/>
        <EnumeratedItem CodedValue="249" def:ExtendedValue="Yes"/>
        <EnumeratedItem CodedValue="143" def:ExtendedValue="Yes"/>
        <EnumeratedItem CodedValue="53" def:ExtendedValue="Yes"/>
        <EnumeratedItem CodedValue="179" def:ExtendedValue="Yes"/>
        <EnumeratedItem CodedValue="57" def:ExtendedValue="Yes"/>
        <EnumeratedItem CodedValue="142" def:ExtendedValue="Yes"/>
        <EnumeratedItem CodedValue="119" def:ExtendedValue="Yes"/>
        <EnumeratedItem CodedValue="46" def:ExtendedValue="Yes"/>
        <EnumeratedItem CodedValue="62" def:ExtendedValue="Yes"/>
        <EnumeratedItem CodedValue="215" def:ExtendedValue="Yes"/>
        <EnumeratedItem CodedValue="152" def:ExtendedValue="Yes"/>
        <EnumeratedItem CodedValue="247" def:ExtendedValue="Yes"/>
        <EnumeratedItem CodedValue="172" def:ExtendedValue="Yes"/>
        <EnumeratedItem CodedValue="174" def:ExtendedValue="Yes"/>
        <EnumeratedItem CodedValue="47" def:ExtendedValue="Yes"/>
        <EnumeratedItem CodedValue="239" def:ExtendedValue="Yes"/>
        <EnumeratedItem CodedValue="211" def:ExtendedValue="Yes"/>
        <EnumeratedItem CodedValue="124" def:ExtendedValue="Yes"/>
        <EnumeratedItem CodedValue="205" def:ExtendedValue="Yes"/>
        <EnumeratedItem CodedValue="54" def:ExtendedValue="Yes"/>
        <EnumeratedItem CodedValue="184" def:ExtendedValue="Yes"/>
        <EnumeratedItem CodedValue="170" def:ExtendedValue="Yes"/>
        <EnumeratedItem CodedValue="198" def:ExtendedValue="Yes"/>
        <EnumeratedItem CodedValue="136" def:ExtendedValue="Yes"/>
        <EnumeratedItem CodedValue="225" def:ExtendedValue="Yes"/>
        <EnumeratedItem CodedValue="200" def:ExtendedValue="Yes"/>
        <EnumeratedItem CodedValue="121" def:ExtendedValue="Yes"/>
        <EnumeratedItem CodedValue="162" def:ExtendedValue="Yes"/>
        <EnumeratedItem CodedValue="209" def:ExtendedValue="Yes"/>
        <EnumeratedItem CodedValue="148" def:ExtendedValue="Yes"/>
        <EnumeratedItem CodedValue="232" def:ExtendedValue="Yes"/>
        <EnumeratedItem CodedValue="130" def:ExtendedValue="Yes"/>
        <EnumeratedItem CodedValue="126" def:ExtendedValue="Yes"/>
        <EnumeratedItem CodedValue="150" def:ExtendedValue="Yes"/>
        <EnumeratedItem CodedValue="70" def:ExtendedValue="Yes"/>
        <EnumeratedItem CodedValue="144" def:ExtendedValue="Yes"/>
        <EnumeratedItem CodedValue="204" def:ExtendedValue="Yes"/>
        <EnumeratedItem CodedValue="194" def:ExtendedValue="Yes"/>
        <EnumeratedItem CodedValue="155" def:ExtendedValue="Yes"/>
        <EnumeratedItem CodedValue="63" def:ExtendedValue="Yes"/>
        <EnumeratedItem CodedValue="183" def:ExtendedValue="Yes"/>
        <EnumeratedItem CodedValue="216" def:ExtendedValue="Yes"/>
        <EnumeratedItem CodedValue="133" def:ExtendedValue="Yes"/>
        <EnumeratedItem CodedValue="123" def:ExtendedValue="Yes"/>
        <EnumeratedItem CodedValue="235" def:ExtendedValue="Yes"/>
        <EnumeratedItem CodedValue="186" def:ExtendedValue="Yes"/>
        <EnumeratedItem CodedValue="128" def:ExtendedValue="Yes"/>
        <EnumeratedItem CodedValue="118" def:ExtendedValue="Yes"/>
        <EnumeratedItem CodedValue="214" def:ExtendedValue="Yes"/>
        <EnumeratedItem CodedValue="169" def:ExtendedValue="Yes"/>
        <EnumeratedItem CodedValue="189" def:ExtendedValue="Yes"/>
        <EnumeratedItem CodedValue="190" def:ExtendedValue="Yes"/>
        <EnumeratedItem CodedValue="223" def:ExtendedValue="Yes"/>
        <EnumeratedItem CodedValue="212" def:ExtendedValue="Yes"/>
        <Alias Context="" Name="C71150"/>
      </CodeList>
      <CodeList DataType="text" Name="ECG Test Name" OID="CL.EGTEST.7653">
        <EnumeratedItem CodedValue="PR Interval, Aggregate">
          <Alias Context="" Name="C117773"/>
        </EnumeratedItem>
        <EnumeratedItem CodedValue="QTcB Interval, Aggregate">
          <Alias Context="" Name="C117784"/>
        </EnumeratedItem>
        <EnumeratedItem CodedValue="RR Interval, Aggregate">
          <Alias Context="" Name="C117791"/>
        </EnumeratedItem>
        <Alias Context="" Name="C71152"/>
      </CodeList>
      <CodeList DataType="text" Name="Food and Water Consumption Test Code" OID="CL.FWTESTCD.7654">
        <EnumeratedItem CodedValue="FC">
          <Alias Context="" Name="C90384"/>
        </EnumeratedItem>
        <Alias Context="" Name="C89970"/>
      </CodeList>
      <CodeList DataType="text" Name="Food and Water Consumption Test Name" OID="CL.FWTEST.7654">
        <EnumeratedItem CodedValue="Food Consumption">
          <Alias Context="" Name="C90384"/>
        </EnumeratedItem>
        <Alias Context="" Name="C89969"/>
      </CodeList>
      <CodeList DataType="text" Name="Frequency" OID="CL.FREQ.7655">
        <EnumeratedItem CodedValue="QID">
          <Alias Context="" Name="C64530"/>
        </EnumeratedItem>
        <Alias Context="" Name="C71113"/>
      </CodeList>
      <CodeList DataType="text" Name="Laboratory Test Name" OID="CL.LBTEST.7657">
        <EnumeratedItem CodedValue="Albumin">
          <Alias Context="" Name="C64431"/>
        </EnumeratedItem>
        <EnumeratedItem CodedValue="Albumin/Globulin">
          <Alias Context="" Name="C74894"/>
        </EnumeratedItem>
        <EnumeratedItem CodedValue="Alkaline Phosphatase">
          <Alias Context="" Name="C64432"/>
        </EnumeratedItem>
        <EnumeratedItem CodedValue="Alanine Aminotransferase">
          <Alias Context="" Name="C64433"/>
        </EnumeratedItem>
        <EnumeratedItem CodedValue="Activated Partial Thromboplastin Time">
          <Alias Context="" Name="C38462"/>
        </EnumeratedItem>
        <EnumeratedItem CodedValue="Aspartate Aminotransferase">
          <Alias Context="" Name="C64467"/>
        </EnumeratedItem>
        <EnumeratedItem CodedValue="Basophils">
          <Alias Context="" Name="C64470"/>
        </EnumeratedItem>
        <EnumeratedItem CodedValue="Bilirubin">
          <Alias Context="" Name="C38037"/>
        </EnumeratedItem>
        <EnumeratedItem CodedValue="Calcium">
          <Alias Context="" Name="C64488"/>
        </EnumeratedItem>
        <EnumeratedItem CodedValue="Cholesterol">
          <Alias Context="" Name="C105586"/>
        </EnumeratedItem>
        <EnumeratedItem CodedValue="Chloride">
          <Alias Context="" Name="C64495"/>
        </EnumeratedItem>
        <EnumeratedItem CodedValue="Creatinine">
          <Alias Context="" Name="C64547"/>
        </EnumeratedItem>
        <EnumeratedItem CodedValue="Eosinophils">
          <Alias Context="" Name="C64550"/>
        </EnumeratedItem>
        <EnumeratedItem CodedValue="Fibrinogen">
          <Alias Context="" Name="C64606"/>
        </EnumeratedItem>
        <EnumeratedItem CodedValue="Gamma Glutamyl Transferase">
          <Alias Context="" Name="C64847"/>
        </EnumeratedItem>
        <EnumeratedItem CodedValue="Globulin">
          <Alias Context="" Name="C74738"/>
        </EnumeratedItem>
        <EnumeratedItem CodedValue="Glucose">
          <Alias Context="" Name="C105585"/>
        </EnumeratedItem>
        <EnumeratedItem CodedValue="Hematocrit">
          <Alias Context="" Name="C64796"/>
        </EnumeratedItem>
        <EnumeratedItem CodedValue="Hemoglobin">
          <Alias Context="" Name="C64848"/>
        </EnumeratedItem>
        <EnumeratedItem CodedValue="Potassium">
          <Alias Context="" Name="C64853"/>
        </EnumeratedItem>
        <EnumeratedItem CodedValue="Large Unstained Cells">
          <Alias Context="" Name="C74659"/>
        </EnumeratedItem>
        <EnumeratedItem CodedValue="Lymphocytes">
          <Alias Context="" Name="C51949"/>
        </EnumeratedItem>
        <EnumeratedItem CodedValue="Ery. Mean Corpuscular Hemoglobin">
          <Alias Context="" Name="C64797"/>
        </EnumeratedItem>
        <EnumeratedItem CodedValue="Ery. Mean Corpuscular HGB Concentration">
          <Alias Context="" Name="C64798"/>
        </EnumeratedItem>
        <EnumeratedItem CodedValue="Ery. Mean Corpuscular Volume">
          <Alias Context="" Name="C64799"/>
        </EnumeratedItem>
        <EnumeratedItem CodedValue="Monocytes">
          <Alias Context="" Name="C64823"/>
        </EnumeratedItem>
        <EnumeratedItem CodedValue="Neutrophils">
          <Alias Context="" Name="C63321"/>
        </EnumeratedItem>
        <EnumeratedItem CodedValue="Phosphate">
          <Alias Context="" Name="C64857"/>
        </EnumeratedItem>
        <EnumeratedItem CodedValue="Platelets">
          <Alias Context="" Name="C51951"/>
        </EnumeratedItem>
        <EnumeratedItem CodedValue="Protein">
          <Alias Context="" Name="C64858"/>
        </EnumeratedItem>
        <EnumeratedItem CodedValue="Prothrombin Time">
          <Alias Context="" Name="C62656"/>
        </EnumeratedItem>
        <EnumeratedItem CodedValue="Erythrocytes">
          <Alias Context="" Name="C51946"/>
        </EnumeratedItem>
        <EnumeratedItem CodedValue="Erythrocytes Distribution Width">
          <Alias Context="" Name="C64800"/>
        </EnumeratedItem>
        <EnumeratedItem CodedValue="Reticulocytes">
          <Alias Context="" Name="C51947"/>
        </EnumeratedItem>
        <EnumeratedItem CodedValue="Sodium">
          <Alias Context="" Name="C64809"/>
        </EnumeratedItem>
        <EnumeratedItem CodedValue="Triglycerides">
          <Alias Context="" Name="C64812"/>
        </EnumeratedItem>
        <EnumeratedItem CodedValue="Urea Nitrogen">
          <Alias Context="" Name="C125949"/>
        </EnumeratedItem>
        <EnumeratedItem CodedValue="Leukocytes">
          <Alias Context="" Name="C51948"/>
        </EnumeratedItem>
        <EnumeratedItem CodedValue="Clarity">
          <Alias Context="" Name="C96594"/>
        </EnumeratedItem>
        <EnumeratedItem CodedValue="Color">
          <Alias Context="" Name="C64546"/>
        </EnumeratedItem>
        <EnumeratedItem CodedValue="Ketones">
          <Alias Context="" Name="C64854"/>
        </EnumeratedItem>
        <EnumeratedItem CodedValue="Occult Blood">
          <Alias Context="" Name="C74686"/>
        </EnumeratedItem>
        <EnumeratedItem CodedValue="pH">
          <Alias Context="" Name="C45997"/>
        </EnumeratedItem>
        <EnumeratedItem CodedValue="Specific Gravity">
          <Alias Context="" Name="C64832"/>
        </EnumeratedItem>
        <EnumeratedItem CodedValue="Volume">
          <Alias Context="" Name="C74720"/>
        </EnumeratedItem>
        <Alias Context="" Name="C67154"/>
      </CodeList>
      <CodeList DataType="text" Name="Laterality" OID="CL.LAT.7658">
        <EnumeratedItem CodedValue="BILATERAL">
          <Alias Context="" Name="C13332"/>
        </EnumeratedItem>
        <EnumeratedItem CodedValue="LEFT">
          <Alias Context="" Name="C25229"/>
        </EnumeratedItem>
        <EnumeratedItem CodedValue="RIGHT">
          <Alias Context="" Name="C25228"/>
        </EnumeratedItem>
        <Alias Context="" Name="C99073"/>
      </CodeList>
      <CodeList DataType="text" Name="Macroscopic Findings Test Code" OID="CL.MATESTCD.7659">
        <EnumeratedItem CodedValue="GROSPATH">
          <Alias Context="" Name="C90390"/>
        </EnumeratedItem>
        <Alias Context="" Name="C89972"/>
      </CodeList>
      <CodeList DataType="text" Name="Macroscopic Findings Test Name" OID="CL.MATEST.7659">
        <EnumeratedItem CodedValue="Gross Pathological Examination">
          <Alias Context="" Name="C90390"/>
        </EnumeratedItem>
        <Alias Context="" Name="C89971"/>
      </CodeList>
      <CodeList DataType="text" Name="Microscopic Findings Test Code" OID="CL.MITESTCD.7661">
        <EnumeratedItem CodedValue="MIEXAM">
          <Alias Context="" Name="C90424"/>
        </EnumeratedItem>
        <Alias Context="" Name="C89974"/>
      </CodeList>
      <CodeList DataType="text" Name="Microscopic Findings Test Name" OID="CL.MITEST.7661">
        <EnumeratedItem CodedValue="Microscopic Examination">
          <Alias Context="" Name="C90424"/>
        </EnumeratedItem>
        <Alias Context="" Name="C89973"/>
      </CodeList>
      <CodeList DataType="text" Name="Microscopic Histopathology Result Category" OID="CL.MIRESCAT.7662">
        <EnumeratedItem CodedValue="BENIGN">
          <Alias Context="" Name="C14172"/>
        </EnumeratedItem>
        <EnumeratedItem CodedValue="MALIGNANT">
          <Alias Context="" Name="C14143"/>
        </EnumeratedItem>
        <Alias Context="" Name="C90017"/>
      </CodeList>
      <CodeList DataType="text" Name="Neoplasm Type" OID="CL.NEOPLASM.7663">
        <EnumeratedItem CodedValue="LEIOMYOMA, BENIGN">
          <Alias Context="" Name="C3157"/>
        </EnumeratedItem>
        <EnumeratedItem CodedValue="CARCINOMA, HEPATOCELLULAR, MALIGNANT">
          <Alias Context="" Name="C3099"/>
        </EnumeratedItem>
        <EnumeratedItem CodedValue="ADENOMA, HEPATOCELLULAR, BENIGN">
          <Alias Context="" Name="C3758"/>
        </EnumeratedItem>
        <Alias Context="" Name="C88025"/>
      </CodeList>
      <CodeList DataType="text" Name="Neoplastic Status" OID="CL.NEOSTAT.7664">
        <EnumeratedItem CodedValue="BENIGN">
          <Alias Context="" Name="C14172"/>
        </EnumeratedItem>
        <EnumeratedItem CodedValue="MALIGNANT">
          <Alias Context="" Name="C14143"/>
        </EnumeratedItem>
        <Alias Context="" Name="C90004"/>
      </CodeList>
      <CodeList DataType="text" Name="No Yes Response" OID="CL.NY.7665">
        <EnumeratedItem CodedValue="N">
          <Alias Context="" Name="C49487"/>
        </EnumeratedItem>
        <EnumeratedItem CodedValue="Y">
          <Alias Context="" Name="C49488"/>
        </EnumeratedItem>
        <Alias Context="" Name="C66742"/>
      </CodeList>
      <CodeList DataType="text" Name="Not Done" OID="CL.ND.7666">
        <EnumeratedItem CodedValue="NOT DONE">
          <Alias Context="" Name="C49484"/>
        </EnumeratedItem>
        <Alias Context="" Name="C66789"/>
      </CodeList>
      <CodeList DataType="text" Name="Organ Measurement Test Code" OID="CL.OMTESTCD.7667">
        <EnumeratedItem CodedValue="WEIGHT">
          <Alias Context="" Name="C25208"/>
        </EnumeratedItem>
        <Alias Context="" Name="C89977"/>
      </CodeList>
      <CodeList DataType="text" Name="Organ Measurement Test Name" OID="CL.OMTEST.7667">
        <EnumeratedItem CodedValue="Weight">
          <Alias Context="" Name="C25208"/>
        </EnumeratedItem>
        <Alias Context="" Name="C89976"/>
      </CodeList>
      <CodeList DataType="text" Name="PK Parameter Units of Measure" OID="CL.PKUNIT.7670">
        <EnumeratedItem CodedValue="ng/mL">
          <Alias Context="" Name="C67306"/>
        </EnumeratedItem>
        <EnumeratedItem CodedValue="h*ng/mL">
          <Alias Context="" Name="C85624"/>
        </EnumeratedItem>
        <EnumeratedItem CodedValue="h">
          <Alias Context="" Name="C25529"/>
        </EnumeratedItem>
        <Alias Context="" Name="C85494"/>
      </CodeList>
      <CodeList DataType="text" Name="PK Parameters" OID="CL.PKPARM.7671">
        <EnumeratedItem CodedValue="AUC Infinity Obs">
          <Alias Context="" Name="C85761"/>
        </EnumeratedItem>
        <EnumeratedItem CodedValue="AUC to Last Nonzero Conc">
          <Alias Context="" Name="C85565"/>
        </EnumeratedItem>
        <EnumeratedItem CodedValue="Max Conc">
          <Alias Context="" Name="C70918"/>
        </EnumeratedItem>
        <EnumeratedItem CodedValue="Time of Last Nonzero Conc">
          <Alias Context="" Name="C85822"/>
        </EnumeratedItem>
        <EnumeratedItem CodedValue="Time of CMAX">
          <Alias Context="" Name="C70919"/>
        </EnumeratedItem>
        <EnumeratedItem CodedValue="AUC Over Dosing Interval">
          <Alias Context="" Name="C85567"/>
        </EnumeratedItem>
        <Alias Context="" Name="C85493"/>
      </CodeList>
      <CodeList DataType="text" Name="PK Parameters Code" OID="CL.PKPARMCD.7671">
        <EnumeratedItem CodedValue="AUCIFO">
          <Alias Context="" Name="C85761"/>
        </EnumeratedItem>
        <EnumeratedItem CodedValue="AUCLST">
          <Alias Context="" Name="C85565"/>
        </EnumeratedItem>
        <EnumeratedItem CodedValue="CMAX">
          <Alias Context="" Name="C70918"/>
        </EnumeratedItem>
        <EnumeratedItem CodedValue="TLST">
          <Alias Context="" Name="C85822"/>
        </EnumeratedItem>
        <EnumeratedItem CodedValue="TMAX">
          <Alias Context="" Name="C70919"/>
        </EnumeratedItem>
        <EnumeratedItem CodedValue="AUCTAU">
          <Alias Context="" Name="C85567"/>
        </EnumeratedItem>
        <Alias Context="" Name="C85839"/>
      </CodeList>
      <CodeList DataType="text" Name="Pharmaceutical Dosage Form" OID="CL.FRM.7668">
        <EnumeratedItem CodedValue="SOLUTION">
          <Alias Context="" Name="C42986"/>
        </EnumeratedItem>
        <Alias Context="" Name="C66726"/>
      </CodeList>
      <CodeList DataType="text" Name="Physical Properties Test Code" OID="CL.PHSPRPCD.7669">
        <EnumeratedItem CodedValue="DESCR">
          <Alias Context="" Name="C25365"/>
        </EnumeratedItem>
        <Alias Context="" Name="C95121"/>
      </CodeList>
      <CodeList DataType="text" Name="Physical Properties Test Name" OID="CL.PHSPRP.7669">
        <EnumeratedItem CodedValue="Description">
          <Alias Context="" Name="C25365"/>
        </EnumeratedItem>
        <Alias Context="" Name="C95120"/>
      </CodeList>
      <CodeList DataType="text" Name="Position" OID="CL.POSITION.7673">
        <EnumeratedItem CodedValue="PRONE">
          <Alias Context="" Name="C62165"/>
        </EnumeratedItem>
        <Alias Context="" Name="C71148"/>
      </CodeList>
      <CodeList DataType="text" Name="Route of Administration" OID="CL.ROUTE.7675">
        <EnumeratedItem CodedValue="ORAL GAVAGE">
          <Alias Context="" Name="C78374"/>
        </EnumeratedItem>
        <Alias Context="" Name="C66729"/>
      </CodeList>
      <CodeList DataType="text" Name="SEND Domain Abbreviation" OID="CL.SDOMAIN.7648">
        <EnumeratedItem CodedValue="BG">
          <Alias Context="" Name="C95083"/>
        </EnumeratedItem>
        <EnumeratedItem CodedValue="BW">
          <Alias Context="" Name="C95085"/>
        </EnumeratedItem>
        <EnumeratedItem CodedValue="CL">
          <Alias Context="" Name="C95086"/>
        </EnumeratedItem>
        <EnumeratedItem CodedValue="CO">
          <Alias Context="" Name="C49569"/>
        </EnumeratedItem>
        <EnumeratedItem CodedValue="DD">
          <Alias Context="" Name="C95087"/>
        </EnumeratedItem>
        <EnumeratedItem CodedValue="DM">
          <Alias Context="" Name="C49572"/>
        </EnumeratedItem>
        <EnumeratedItem CodedValue="DS">
          <Alias Context="" Name="C49576"/>
        </EnumeratedItem>
        <EnumeratedItem CodedValue="EG">
          <Alias Context="" Name="C49626"/>
        </EnumeratedItem>
        <EnumeratedItem CodedValue="EX">
          <Alias Context="" Name="C49587"/>
        </EnumeratedItem>
        <EnumeratedItem CodedValue="FW">
          <Alias Context="" Name="C95090"/>
        </EnumeratedItem>
        <EnumeratedItem CodedValue="LB">
          <Alias Context="" Name="C49592"/>
        </EnumeratedItem>
        <EnumeratedItem CodedValue="MA">
          <Alias Context="" Name="C95094"/>
        </EnumeratedItem>
        <EnumeratedItem CodedValue="MI">
          <Alias Context="" Name="C95095"/>
        </EnumeratedItem>
        <EnumeratedItem CodedValue="OM">
          <Alias Context="" Name="C49605"/>
        </EnumeratedItem>
        <EnumeratedItem CodedValue="PC">
          <Alias Context="" Name="C49606"/>
        </EnumeratedItem>
        <EnumeratedItem CodedValue="PM">
          <Alias Context="" Name="C95097"/>
        </EnumeratedItem>
        <EnumeratedItem CodedValue="PP">
          <Alias Context="" Name="C49607"/>
        </EnumeratedItem>
        <EnumeratedItem CodedValue="SC">
          <Alias Context="" Name="C49610"/>
        </EnumeratedItem>
        <EnumeratedItem CodedValue="SE">
          <Alias Context="" Name="C49616"/>
        </EnumeratedItem>
        <EnumeratedItem CodedValue="TA">
          <Alias Context="" Name="C49618"/>
        </EnumeratedItem>
        <EnumeratedItem CodedValue="TE">
          <Alias Context="" Name="C49619"/>
        </EnumeratedItem>
        <EnumeratedItem CodedValue="TF">
          <Alias Context="" Name="C95100"/>
        </EnumeratedItem>
        <EnumeratedItem CodedValue="TS">
          <Alias Context="" Name="C53483"/>
        </EnumeratedItem>
        <EnumeratedItem CodedValue="TX">
          <Alias Context="" Name="C95103"/>
        </EnumeratedItem>
        <EnumeratedItem CodedValue="VS">
          <Alias Context="" Name="C49622"/>
        </EnumeratedItem>
        <Alias Context="" Name="C111113"/>
      </CodeList>
      <CodeList DataType="text" Name="SEND Subject Characteristics Test Name" OID="CL.SBCSND.7679">
        <EnumeratedItem CodedValue="Alternate Identifier">
          <Alias Context="" Name="C90353"/>
        </EnumeratedItem>
        <Alias Context="" Name="C89980"/>
      </CodeList>
      <CodeList DataType="text" Name="SEND Trial Summary Parameter Test Name" OID="CL.STSPRM.7681">
        <EnumeratedItem CodedValue="Age Text">
          <Alias Context="" Name="C90352"/>
        </EnumeratedItem>
        <EnumeratedItem CodedValue="Age Unit">
          <Alias Context="" Name="C50400"/>
        </EnumeratedItem>
        <EnumeratedItem CodedValue="Basal Diet">
          <Alias Context="" Name="C90364"/>
        </EnumeratedItem>
        <EnumeratedItem CodedValue="Dosing Duration">
          <Alias Context="" Name="C90378"/>
        </EnumeratedItem>
        <EnumeratedItem CodedValue="Environmental Temperature">
          <Alias Context="" Name="C90380"/>
        </EnumeratedItem>
        <EnumeratedItem CodedValue="Environmental Temperature Units">
          <Alias Context="" Name="C90381"/>
        </EnumeratedItem>
        <EnumeratedItem CodedValue="Experimental End Date">
          <Alias Context="" Name="C90382"/>
        </EnumeratedItem>
        <EnumeratedItem CodedValue="Experimental Start Date">
          <Alias Context="" Name="C90487"/>
        </EnumeratedItem>
        <EnumeratedItem CodedValue="Good Laboratory Practice Type">
          <Alias Context="" Name="C90389"/>
        </EnumeratedItem>
        <EnumeratedItem CodedValue="Housing Group">
          <Alias Context="" Name="C90394"/>
        </EnumeratedItem>
        <EnumeratedItem CodedValue="Housing Type">
          <Alias Context="" Name="C90397"/>
        </EnumeratedItem>
        <EnumeratedItem CodedValue="Housing Humidity">
          <Alias Context="" Name="C90395"/>
        </EnumeratedItem>
        <EnumeratedItem CodedValue="Housing Humidity Units">
          <Alias Context="" Name="C90396"/>
        </EnumeratedItem>
        <EnumeratedItem CodedValue="Method of Identification">
          <Alias Context="" Name="C90422"/>
        </EnumeratedItem>
        <EnumeratedItem CodedValue="Light Cycle">
          <Alias Context="" Name="C90419"/>
        </EnumeratedItem>
        <EnumeratedItem CodedValue="Lot Number" def:ExtendedValue="Yes"/>
        <EnumeratedItem CodedValue="Method of Termination">
          <Alias Context="" Name="C90423"/>
        </EnumeratedItem>
        <EnumeratedItem CodedValue="Planned Number of Female Subjects">
          <Alias Context="" Name="C90437"/>
        </EnumeratedItem>
        <EnumeratedItem CodedValue="Planned Number of Male Subjects">
          <Alias Context="" Name="C90438"/>
        </EnumeratedItem>
        <EnumeratedItem CodedValue="Quality Assurance type" def:ExtendedValue="Yes"/>
        <EnumeratedItem CodedValue="Recovery Period">
          <Alias Context="" Name="C90446"/>
        </EnumeratedItem>
        <EnumeratedItem CodedValue="Route of Administration">
          <Alias Context="" Name="C38114"/>
        </EnumeratedItem>
        <EnumeratedItem CodedValue="Study Design">
          <Alias Context="" Name="C95082"/>
        </EnumeratedItem>
        <EnumeratedItem CodedValue="Sex of Participants">
          <Alias Context="" Name="C49696"/>
        </EnumeratedItem>
        <EnumeratedItem CodedValue="SEND Controlled Terminology Version">
          <Alias Context="" Name="C96370"/>
        </EnumeratedItem>
        <EnumeratedItem CodedValue="SEND Implementation Guide Version">
          <Alias Context="" Name="C90458"/>
        </EnumeratedItem>
        <EnumeratedItem CodedValue="Species">
          <Alias Context="" Name="C96433"/>
        </EnumeratedItem>
        <EnumeratedItem CodedValue="Planned Number of Subjects">
          <Alias Context="" Name="C95106"/>
        </EnumeratedItem>
        <EnumeratedItem CodedValue="Test Subject Supplier">
          <Alias Context="" Name="C90473"/>
        </EnumeratedItem>
        <EnumeratedItem CodedValue="Sponsor's Reference ID">
          <Alias Context="" Name="C90457"/>
        </EnumeratedItem>
        <EnumeratedItem CodedValue="Study Is Randomized">
          <Alias Context="" Name="C95104"/>
        </EnumeratedItem>
        <EnumeratedItem CodedValue="Sponsoring Organization">
          <Alias Context="" Name="C129946"/>
        </EnumeratedItem>
        <EnumeratedItem CodedValue="Study Type">
          <Alias Context="" Name="C92644"/>
        </EnumeratedItem>
        <EnumeratedItem CodedValue="Study Category">
          <Alias Context="" Name="C90461"/>
        </EnumeratedItem>
        <EnumeratedItem CodedValue="Study Director">
          <Alias Context="" Name="C129944"/>
        </EnumeratedItem>
        <EnumeratedItem CodedValue="Study Title">
          <Alias Context="" Name="C95108"/>
        </EnumeratedItem>
        <EnumeratedItem CodedValue="Strain/Substrain">
          <Alias Context="" Name="C96373"/>
        </EnumeratedItem>
        <EnumeratedItem CodedValue="Study Start Date">
          <Alias Context="" Name="C99157"/>
        </EnumeratedItem>
        <EnumeratedItem CodedValue="Test Facility Country">
          <Alias Context="" Name="C90467"/>
        </EnumeratedItem>
        <EnumeratedItem CodedValue="Time to Terminal Sacrifice">
          <Alias Context="" Name="C90466"/>
        </EnumeratedItem>
        <EnumeratedItem CodedValue="Investigational Therapy or Treatment">
          <Alias Context="" Name="C41161"/>
        </EnumeratedItem>
        <EnumeratedItem CodedValue="Primary Treatment CAS Registry Number">
          <Alias Context="" Name="C92645"/>
        </EnumeratedItem>
        <EnumeratedItem CodedValue="Percent Purity of Compound" def:ExtendedValue="Yes"/>
        <EnumeratedItem CodedValue="Treatment Vehicle">
          <Alias Context="" Name="C927"/>
        </EnumeratedItem>
        <EnumeratedItem CodedValue="Test Site Country">
          <Alias Context="" Name="C90470"/>
        </EnumeratedItem>
        <EnumeratedItem CodedValue="Test Site Location">
          <Alias Context="" Name="C90471"/>
        </EnumeratedItem>
        <EnumeratedItem CodedValue="Test Site Name">
          <Alias Context="" Name="C90472"/>
        </EnumeratedItem>
        <EnumeratedItem CodedValue="Test Facility Location">
          <Alias Context="" Name="C90468"/>
        </EnumeratedItem>
        <EnumeratedItem CodedValue="Test Facility Name">
          <Alias Context="" Name="C90469"/>
        </EnumeratedItem>
        <EnumeratedItem CodedValue="Drinking Water">
          <Alias Context="" Name="C90377"/>
        </EnumeratedItem>
        <EnumeratedItem CodedValue="Arm Code">
          <Alias Context="" Name="C83216"/>
        </EnumeratedItem>
        <EnumeratedItem CodedValue="Group Label">
          <Alias Context="" Name="C90391"/>
        </EnumeratedItem>
        <EnumeratedItem CodedValue="Set Label">
          <Alias Context="" Name="C90455"/>
        </EnumeratedItem>
        <EnumeratedItem CodedValue="Sponsor-Defined Group Code">
          <Alias Context="" Name="C90456"/>
        </EnumeratedItem>
        <EnumeratedItem CodedValue="Control Type">
          <Alias Context="" Name="C49647"/>
        </EnumeratedItem>
        <EnumeratedItem CodedValue="Toxicokinetic Description">
          <Alias Context="" Name="C90477"/>
        </EnumeratedItem>
        <EnumeratedItem CodedValue="Dose Level">
          <Alias Context="" Name="C25488"/>
        </EnumeratedItem>
        <EnumeratedItem CodedValue="Dose Units">
          <Alias Context="" Name="C73558"/>
        </EnumeratedItem>
        <Alias Context="" Name="C90007"/>
      </CodeList>
      <CodeList DataType="text" Name="Severity" OID="CL.SEV.7682">
        <EnumeratedItem CodedValue="MILD">
          <Alias Context="" Name="C70666"/>
        </EnumeratedItem>
        <EnumeratedItem CodedValue="MINIMAL">
          <Alias Context="" Name="C25570"/>
        </EnumeratedItem>
        <EnumeratedItem CodedValue="MODERATE">
          <Alias Context="" Name="C61376"/>
        </EnumeratedItem>
        <EnumeratedItem CodedValue="MARKED">
          <Alias Context="" Name="C48662"/>
        </EnumeratedItem>
        <Alias Context="" Name="C90000"/>
      </CodeList>
      <CodeList DataType="text" Name="Sex" OID="CL.SEX.7683">
        <EnumeratedItem CodedValue="M">
          <Alias Context="" Name="C20197"/>
        </EnumeratedItem>
        <EnumeratedItem CodedValue="F">
          <Alias Context="" Name="C16576"/>
        </EnumeratedItem>
        <Alias Context="" Name="C66731"/>
      </CodeList>
      <CodeList DataType="text" Name="Specimen" OID="CL.SPEC.7686">
        <EnumeratedItem CodedValue="SERUM">
          <Alias Context="" Name="C13325"/>
        </EnumeratedItem>
        <EnumeratedItem CodedValue="PLASMA">
          <Alias Context="" Name="C13356"/>
        </EnumeratedItem>
        <EnumeratedItem CodedValue="WHOLE BLOOD">
          <Alias Context="" Name="C41067"/>
        </EnumeratedItem>
        <EnumeratedItem CodedValue="URINE">
          <Alias Context="" Name="C13283"/>
        </EnumeratedItem>
        <EnumeratedItem CodedValue="ESOPHAGUS">
          <Alias Context="" Name="C12389"/>
        </EnumeratedItem>
        <EnumeratedItem CodedValue="GLAND, ADRENAL">
          <Alias Context="" Name="C12666"/>
        </EnumeratedItem>
        <EnumeratedItem CodedValue="ALL TISSUES">
          <Alias Context="" Name="C90476"/>
        </EnumeratedItem>
        <EnumeratedItem CodedValue="HINDLIMB">
          <Alias Context="" Name="C77625"/>
        </EnumeratedItem>
        <EnumeratedItem CodedValue="TESTIS">
          <Alias Context="" Name="C12412"/>
        </EnumeratedItem>
        <EnumeratedItem CodedValue="THYMUS">
          <Alias Context="" Name="C12433"/>
        </EnumeratedItem>
        <EnumeratedItem CodedValue="EPIDIDYMIS">
          <Alias Context="" Name="C12328"/>
        </EnumeratedItem>
        <EnumeratedItem CodedValue="GLAND, COAGULATING">
          <Alias Context="" Name="C77618"/>
        </EnumeratedItem>
        <EnumeratedItem CodedValue="GLAND, SEMINAL VESICLE">
          <Alias Context="" Name="C12787"/>
        </EnumeratedItem>
        <EnumeratedItem CodedValue="LYMPH NODE, MESENTERIC">
          <Alias Context="" Name="C77641"/>
        </EnumeratedItem>
        <EnumeratedItem CodedValue="GLAND, THYROID">
          <Alias Context="" Name="C12400"/>
        </EnumeratedItem>
        <EnumeratedItem CodedValue="STOMACH">
          <Alias Context="" Name="C12391"/>
        </EnumeratedItem>
        <EnumeratedItem CodedValue="LARGE INTESTINE, CECUM">
          <Alias Context="" Name="C12381"/>
        </EnumeratedItem>
        <EnumeratedItem CodedValue="LARGE INTESTINE, COLON">
          <Alias Context="" Name="C12382"/>
        </EnumeratedItem>
        <EnumeratedItem CodedValue="LARGE INTESTINE, RECTUM">
          <Alias Context="" Name="C12390"/>
        </EnumeratedItem>
        <EnumeratedItem CodedValue="SKIN">
          <Alias Context="" Name="C12470"/>
        </EnumeratedItem>
        <EnumeratedItem CodedValue="SPLEEN">
          <Alias Context="" Name="C12432"/>
        </EnumeratedItem>
        <EnumeratedItem CodedValue="UTERUS">
          <Alias Context="" Name="C12405"/>
        </EnumeratedItem>
        <EnumeratedItem CodedValue="LUNG">
          <Alias Context="" Name="C12468"/>
        </EnumeratedItem>
        <EnumeratedItem CodedValue="LIVER">
          <Alias Context="" Name="C12392"/>
        </EnumeratedItem>
        <EnumeratedItem CodedValue="KIDNEY">
          <Alias Context="" Name="C12415"/>
        </EnumeratedItem>
        <EnumeratedItem CodedValue="SMALL INTESTINE, ILEUM">
          <Alias Context="" Name="C12387"/>
        </EnumeratedItem>
        <EnumeratedItem CodedValue="SMALL INTESTINE, JEJUNUM">
          <Alias Context="" Name="C12388"/>
        </EnumeratedItem>
        <EnumeratedItem CodedValue="URINARY BLADDER">
          <Alias Context="" Name="C12414"/>
        </EnumeratedItem>
        <EnumeratedItem CodedValue="SMALL INTESTINE, DUODENUM">
          <Alias Context="" Name="C12263"/>
        </EnumeratedItem>
        <EnumeratedItem CodedValue="BODY CAVITY, CRANIAL">
          <Alias Context="" Name="C77638"/>
        </EnumeratedItem>
        <EnumeratedItem CodedValue="BONE MARROW, FEMUR">
          <Alias Context="" Name="C77686"/>
        </EnumeratedItem>
        <EnumeratedItem CodedValue="GLAND, PROSTATE">
          <Alias Context="" Name="C12410"/>
        </EnumeratedItem>
        <EnumeratedItem CodedValue="ARTERY, AORTA">
          <Alias Context="" Name="C12669"/>
        </EnumeratedItem>
        <EnumeratedItem CodedValue="BONE MARROW, STERNUM">
          <Alias Context="" Name="C77690"/>
        </EnumeratedItem>
        <EnumeratedItem CodedValue="BONE, STERNUM">
          <Alias Context="" Name="C12793"/>
        </EnumeratedItem>
        <EnumeratedItem CodedValue="BRAIN">
          <Alias Context="" Name="C12439"/>
        </EnumeratedItem>
        <EnumeratedItem CodedValue="EYE">
          <Alias Context="" Name="C12401"/>
        </EnumeratedItem>
        <EnumeratedItem CodedValue="GLAND, HARDERIAN">
          <Alias Context="" Name="C77619"/>
        </EnumeratedItem>
        <EnumeratedItem CodedValue="GLAND, MAMMARY">
          <Alias Context="" Name="C12367"/>
        </EnumeratedItem>
        <EnumeratedItem CodedValue="GLAND, PARATHYROID">
          <Alias Context="" Name="C12765"/>
        </EnumeratedItem>
        <EnumeratedItem CodedValue="GLAND, PITUITARY">
          <Alias Context="" Name="C12399"/>
        </EnumeratedItem>
        <EnumeratedItem CodedValue="GLAND, SALIVARY, PAROTID">
          <Alias Context="" Name="C12427"/>
        </EnumeratedItem>
        <EnumeratedItem CodedValue="GLAND, SALIVARY, SUBLINGUAL">
          <Alias Context="" Name="C12234"/>
        </EnumeratedItem>
        <EnumeratedItem CodedValue="GLAND, SALIVARY, SUBMANDIBULAR">
          <Alias Context="" Name="C12233"/>
        </EnumeratedItem>
        <EnumeratedItem CodedValue="HEART">
          <Alias Context="" Name="C12727"/>
        </EnumeratedItem>
        <EnumeratedItem CodedValue="JOINT, HIP">
          <Alias Context="" Name="C32742"/>
        </EnumeratedItem>
        <EnumeratedItem CodedValue="LARYNX">
          <Alias Context="" Name="C12420"/>
        </EnumeratedItem>
        <EnumeratedItem CodedValue="LYMPH NODE, POPLITEAL">
          <Alias Context="" Name="C53146"/>
        </EnumeratedItem>
        <EnumeratedItem CodedValue="MUSCLE, QUADRICEPS FEMORIS">
          <Alias Context="" Name="C33441"/>
        </EnumeratedItem>
        <EnumeratedItem CodedValue="NERVE, OPTIC">
          <Alias Context="" Name="C12761"/>
        </EnumeratedItem>
        <EnumeratedItem CodedValue="NERVE, SCIATIC">
          <Alias Context="" Name="C52810"/>
        </EnumeratedItem>
        <EnumeratedItem CodedValue="PANCREAS">
          <Alias Context="" Name="C12393"/>
        </EnumeratedItem>
        <EnumeratedItem CodedValue="PEYER'S PATCH">
          <Alias Context="" Name="C12771"/>
        </EnumeratedItem>
        <EnumeratedItem CodedValue="SPINAL CORD, CERVICAL">
          <Alias Context="" Name="C12892"/>
        </EnumeratedItem>
        <EnumeratedItem CodedValue="SPINAL CORD, LUMBAR">
          <Alias Context="" Name="C12895"/>
        </EnumeratedItem>
        <EnumeratedItem CodedValue="SPINAL CORD, THORACIC">
          <Alias Context="" Name="C12894"/>
        </EnumeratedItem>
        <EnumeratedItem CodedValue="TONGUE">
          <Alias Context="" Name="C12422"/>
        </EnumeratedItem>
        <EnumeratedItem CodedValue="TRACHEA">
          <Alias Context="" Name="C12428"/>
        </EnumeratedItem>
        <EnumeratedItem CodedValue="URETER">
          <Alias Context="" Name="C12416"/>
        </EnumeratedItem>
        <EnumeratedItem CodedValue="OVARY">
          <Alias Context="" Name="C12404"/>
        </EnumeratedItem>
        <Alias Context="" Name="C77529"/>
      </CodeList>
      <CodeList DataType="text" Name="Standardized Disposition Term" OID="CL.DSDECOD.7687">
        <EnumeratedItem CodedValue="MORIBUND SACRIFICE">
          <Alias Context="" Name="C90425"/>
        </EnumeratedItem>
        <EnumeratedItem CodedValue="TERMINAL SACRIFICE">
          <Alias Context="" Name="C90465"/>
        </EnumeratedItem>
        <EnumeratedItem CodedValue="RECOVERY SACRIFICE">
          <Alias Context="" Name="C90445"/>
        </EnumeratedItem>
        <Alias Context="" Name="C89968"/>
      </CodeList>
      <CodeList DataType="text" Name="Tumor Findings Test Code" OID="CL.TFTESTCD.7692">
        <EnumeratedItem CodedValue="TUMEX">
          <Alias Context="" Name="C90479"/>
        </EnumeratedItem>
        <Alias Context="" Name="C90006"/>
      </CodeList>
      <CodeList DataType="text" Name="Tumor Findings Test Name" OID="CL.TFTEST.7692">
        <EnumeratedItem CodedValue="Tumor Examination">
          <Alias Context="" Name="C90479"/>
        </EnumeratedItem>
        <Alias Context="" Name="C90005"/>
      </CodeList>
      <CodeList DataType="text" Name="Unit" OID="CL.UNIT.7693">
        <EnumeratedItem CodedValue="g">
          <Alias Context="" Name="C48155"/>
        </EnumeratedItem>
        <EnumeratedItem CodedValue="msec">
          <Alias Context="" Name="C41140"/>
        </EnumeratedItem>
        <EnumeratedItem CodedValue="mg/kg">
          <Alias Context="" Name="C67401"/>
        </EnumeratedItem>
        <EnumeratedItem CodedValue="g/day">
          <Alias Context="" Name="C67372"/>
        </EnumeratedItem>
        <EnumeratedItem CodedValue="g/dL">
          <Alias Context="" Name="C64783"/>
        </EnumeratedItem>
        <EnumeratedItem CodedValue="U/L">
          <Alias Context="" Name="C67456"/>
        </EnumeratedItem>
        <EnumeratedItem CodedValue="sec">
          <Alias Context="" Name="C42535"/>
        </EnumeratedItem>
        <EnumeratedItem CodedValue="10^9/L">
          <Alias Context="" Name="C67255"/>
        </EnumeratedItem>
        <EnumeratedItem CodedValue="mg/dL">
          <Alias Context="" Name="C67015"/>
        </EnumeratedItem>
        <EnumeratedItem CodedValue="mmol/L">
          <Alias Context="" Name="C64387"/>
        </EnumeratedItem>
        <EnumeratedItem CodedValue="%">
          <Alias Context="" Name="C25613"/>
        </EnumeratedItem>
        <EnumeratedItem CodedValue="pg">
          <Alias Context="" Name="C64551"/>
        </EnumeratedItem>
        <EnumeratedItem CodedValue="fL">
          <Alias Context="" Name="C64780"/>
        </EnumeratedItem>
        <EnumeratedItem CodedValue="10^12/L">
          <Alias Context="" Name="C67308"/>
        </EnumeratedItem>
        <EnumeratedItem CodedValue="mL">
          <Alias Context="" Name="C28254"/>
        </EnumeratedItem>
        <EnumeratedItem CodedValue="C">
          <Alias Context="" Name="C42559"/>
        </EnumeratedItem>
        <Alias Context="" Name="C71620"/>
      </CodeList>
      <CodeList DataType="text" Name="Units for Vital Signs Results" OID="CL.VSRESU.7694">
        <EnumeratedItem CodedValue="beats/min">
          <Alias Context="" Name="C49673"/>
        </EnumeratedItem>
        <Alias Context="" Name="C66770"/>
      </CodeList>
      <CodeList DataType="text" Name="Vital Signs Test Name" OID="CL.VSTEST.7696">
        <EnumeratedItem CodedValue="Heart Rate">
          <Alias Context="" Name="C49677"/>
        </EnumeratedItem>
        <Alias Context="" Name="C67153"/>
      </CodeList>
