<?xml version="1.0" encoding="ISO-8859-1"?>
<?xml-stylesheet type="text/xsl" href="define1-0-0.xsl"?>
<ODM CreationDateTime="2016-11-18T17:36:40"
     FileOID="Company Name.STUDY.Study ID" FileType="Snapshot"
     ODMVersion="1.2" Originator="Company Name" SourceSystem="SAS"
     SourceSystemVersion="9.2" xmlns="http://www.cdisc.org/ns/odm/v1.2"
     xmlns:def="http://www.cdisc.org/ns/def/v1.0"
     xmlns:xlink="http://www.w3.org/1999/xlink"
     xmlns:xsi="http://www.w3.org/2001/XMLSchema-instance" xsi:schemaLocation="http://www.cdisc.org/ns/odm/v1.2 http://www.cdisc.org/schema/def/v1.0/define1-0-0.xsd">
     <Study OID="STUDY.Study ID">
          <GlobalVariables>
               <StudyName>Study ID</StudyName>
               <StudyDescription>Full Title of Report</StudyDescription>
               <ProtocolName>Protocol ID</ProtocolName>
          </GlobalVariables>
          <MetaDataVersion
               Description="CDISC SEND 3.0 Data for Study Protocol ID.Study ID"
               Name="CDISC SEND 3.0 Data for Study Protocol ID.Study ID"
               OID="CDISC.SEND.3.0" def:DefineVersion="1.0.0"
               def:StandardName="CDISC SEND" def:StandardVersion="3.0">
               <def:ComputationMethod OID="COMPMETHOD.COMPAGE">If birth date is collected, this animal's start date on the dosing phase (RFSTDTC) minus Birth date+1, otherwise this is the age of the animal at the start of the study if that is defined in the study protocol.</def:ComputationMethod>
               <def:ComputationMethod OID="COMPMETHOD.COMPBLFL">Y for last non missing record on or before the first dose date (RFSTDTC); otherwise Null</def:ComputationMethod>
               <def:ComputationMethod OID="COMPMETHOD.COMPDOSE">Actual amount of test article in the dose administered: EXVAMT * Dose concentration</def:ComputationMethod>
               <def:ComputationMethod OID="COMPMETHOD.COMPDY">"--DTC minus RFSTDTC plus 1 if --DTC is on or after RFSTDTC. --DTC minus RFSTDTC if --DTC precedes RFSTDTC."</def:ComputationMethod>
               <def:ComputationMethod OID="COMPMETHOD.COMPENDY">"--ENDTC minus RFSTDTC plus 1 if --ENDTC is on or after RFSTDTC. --ENDTC minus RFSTDTC if --ENDTC precedes RFSTDTC."</def:ComputationMethod>
               <def:ComputationMethod OID="COMPMETHOD.COMPOWBW">Organ weight divided by terminal body weight * 100</def:ComputationMethod>
               <def:ComputationMethod OID="COMPMETHOD.COMPSEQ">Sequential number identifying records within a dataset</def:ComputationMethod>
               <def:ComputationMethod OID="COMPMETHOD.COMPSTDY">"--STDTC minus RFSTDTC plus 1 if --STDTC is on or after RFSTDTC. --STDTC minus RFSTDTC if --STDTC precedes RFSTDTC"</def:ComputationMethod>
               <def:ComputationMethod OID="COMPMETHOD.COMPSTRESC">Copy of --ORRES</def:ComputationMethod>
               <def:ComputationMethod OID="COMPMETHOD.COMPSTRESN">When --STRESC contains a numeric result, the numeric equivalent is reported in --STRESN</def:ComputationMethod>
               <def:ComputationMethod OID="COMPMETHOD.COMPSTRESU">WHEN --STRESC contains a numeric result, --ORRESU is reported in --STRESU</def:ComputationMethod>
               <def:ComputationMethod OID="COMPMETHOD.COMPTISSUE">Derived from the organ/tissue name used during sample collection.</def:ComputationMethod>
               <def:ComputationMethod OID="COMPMETHOD.COMPTPTNUM">A value assigned to each unique session name that is reported in --TPT.</def:ComputationMethod>
               <def:ComputationMethod OID="COMPMETHOD.COMPUSUBJID">Concatenation of STUDYID-SUBJID</def:ComputationMethod>
               <def:ComputationMethod OID="COMPMETHOD.COMPVISITDY">Set equal to associated domain --DY except when activity was performed on a different day than planned or activity was unscheduled.</def:ComputationMethod>
               <def:ValueListDef OID="ValueList.BG.BGTESTCD">
                    <ItemRef ItemOID="BG.BGTESTCD.BWGAIN" Mandatory="No"
                         OrderNumber="1" Role="Topic" RoleCodeListOID="ROLECODELIST"/>
               </def:ValueListDef>
               <def:ValueListDef OID="ValueList.BW.BWTESTCD">
                    <ItemRef ItemOID="BW.BWTESTCD.BW" Mandatory="No"
                         OrderNumber="1" Role="Topic" RoleCodeListOID="ROLECODELIST"/>
                    <ItemRef ItemOID="BW.BWTESTCD.TERMBW" Mandatory="No"
                         OrderNumber="2" Role="Topic" RoleCodeListOID="ROLECODELIST"/>
               </def:ValueListDef>
               <def:ValueListDef OID="ValueList.CL.CLCAT">
                    <ItemRef ItemOID="CL.CLCAT.CLINICAL SIGNS"
                         Mandatory="No" OrderNumber="1"
                         Role="Grouping Qualifier" RoleCodeListOID="ROLECODELIST"/>
                    <ItemRef ItemOID="CL.CLCAT.PHYSICAL EXAM"
                         Mandatory="No" OrderNumber="2"
                         Role="Grouping Qualifier" RoleCodeListOID="ROLECODELIST"/>
               </def:ValueListDef>
               <def:ValueListDef OID="ValueList.CL.CLCAT.CLINICAL SIGNS.CLTESTCD">
                    <ItemRef
                         ItemOID="CL.CLCAT.CLINICAL SIGNS.CLTESTCD.GEN"
                         Mandatory="No" OrderNumber="1" Role="Topic" RoleCodeListOID="ROLECODELIST"/>
                    <ItemRef
                         ItemOID="CL.CLCAT.CLINICAL SIGNS.CLTESTCD.HA"
                         Mandatory="No" OrderNumber="2" Role="Topic" RoleCodeListOID="ROLECODELIST"/>
                    <ItemRef
                         ItemOID="CL.CLCAT.CLINICAL SIGNS.CLTESTCD.IS"
                         Mandatory="No" OrderNumber="3" Role="Topic" RoleCodeListOID="ROLECODELIST"/>
                    <ItemRef
                         ItemOID="CL.CLCAT.CLINICAL SIGNS.CLTESTCD.N"
                         Mandatory="No" OrderNumber="4" Role="Topic" RoleCodeListOID="ROLECODELIST"/>
                    <ItemRef
                         ItemOID="CL.CLCAT.CLINICAL SIGNS.CLTESTCD.SE"
                         Mandatory="No" OrderNumber="5" Role="Topic" RoleCodeListOID="ROLECODELIST"/>
                    <ItemRef
                         ItemOID="CL.CLCAT.CLINICAL SIGNS.CLTESTCD.SK"
                         Mandatory="No" OrderNumber="6" Role="Topic" RoleCodeListOID="ROLECODELIST"/>
               </def:ValueListDef>
               <def:ValueListDef OID="ValueList.CL.CLCAT.PHYSICAL EXAM.CLTESTCD">
                    <ItemRef
                         ItemOID="CL.CLCAT.PHYSICAL EXAM.CLTESTCD.GEN"
                         Mandatory="No" OrderNumber="1" Role="Topic" RoleCodeListOID="ROLECODELIST"/>
                    <ItemRef ItemOID="CL.CLCAT.PHYSICAL EXAM.CLTESTCD.N"
                         Mandatory="No" OrderNumber="2" Role="Topic" RoleCodeListOID="ROLECODELIST"/>
                    <ItemRef
                         ItemOID="CL.CLCAT.PHYSICAL EXAM.CLTESTCD.SE"
                         Mandatory="No" OrderNumber="3" Role="Topic" RoleCodeListOID="ROLECODELIST"/>
                    <ItemRef
                         ItemOID="CL.CLCAT.PHYSICAL EXAM.CLTESTCD.SK"
                         Mandatory="No" OrderNumber="4" Role="Topic" RoleCodeListOID="ROLECODELIST"/>
               </def:ValueListDef>
               <def:ValueListDef OID="ValueList.LB.LBCAT">
                    <ItemRef ItemOID="LB.LBCAT.Clinical Chemistry"
                         Mandatory="No" OrderNumber="1"
                         Role="Grouping Qualifier" RoleCodeListOID="ROLECODELIST"/>
                    <ItemRef ItemOID="LB.LBCAT.Coagulation"
                         Mandatory="No" OrderNumber="2"
                         Role="Grouping Qualifier" RoleCodeListOID="ROLECODELIST"/>
                    <ItemRef ItemOID="LB.LBCAT.Hematology"
                         Mandatory="No" OrderNumber="3"
                         Role="Grouping Qualifier" RoleCodeListOID="ROLECODELIST"/>
               </def:ValueListDef>
               <def:ValueListDef OID="ValueList.LB.LBCAT.Clinical Chemistry.LBTESTCD">
                    <ItemRef
                         ItemOID="LB.LBCAT.Clinical Chemistry.LBTESTCD.ALB"
                         Mandatory="No" OrderNumber="1" Role="Topic" RoleCodeListOID="ROLECODELIST"/>
                    <ItemRef
                         ItemOID="LB.LBCAT.Clinical Chemistry.LBTESTCD.ALBGLOB"
                         Mandatory="No" OrderNumber="2" Role="Topic" RoleCodeListOID="ROLECODELIST"/>
                    <ItemRef
                         ItemOID="LB.LBCAT.Clinical Chemistry.LBTESTCD.ALP"
                         Mandatory="No" OrderNumber="3" Role="Topic" RoleCodeListOID="ROLECODELIST"/>
                    <ItemRef
                         ItemOID="LB.LBCAT.Clinical Chemistry.LBTESTCD.ALT"
                         Mandatory="No" OrderNumber="4" Role="Topic" RoleCodeListOID="ROLECODELIST"/>
                    <ItemRef
                         ItemOID="LB.LBCAT.Clinical Chemistry.LBTESTCD.AST"
                         Mandatory="No" OrderNumber="5" Role="Topic" RoleCodeListOID="ROLECODELIST"/>
                    <ItemRef
                         ItemOID="LB.LBCAT.Clinical Chemistry.LBTESTCD.BICARB"
                         Mandatory="No" OrderNumber="6" Role="Topic" RoleCodeListOID="ROLECODELIST"/>
                    <ItemRef
                         ItemOID="LB.LBCAT.Clinical Chemistry.LBTESTCD.BILI"
                         Mandatory="No" OrderNumber="7" Role="Topic" RoleCodeListOID="ROLECODELIST"/>
                    <ItemRef
                         ItemOID="LB.LBCAT.Clinical Chemistry.LBTESTCD.BUN"
                         Mandatory="No" OrderNumber="8" Role="Topic" RoleCodeListOID="ROLECODELIST"/>
                    <ItemRef
                         ItemOID="LB.LBCAT.Clinical Chemistry.LBTESTCD.CA"
                         Mandatory="No" OrderNumber="9" Role="Topic" RoleCodeListOID="ROLECODELIST"/>
                    <ItemRef
                         ItemOID="LB.LBCAT.Clinical Chemistry.LBTESTCD.CHOL"
                         Mandatory="No" OrderNumber="10" Role="Topic" RoleCodeListOID="ROLECODELIST"/>
                    <ItemRef
                         ItemOID="LB.LBCAT.Clinical Chemistry.LBTESTCD.CK"
                         Mandatory="No" OrderNumber="11" Role="Topic" RoleCodeListOID="ROLECODELIST"/>
                    <ItemRef
                         ItemOID="LB.LBCAT.Clinical Chemistry.LBTESTCD.CL"
                         Mandatory="No" OrderNumber="12" Role="Topic" RoleCodeListOID="ROLECODELIST"/>
                    <ItemRef
                         ItemOID="LB.LBCAT.Clinical Chemistry.LBTESTCD.CREAT"
                         Mandatory="No" OrderNumber="13" Role="Topic" RoleCodeListOID="ROLECODELIST"/>
                    <ItemRef
                         ItemOID="LB.LBCAT.Clinical Chemistry.LBTESTCD.GGT"
                         Mandatory="No" OrderNumber="14" Role="Topic" RoleCodeListOID="ROLECODELIST"/>
                    <ItemRef
                         ItemOID="LB.LBCAT.Clinical Chemistry.LBTESTCD.GLOBUL"
                         Mandatory="No" OrderNumber="15" Role="Topic" RoleCodeListOID="ROLECODELIST"/>
                    <ItemRef
                         ItemOID="LB.LBCAT.Clinical Chemistry.LBTESTCD.GLUC"
                         Mandatory="No" OrderNumber="16" Role="Topic" RoleCodeListOID="ROLECODELIST"/>
                    <ItemRef
                         ItemOID="LB.LBCAT.Clinical Chemistry.LBTESTCD.K"
                         Mandatory="No" OrderNumber="17" Role="Topic" RoleCodeListOID="ROLECODELIST"/>
                    <ItemRef
                         ItemOID="LB.LBCAT.Clinical Chemistry.LBTESTCD.PHOS"
                         Mandatory="No" OrderNumber="18" Role="Topic" RoleCodeListOID="ROLECODELIST"/>
                    <ItemRef
                         ItemOID="LB.LBCAT.Clinical Chemistry.LBTESTCD.PROT"
                         Mandatory="No" OrderNumber="19" Role="Topic" RoleCodeListOID="ROLECODELIST"/>
                    <ItemRef
                         ItemOID="LB.LBCAT.Clinical Chemistry.LBTESTCD.SODIUM"
                         Mandatory="No" OrderNumber="20" Role="Topic" RoleCodeListOID="ROLECODELIST"/>
                    <ItemRef
                         ItemOID="LB.LBCAT.Clinical Chemistry.LBTESTCD.TRIG"
                         Mandatory="No" OrderNumber="21" Role="Topic" RoleCodeListOID="ROLECODELIST"/>
               </def:ValueListDef>
               <def:ValueListDef OID="ValueList.LB.LBCAT.Coagulation.LBTESTCD">
                    <ItemRef
                         ItemOID="LB.LBCAT.Coagulation.LBTESTCD.APTT"
                         Mandatory="No" OrderNumber="1" Role="Topic" RoleCodeListOID="ROLECODELIST"/>
                    <ItemRef
                         ItemOID="LB.LBCAT.Coagulation.LBTESTCD.FIBRINO"
                         Mandatory="No" OrderNumber="2" Role="Topic" RoleCodeListOID="ROLECODELIST"/>
                    <ItemRef ItemOID="LB.LBCAT.Coagulation.LBTESTCD.PT"
                         Mandatory="No" OrderNumber="3" Role="Topic" RoleCodeListOID="ROLECODELIST"/>
               </def:ValueListDef>
               <def:ValueListDef OID="ValueList.LB.LBCAT.Hematology.LBTESTCD">
                    <ItemRef ItemOID="LB.LBCAT.Hematology.LBTESTCD.BASO"
                         Mandatory="No" OrderNumber="1" Role="Topic" RoleCodeListOID="ROLECODELIST"/>
                    <ItemRef ItemOID="LB.LBCAT.Hematology.LBTESTCD.EOS"
                         Mandatory="No" OrderNumber="2" Role="Topic" RoleCodeListOID="ROLECODELIST"/>
                    <ItemRef ItemOID="LB.LBCAT.Hematology.LBTESTCD.HCT"
                         Mandatory="No" OrderNumber="3" Role="Topic" RoleCodeListOID="ROLECODELIST"/>
                    <ItemRef ItemOID="LB.LBCAT.Hematology.LBTESTCD.HGB"
                         Mandatory="No" OrderNumber="4" Role="Topic" RoleCodeListOID="ROLECODELIST"/>
                    <ItemRef ItemOID="LB.LBCAT.Hematology.LBTESTCD.LYM"
                         Mandatory="No" OrderNumber="5" Role="Topic" RoleCodeListOID="ROLECODELIST"/>
                    <ItemRef ItemOID="LB.LBCAT.Hematology.LBTESTCD.MCH"
                         Mandatory="No" OrderNumber="6" Role="Topic" RoleCodeListOID="ROLECODELIST"/>
                    <ItemRef ItemOID="LB.LBCAT.Hematology.LBTESTCD.MCHC"
                         Mandatory="No" OrderNumber="7" Role="Topic" RoleCodeListOID="ROLECODELIST"/>
                    <ItemRef ItemOID="LB.LBCAT.Hematology.LBTESTCD.MCV"
                         Mandatory="No" OrderNumber="8" Role="Topic" RoleCodeListOID="ROLECODELIST"/>
                    <ItemRef ItemOID="LB.LBCAT.Hematology.LBTESTCD.MONO"
                         Mandatory="No" OrderNumber="9" Role="Topic" RoleCodeListOID="ROLECODELIST"/>
                    <ItemRef ItemOID="LB.LBCAT.Hematology.LBTESTCD.MPV"
                         Mandatory="No" OrderNumber="10" Role="Topic" RoleCodeListOID="ROLECODELIST"/>
                    <ItemRef ItemOID="LB.LBCAT.Hematology.LBTESTCD.NEUT"
                         Mandatory="No" OrderNumber="11" Role="Topic" RoleCodeListOID="ROLECODELIST"/>
                    <ItemRef ItemOID="LB.LBCAT.Hematology.LBTESTCD.PLAT"
                         Mandatory="No" OrderNumber="12" Role="Topic" RoleCodeListOID="ROLECODELIST"/>
                    <ItemRef ItemOID="LB.LBCAT.Hematology.LBTESTCD.RBC"
                         Mandatory="No" OrderNumber="13" Role="Topic" RoleCodeListOID="ROLECODELIST"/>
                    <ItemRef ItemOID="LB.LBCAT.Hematology.LBTESTCD.RDW"
                         Mandatory="No" OrderNumber="14" Role="Topic" RoleCodeListOID="ROLECODELIST"/>
                    <ItemRef ItemOID="LB.LBCAT.Hematology.LBTESTCD.RETI"
                         Mandatory="No" OrderNumber="15" Role="Topic" RoleCodeListOID="ROLECODELIST"/>
                    <ItemRef ItemOID="LB.LBCAT.Hematology.LBTESTCD.WBC"
                         Mandatory="No" OrderNumber="16" Role="Topic" RoleCodeListOID="ROLECODELIST"/>
               </def:ValueListDef>
               <def:ValueListDef OID="ValueList.MA.MATESTCD">
                    <ItemRef ItemOID="MA.MATESTCD.GROSPATH"
                         Mandatory="No" OrderNumber="1" Role="Topic" RoleCodeListOID="ROLECODELIST"/>
               </def:ValueListDef>
               <def:ValueListDef OID="ValueList.MI.MIRESCAT">
                    <ItemRef ItemOID="MI.MIRESCAT." Mandatory="No"
                         OrderNumber="1" Role="Variable Qualifier" RoleCodeListOID="ROLECODELIST"/>
                    <ItemRef ItemOID="MI.MIRESCAT.NON-NEOPLASTIC"
                         Mandatory="No" OrderNumber="2"
                         Role="Variable Qualifier" RoleCodeListOID="ROLECODELIST"/>
               </def:ValueListDef>
               <def:ValueListDef OID="ValueList.MI.MITESTCD">
                    <ItemRef ItemOID="MI.MITESTCD.MIEXAM" Mandatory="No"
                         OrderNumber="1" Role="Topic" RoleCodeListOID="ROLECODELIST"/>
               </def:ValueListDef>
               <def:ValueListDef OID="ValueList.OM.OMTESTCD">
                    <ItemRef ItemOID="OM.OMTESTCD.OWBW" Mandatory="No"
                         OrderNumber="1" Role="Topic" RoleCodeListOID="ROLECODELIST"/>
                    <ItemRef ItemOID="OM.OMTESTCD.WEIGHT" Mandatory="No"
                         OrderNumber="2" Role="Topic" RoleCodeListOID="ROLECODELIST"/>
               </def:ValueListDef>
               <def:ValueListDef OID="ValueList.PC.PCTESTCD">
                    <ItemRef ItemOID="PC.PCTESTCD.PDAR30AC"
                         Mandatory="No" OrderNumber="1" Role="Topic" RoleCodeListOID="ROLECODELIST"/>
                    <ItemRef ItemOID="PC.PCTESTCD.PDAR30CC"
                         Mandatory="No" OrderNumber="2" Role="Topic" RoleCodeListOID="ROLECODELIST"/>
                    <ItemRef ItemOID="PC.PCTESTCD.PDAR30MC"
                         Mandatory="No" OrderNumber="3" Role="Topic" RoleCodeListOID="ROLECODELIST"/>
                    <ItemRef ItemOID="PC.PCTESTCD.PDAR30TC"
                         Mandatory="No" OrderNumber="4" Role="Topic" RoleCodeListOID="ROLECODELIST"/>
                    <ItemRef ItemOID="PC.PCTESTCD.PDAR38AC"
                         Mandatory="No" OrderNumber="5" Role="Topic" RoleCodeListOID="ROLECODELIST"/>
                    <ItemRef ItemOID="PC.PCTESTCD.PDAR38CC"
                         Mandatory="No" OrderNumber="6" Role="Topic" RoleCodeListOID="ROLECODELIST"/>
                    <ItemRef ItemOID="PC.PCTESTCD.PDAR38MC"
                         Mandatory="No" OrderNumber="7" Role="Topic" RoleCodeListOID="ROLECODELIST"/>
                    <ItemRef ItemOID="PC.PCTESTCD.PDAR38TC"
                         Mandatory="No" OrderNumber="8" Role="Topic" RoleCodeListOID="ROLECODELIST"/>
                    <ItemRef ItemOID="PC.PCTESTCD.PE2AC" Mandatory="No"
                         OrderNumber="9" Role="Topic" RoleCodeListOID="ROLECODELIST"/>
                    <ItemRef ItemOID="PC.PCTESTCD.PE2CC" Mandatory="No"
                         OrderNumber="10" Role="Topic" RoleCodeListOID="ROLECODELIST"/>
                    <ItemRef ItemOID="PC.PCTESTCD.PE2MC" Mandatory="No"
                         OrderNumber="11" Role="Topic" RoleCodeListOID="ROLECODELIST"/>
                    <ItemRef ItemOID="PC.PCTESTCD.PE2TC" Mandatory="No"
                         OrderNumber="12" Role="Topic" RoleCodeListOID="ROLECODELIST"/>
               </def:ValueListDef>
               <def:ValueListDef OID="ValueList.PP.PPCAT">
                    <ItemRef
                         ItemOID="PP.PPCAT.ADC Associated Warhead Concentration"
                         Mandatory="No" OrderNumber="1"
                         Role="Grouping Qualifier" RoleCodeListOID="ROLECODELIST"/>
                    <ItemRef ItemOID="PP.PPCAT.Conjugated Concentration"
                         Mandatory="No" OrderNumber="2"
                         Role="Grouping Qualifier" RoleCodeListOID="ROLECODELIST"/>
                    <ItemRef ItemOID="PP.PPCAT.Free MMAE Concentration"
                         Mandatory="No" OrderNumber="3"
                         Role="Grouping Qualifier" RoleCodeListOID="ROLECODELIST"/>
                    <ItemRef ItemOID="PP.PPCAT.Total Concentration"
                         Mandatory="No" OrderNumber="4"
                         Role="Grouping Qualifier" RoleCodeListOID="ROLECODELIST"/>
               </def:ValueListDef>
               <def:ValueListDef OID="ValueList.PP.PPCAT.ADC Associated Warhead Concentration.PPTESTCD">
                    <ItemRef
                         ItemOID="PP.PPCAT.ADC Associated Warhead Concentration.PPTESTCD.AUCINT"
                         Mandatory="No" OrderNumber="1" Role="Topic" RoleCodeListOID="ROLECODELIST"/>
                    <ItemRef
                         ItemOID="PP.PPCAT.ADC Associated Warhead Concentration.PPTESTCD.AUCINTD"
                         Mandatory="No" OrderNumber="2" Role="Topic" RoleCodeListOID="ROLECODELIST"/>
                    <ItemRef
                         ItemOID="PP.PPCAT.ADC Associated Warhead Concentration.PPTESTCD.CONC"
                         Mandatory="No" OrderNumber="3" Role="Topic" RoleCodeListOID="ROLECODELIST"/>
                    <ItemRef
                         ItemOID="PP.PPCAT.ADC Associated Warhead Concentration.PPTESTCD.CONCD"
                         Mandatory="No" OrderNumber="4" Role="Topic" RoleCodeListOID="ROLECODELIST"/>
                    <ItemRef
                         ItemOID="PP.PPCAT.ADC Associated Warhead Concentration.PPTESTCD.LAMZHL"
                         Mandatory="No" OrderNumber="5" Role="Topic" RoleCodeListOID="ROLECODELIST"/>
               </def:ValueListDef>
               <def:ValueListDef OID="ValueList.PP.PPCAT.Conjugated Concentration.PPTESTCD">
                    <ItemRef
                         ItemOID="PP.PPCAT.Conjugated Concentration.PPTESTCD.AUCINT"
                         Mandatory="No" OrderNumber="1" Role="Topic" RoleCodeListOID="ROLECODELIST"/>
                    <ItemRef
                         ItemOID="PP.PPCAT.Conjugated Concentration.PPTESTCD.AUCINTD"
                         Mandatory="No" OrderNumber="2" Role="Topic" RoleCodeListOID="ROLECODELIST"/>
                    <ItemRef
                         ItemOID="PP.PPCAT.Conjugated Concentration.PPTESTCD.CONC"
                         Mandatory="No" OrderNumber="3" Role="Topic" RoleCodeListOID="ROLECODELIST"/>
                    <ItemRef
                         ItemOID="PP.PPCAT.Conjugated Concentration.PPTESTCD.CONCD"
                         Mandatory="No" OrderNumber="4" Role="Topic" RoleCodeListOID="ROLECODELIST"/>
                    <ItemRef
                         ItemOID="PP.PPCAT.Conjugated Concentration.PPTESTCD.LAMZHL"
                         Mandatory="No" OrderNumber="5" Role="Topic" RoleCodeListOID="ROLECODELIST"/>
               </def:ValueListDef>
               <def:ValueListDef OID="ValueList.PP.PPCAT.Free MMAE Concentration.PPTESTCD">
                    <ItemRef
                         ItemOID="PP.PPCAT.Free MMAE Concentration.PPTESTCD.AUCINT"
                         Mandatory="No" OrderNumber="1" Role="Topic" RoleCodeListOID="ROLECODELIST"/>
                    <ItemRef
                         ItemOID="PP.PPCAT.Free MMAE Concentration.PPTESTCD.AUCINTD"
                         Mandatory="No" OrderNumber="2" Role="Topic" RoleCodeListOID="ROLECODELIST"/>
                    <ItemRef
                         ItemOID="PP.PPCAT.Free MMAE Concentration.PPTESTCD.CMAX"
                         Mandatory="No" OrderNumber="3" Role="Topic" RoleCodeListOID="ROLECODELIST"/>
                    <ItemRef
                         ItemOID="PP.PPCAT.Free MMAE Concentration.PPTESTCD.CMAXD"
                         Mandatory="No" OrderNumber="4" Role="Topic" RoleCodeListOID="ROLECODELIST"/>
                    <ItemRef
                         ItemOID="PP.PPCAT.Free MMAE Concentration.PPTESTCD.TMAX"
                         Mandatory="No" OrderNumber="5" Role="Topic" RoleCodeListOID="ROLECODELIST"/>
               </def:ValueListDef>
               <def:ValueListDef OID="ValueList.PP.PPCAT.Total Concentration.PPTESTCD">
                    <ItemRef
                         ItemOID="PP.PPCAT.Total Concentration.PPTESTCD.AUCINT"
                         Mandatory="No" OrderNumber="1" Role="Topic" RoleCodeListOID="ROLECODELIST"/>
                    <ItemRef
                         ItemOID="PP.PPCAT.Total Concentration.PPTESTCD.AUCINTD"
                         Mandatory="No" OrderNumber="2" Role="Topic" RoleCodeListOID="ROLECODELIST"/>
                    <ItemRef
                         ItemOID="PP.PPCAT.Total Concentration.PPTESTCD.CONC"
                         Mandatory="No" OrderNumber="3" Role="Topic" RoleCodeListOID="ROLECODELIST"/>
                    <ItemRef
                         ItemOID="PP.PPCAT.Total Concentration.PPTESTCD.CONCD"
                         Mandatory="No" OrderNumber="4" Role="Topic" RoleCodeListOID="ROLECODELIST"/>
                    <ItemRef
                         ItemOID="PP.PPCAT.Total Concentration.PPTESTCD.LAMZHL"
                         Mandatory="No" OrderNumber="5" Role="Topic" RoleCodeListOID="ROLECODELIST"/>
               </def:ValueListDef>
               <def:ValueListDef OID="ValueList.SUPPBG.QNAM">
                    <ItemRef ItemOID="SUPPBG.QNAM.PHSEDAY1"
                         Mandatory="No" OrderNumber="1" Role="Topic" RoleCodeListOID="ROLECODELIST"/>
                    <ItemRef ItemOID="SUPPBG.QNAM.PHSEDAY2"
                         Mandatory="No" OrderNumber="2" Role="Topic" RoleCodeListOID="ROLECODELIST"/>
                    <ItemRef ItemOID="SUPPBG.QNAM.PHSNAME1"
                         Mandatory="No" OrderNumber="3" Role="Topic" RoleCodeListOID="ROLECODELIST"/>
                    <ItemRef ItemOID="SUPPBG.QNAM.PHSNAME2"
                         Mandatory="No" OrderNumber="4" Role="Topic" RoleCodeListOID="ROLECODELIST"/>
               </def:ValueListDef>
               <def:ValueListDef OID="ValueList.SUPPBW.QNAM">
                    <ItemRef ItemOID="SUPPBW.QNAM.PHASEDAY"
                         Mandatory="No" OrderNumber="1" Role="Topic" RoleCodeListOID="ROLECODELIST"/>
                    <ItemRef ItemOID="SUPPBW.QNAM.PHSENAME"
                         Mandatory="No" OrderNumber="2" Role="Topic" RoleCodeListOID="ROLECODELIST"/>
               </def:ValueListDef>
               <def:ValueListDef OID="ValueList.SUPPCL.QNAM">
                    <ItemRef ItemOID="SUPPCL.QNAM.PHASEDAY"
                         Mandatory="No" OrderNumber="1" Role="Topic" RoleCodeListOID="ROLECODELIST"/>
                    <ItemRef ItemOID="SUPPCL.QNAM.PHSENAME"
                         Mandatory="No" OrderNumber="2" Role="Topic" RoleCodeListOID="ROLECODELIST"/>
               </def:ValueListDef>
               <def:ValueListDef OID="ValueList.SUPPDS.QNAM">
                    <ItemRef ItemOID="SUPPDS.QNAM.PHASEDAY"
                         Mandatory="No" OrderNumber="1" Role="Topic" RoleCodeListOID="ROLECODELIST"/>
                    <ItemRef ItemOID="SUPPDS.QNAM.PHSENAME"
                         Mandatory="No" OrderNumber="2" Role="Topic" RoleCodeListOID="ROLECODELIST"/>
               </def:ValueListDef>
               <def:ValueListDef OID="ValueList.SUPPLB.QNAM">
                    <ItemRef ItemOID="SUPPLB.QNAM.PHASEDAY"
                         Mandatory="No" OrderNumber="1" Role="Topic" RoleCodeListOID="ROLECODELIST"/>
                    <ItemRef ItemOID="SUPPLB.QNAM.PHSENAME"
                         Mandatory="No" OrderNumber="2" Role="Topic" RoleCodeListOID="ROLECODELIST"/>
               </def:ValueListDef>
               <def:ValueListDef OID="ValueList.SUPPMA.QNAM">
                    <ItemRef ItemOID="SUPPMA.QNAM.MARESMOD"
                         Mandatory="No" OrderNumber="1" Role="Topic" RoleCodeListOID="ROLECODELIST"/>
               </def:ValueListDef>
               <def:ValueListDef OID="ValueList.SUPPMI.QNAM">
                    <ItemRef ItemOID="SUPPMI.QNAM.MIRESMOD"
                         Mandatory="No" OrderNumber="1" Role="Topic" RoleCodeListOID="ROLECODELIST"/>
               </def:ValueListDef>
               <def:ValueListDef OID="ValueList.TS.TSPARMCD">
                    <ItemRef ItemOID="TS.TSPARMCD.AGE" Mandatory="No"
                         OrderNumber="1" Role="Topic" RoleCodeListOID="ROLECODELIST"/>
                    <ItemRef ItemOID="TS.TSPARMCD.AGETXT" Mandatory="No"
                         OrderNumber="2" Role="Topic" RoleCodeListOID="ROLECODELIST"/>
                    <ItemRef ItemOID="TS.TSPARMCD.AGEU" Mandatory="No"
                         OrderNumber="3" Role="Topic" RoleCodeListOID="ROLECODELIST"/>
                    <ItemRef ItemOID="TS.TSPARMCD.DOSDUR" Mandatory="No"
                         OrderNumber="4" Role="Topic" RoleCodeListOID="ROLECODELIST"/>
                    <ItemRef ItemOID="TS.TSPARMCD.EXPENDTC"
                         Mandatory="No" OrderNumber="5" Role="Topic" RoleCodeListOID="ROLECODELIST"/>
                    <ItemRef ItemOID="TS.TSPARMCD.EXPSTDTC"
                         Mandatory="No" OrderNumber="6" Role="Topic" RoleCodeListOID="ROLECODELIST"/>
                    <ItemRef ItemOID="TS.TSPARMCD.GLPTYP" Mandatory="No"
                         OrderNumber="7" Role="Topic" RoleCodeListOID="ROLECODELIST"/>
                    <ItemRef ItemOID="TS.TSPARMCD.HOUSETYP"
                         Mandatory="No" OrderNumber="8" Role="Topic" RoleCodeListOID="ROLECODELIST"/>
                    <ItemRef ItemOID="TS.TSPARMCD.ROUTE" Mandatory="No"
                         OrderNumber="9" Role="Topic" RoleCodeListOID="ROLECODELIST"/>
                    <ItemRef ItemOID="TS.TSPARMCD.SDESIGN"
                         Mandatory="No" OrderNumber="10" Role="Topic" RoleCodeListOID="ROLECODELIST"/>
                    <ItemRef ItemOID="TS.TSPARMCD.SNDCTVER"
                         Mandatory="No" OrderNumber="11" Role="Topic" RoleCodeListOID="ROLECODELIST"/>
                    <ItemRef ItemOID="TS.TSPARMCD.SNDIGVER"
                         Mandatory="No" OrderNumber="12" Role="Topic" RoleCodeListOID="ROLECODELIST"/>
                    <ItemRef ItemOID="TS.TSPARMCD.SPECIES"
                         Mandatory="No" OrderNumber="13" Role="Topic" RoleCodeListOID="ROLECODELIST"/>
                    <ItemRef ItemOID="TS.TSPARMCD.SPLRNAM"
                         Mandatory="No" OrderNumber="14" Role="Topic" RoleCodeListOID="ROLECODELIST"/>
                    <ItemRef ItemOID="TS.TSPARMCD.SPREFID"
                         Mandatory="No" OrderNumber="15" Role="Topic" RoleCodeListOID="ROLECODELIST"/>
                    <ItemRef ItemOID="TS.TSPARMCD.SSPONSOR"
                         Mandatory="No" OrderNumber="16" Role="Topic" RoleCodeListOID="ROLECODELIST"/>
                    <ItemRef ItemOID="TS.TSPARMCD.SSTYP" Mandatory="No"
                         OrderNumber="17" Role="Topic" RoleCodeListOID="ROLECODELIST"/>
                    <ItemRef ItemOID="TS.TSPARMCD.STCAT" Mandatory="No"
                         OrderNumber="18" Role="Topic" RoleCodeListOID="ROLECODELIST"/>
                    <ItemRef ItemOID="TS.TSPARMCD.STDIR" Mandatory="No"
                         OrderNumber="19" Role="Topic" RoleCodeListOID="ROLECODELIST"/>
                    <ItemRef ItemOID="TS.TSPARMCD.STITLE" Mandatory="No"
                         OrderNumber="20" Role="Topic" RoleCodeListOID="ROLECODELIST"/>
                    <ItemRef ItemOID="TS.TSPARMCD.STRAIN" Mandatory="No"
                         OrderNumber="21" Role="Topic" RoleCodeListOID="ROLECODELIST"/>
                    <ItemRef ItemOID="TS.TSPARMCD.STSTDTC"
                         Mandatory="No" OrderNumber="22" Role="Topic" RoleCodeListOID="ROLECODELIST"/>
                    <ItemRef ItemOID="TS.TSPARMCD.TFCNTRY"
                         Mandatory="No" OrderNumber="23" Role="Topic" RoleCodeListOID="ROLECODELIST"/>
                    <ItemRef ItemOID="TS.TSPARMCD.TRMSAC" Mandatory="No"
                         OrderNumber="24" Role="Topic" RoleCodeListOID="ROLECODELIST"/>
                    <ItemRef ItemOID="TS.TSPARMCD.TRT" Mandatory="No"
                         OrderNumber="25" Role="Topic" RoleCodeListOID="ROLECODELIST"/>
                    <ItemRef ItemOID="TS.TSPARMCD.TRTCAS" Mandatory="No"
                         OrderNumber="26" Role="Topic" RoleCodeListOID="ROLECODELIST"/>
                    <ItemRef ItemOID="TS.TSPARMCD.TRTV" Mandatory="No"
                         OrderNumber="27" Role="Topic" RoleCodeListOID="ROLECODELIST"/>
                    <ItemRef ItemOID="TS.TSPARMCD.TSNAM" Mandatory="No"
                         OrderNumber="28" Role="Topic" RoleCodeListOID="ROLECODELIST"/>
                    <ItemRef ItemOID="TS.TSPARMCD.TSTFLOC"
                         Mandatory="No" OrderNumber="29" Role="Topic" RoleCodeListOID="ROLECODELIST"/>
                    <ItemRef ItemOID="TS.TSPARMCD.TSTFNAM"
                         Mandatory="No" OrderNumber="30" Role="Topic" RoleCodeListOID="ROLECODELIST"/>
               </def:ValueListDef>
               <def:ValueListDef OID="ValueList.TX.TXPARMCD">
                    <ItemRef ItemOID="TX.TXPARMCD.ARMCD" Mandatory="No"
                         OrderNumber="1" Role="Topic" RoleCodeListOID="ROLECODELIST"/>
                    <ItemRef ItemOID="TX.TXPARMCD.GRPLBL" Mandatory="No"
                         OrderNumber="2" Role="Topic" RoleCodeListOID="ROLECODELIST"/>
                    <ItemRef ItemOID="TX.TXPARMCD.SPGRPCD"
                         Mandatory="No" OrderNumber="3" Role="Topic" RoleCodeListOID="ROLECODELIST"/>
                    <ItemRef ItemOID="TX.TXPARMCD.TCNTRL" Mandatory="No"
                         OrderNumber="4" Role="Topic" RoleCodeListOID="ROLECODELIST"/>
                    <ItemRef ItemOID="TX.TXPARMCD.TRTDOS" Mandatory="No"
                         OrderNumber="5" Role="Topic" RoleCodeListOID="ROLECODELIST"/>
                    <ItemRef ItemOID="TX.TXPARMCD.TRTDOSU"
                         Mandatory="No" OrderNumber="6" Role="Topic" RoleCodeListOID="ROLECODELIST"/>
                    <ItemRef ItemOID="TX.TXPARMCD.TRTV" Mandatory="No"
                         OrderNumber="7" Role="Topic" RoleCodeListOID="ROLECODELIST"/>
               </def:ValueListDef>
               <ItemGroupDef IsReferenceData="Yes" Name="TA" OID="TA"
                    Purpose="Tabulation" Repeating="No"
                    def:ArchiveLocationID="Location.TA"
                    def:Class="Trial Design"
                    def:DomainKeys="STUDYID, ARMCD, TAETORD"
                    def:Label="TRIAL ARMS" def:Structure="One record per planned Element per Arm">
                    <ItemRef ItemOID="TA.STUDYID" Mandatory="Yes"
                         OrderNumber="1" Role="Identifier" RoleCodeListOID="ROLECODELIST"/>
                    <ItemRef ItemOID="TA.DOMAIN" Mandatory="Yes"
                         OrderNumber="2" Role="Identifier" RoleCodeListOID="ROLECODELIST"/>
                    <ItemRef ItemOID="TA.ARMCD" Mandatory="Yes"
                         OrderNumber="3" Role="Topic" RoleCodeListOID="ROLECODELIST"/>
                    <ItemRef ItemOID="TA.ARM" Mandatory="Yes"
                         OrderNumber="4" Role="Synonym Qualifier" RoleCodeListOID="ROLECODELIST"/>
                    <ItemRef ItemOID="TA.TAETORD" Mandatory="Yes"
                         OrderNumber="5" Role="Identifier" RoleCodeListOID="ROLECODELIST"/>
                    <ItemRef ItemOID="TA.ETCD" Mandatory="Yes"
                         OrderNumber="6" Role="Record Qualifier" RoleCodeListOID="ROLECODELIST"/>
                    <ItemRef ItemOID="TA.ELEMENT" Mandatory="No"
                         OrderNumber="7" Role="Synonym Qualifier" RoleCodeListOID="ROLECODELIST"/>
                    <ItemRef ItemOID="TA.EPOCH" Mandatory="No"
                         OrderNumber="8" Role="Timing" RoleCodeListOID="ROLECODELIST"/>
                    <def:leaf ID="Location.TA" xlink:href="ta.xpt">
                         <def:title>ta.xpt</def:title>
                    </def:leaf>
               </ItemGroupDef>
               <ItemGroupDef IsReferenceData="Yes" Name="TE" OID="TE"
                    Purpose="Tabulation" Repeating="No"
                    def:ArchiveLocationID="Location.TE"
                    def:Class="Trial Design"
                    def:DomainKeys="STUDYID, ETCD"
                    def:Label="TRIAL ELEMENTS" def:Structure="One record per planned Element">
                    <ItemRef ItemOID="TE.STUDYID" Mandatory="Yes"
                         OrderNumber="1" Role="Identifier" RoleCodeListOID="ROLECODELIST"/>
                    <ItemRef ItemOID="TE.DOMAIN" Mandatory="Yes"
                         OrderNumber="2" Role="Identifier" RoleCodeListOID="ROLECODELIST"/>
                    <ItemRef ItemOID="TE.ETCD" Mandatory="Yes"
                         OrderNumber="3" Role="Topic" RoleCodeListOID="ROLECODELIST"/>
                    <ItemRef ItemOID="TE.ELEMENT" Mandatory="Yes"
                         OrderNumber="4" Role="Synonym Qualifier" RoleCodeListOID="ROLECODELIST"/>
                    <ItemRef ItemOID="TE.TESTRL" Mandatory="Yes"
                         OrderNumber="5" Role="Rule" RoleCodeListOID="ROLECODELIST"/>
                    <ItemRef ItemOID="TE.TEENRL" Mandatory="No"
                         OrderNumber="6" Role="Rule" RoleCodeListOID="ROLECODELIST"/>
                    <ItemRef ItemOID="TE.TEDUR" Mandatory="No"
                         OrderNumber="7" Role="Timing" RoleCodeListOID="ROLECODELIST"/>
                    <def:leaf ID="Location.TE" xlink:href="te.xpt">
                         <def:title>te.xpt</def:title>
                    </def:leaf>
               </ItemGroupDef>
               <ItemGroupDef IsReferenceData="Yes" Name="TS" OID="TS"
                    Purpose="Tabulation" Repeating="No"
                    def:ArchiveLocationID="Location.TS"
                    def:Class="Trial Design"
                    def:DomainKeys="STUDYID, TSPARMCD, TSSEQ"
                    def:Label="TRIAL SUMMARY" def:Structure="One record per trial summary parameter value">
                    <ItemRef ItemOID="TS.STUDYID" Mandatory="Yes"
                         OrderNumber="1" Role="Identifier" RoleCodeListOID="ROLECODELIST"/>
                    <ItemRef ItemOID="TS.DOMAIN" Mandatory="Yes"
                         OrderNumber="2" Role="Identifier" RoleCodeListOID="ROLECODELIST"/>
                    <ItemRef ItemOID="TS.TSSEQ" Mandatory="Yes"
                         OrderNumber="3" Role="Identifier" RoleCodeListOID="ROLECODELIST"/>
                    <ItemRef ItemOID="TS.TSGRPID" Mandatory="No"
                         OrderNumber="4" Role="Identifier" RoleCodeListOID="ROLECODELIST"/>
                    <ItemRef ItemOID="TS.TSPARMCD" Mandatory="Yes"
                         OrderNumber="5" Role="Topic" RoleCodeListOID="ROLECODELIST"/>
                    <ItemRef ItemOID="TS.TSPARM" Mandatory="Yes"
                         OrderNumber="6" Role="Synonym Qualifier" RoleCodeListOID="ROLECODELIST"/>
                    <ItemRef ItemOID="TS.TSVAL" Mandatory="Yes"
                         OrderNumber="7" Role="Result Qualifier" RoleCodeListOID="ROLECODELIST"/>
                    <def:leaf ID="Location.TS" xlink:href="ts.xpt">
                         <def:title>ts.xpt</def:title>
                    </def:leaf>
               </ItemGroupDef>
               <ItemGroupDef IsReferenceData="Yes" Name="TX" OID="TX"
                    Purpose="Tabulation" Repeating="No"
                    def:ArchiveLocationID="Location.TX"
                    def:Class="Trial Design"
                    def:DomainKeys="STUDYID, SETCD, TXPARMCD, TXSEQ"
                    def:Label="TRIAL SETS" def:Structure="One record per trial set parameter per trial set">
                    <ItemRef ItemOID="TX.STUDYID" Mandatory="Yes"
                         OrderNumber="1" Role="Identifier" RoleCodeListOID="ROLECODELIST"/>
                    <ItemRef ItemOID="TX.DOMAIN" Mandatory="Yes"
                         OrderNumber="2" Role="Identifier" RoleCodeListOID="ROLECODELIST"/>
                    <ItemRef ItemOID="TX.SETCD" Mandatory="Yes"
                         OrderNumber="3" Role="Identifier" RoleCodeListOID="ROLECODELIST"/>
                    <ItemRef ItemOID="TX.SET" Mandatory="Yes"
                         OrderNumber="4" Role="Synonym Qualifier" RoleCodeListOID="ROLECODELIST"/>
                    <ItemRef ItemOID="TX.TXSEQ" Mandatory="Yes"
                         OrderNumber="5" Role="Identifier" RoleCodeListOID="ROLECODELIST"/>
                    <ItemRef ItemOID="TX.TXPARMCD" Mandatory="Yes"
                         OrderNumber="6" Role="Topic" RoleCodeListOID="ROLECODELIST"/>
                    <ItemRef ItemOID="TX.TXPARM" Mandatory="Yes"
                         OrderNumber="7" Role="Synonym Qualifier" RoleCodeListOID="ROLECODELIST"/>
                    <ItemRef ItemOID="TX.TXVAL" Mandatory="Yes"
                         OrderNumber="8" Role="Result Qualifier" RoleCodeListOID="ROLECODELIST"/>
                    <def:leaf ID="Location.TX" xlink:href="tx.xpt">
                         <def:title>tx.xpt</def:title>
                    </def:leaf>
               </ItemGroupDef>
               <ItemGroupDef IsReferenceData="No" Name="CO" OID="CO"
                    Purpose="Tabulation" Repeating="Yes"
                    def:ArchiveLocationID="Location.CO"
                    def:Class="Special-Purpose"
                    def:DomainKeys="STUDYID, USUBJID, COSEQ"
                    def:Label="COMMENTS" def:Structure="One record per comment">
                    <ItemRef ItemOID="CO.STUDYID" Mandatory="Yes"
                         OrderNumber="1" Role="Identifier" RoleCodeListOID="ROLECODELIST"/>
                    <ItemRef ItemOID="CO.DOMAIN" Mandatory="Yes"
                         OrderNumber="2" Role="Identifier" RoleCodeListOID="ROLECODELIST"/>
                    <ItemRef ItemOID="CO.RDOMAIN" Mandatory="No"
                         OrderNumber="3" Role="Record Qualifier" RoleCodeListOID="ROLECODELIST"/>
                    <ItemRef ItemOID="CO.USUBJID" Mandatory="No"
                         OrderNumber="4" Role="Identifier" RoleCodeListOID="ROLECODELIST"/>
                    <ItemRef ItemOID="CO.COSEQ" Mandatory="Yes"
                         OrderNumber="5" Role="Identifier" RoleCodeListOID="ROLECODELIST"/>
                    <ItemRef ItemOID="CO.IDVAR" Mandatory="No"
                         OrderNumber="6" Role="Record Qualifier" RoleCodeListOID="ROLECODELIST"/>
                    <ItemRef ItemOID="CO.IDVARVAL" Mandatory="No"
                         OrderNumber="7" Role="Record Qualifier" RoleCodeListOID="ROLECODELIST"/>
                    <ItemRef ItemOID="CO.COVAL" Mandatory="Yes"
                         OrderNumber="8" Role="Topic" RoleCodeListOID="ROLECODELIST"/>
                    <ItemRef ItemOID="CO.COVAL1" Mandatory="Yes"
                         OrderNumber="9" Role="Topic" RoleCodeListOID="ROLECODELIST"/>
                    <ItemRef ItemOID="CO.CODTC" Mandatory="No"
                         OrderNumber="10" Role="Timing" RoleCodeListOID="ROLECODELIST"/>
                    <def:leaf ID="Location.CO" xlink:href="co.xpt">
                         <def:title>co.xpt</def:title>
                    </def:leaf>
               </ItemGroupDef>
               <ItemGroupDef IsReferenceData="No" Name="DM" OID="DM"
                    Purpose="Tabulation" Repeating="No"
                    def:ArchiveLocationID="Location.DM"
                    def:Class="Special-Purpose"
                    def:DomainKeys="STUDYID, DOMAIN, USUBJID"
                    def:Label="DEMOGRAPHICS" def:Structure="One record per subject">
                    <ItemRef ItemOID="DM.STUDYID" Mandatory="Yes"
                         OrderNumber="1" Role="Identifier" RoleCodeListOID="ROLECODELIST"/>
                    <ItemRef ItemOID="DM.DOMAIN" Mandatory="Yes"
                         OrderNumber="2" Role="Identifier" RoleCodeListOID="ROLECODELIST"/>
                    <ItemRef ItemOID="DM.USUBJID" Mandatory="Yes"
                         OrderNumber="3" Role="Identifier" RoleCodeListOID="ROLECODELIST"/>
                    <ItemRef ItemOID="DM.SUBJID" Mandatory="Yes"
                         OrderNumber="4" Role="Topic" RoleCodeListOID="ROLECODELIST"/>
                    <ItemRef ItemOID="DM.RFSTDTC" Mandatory="Yes"
                         OrderNumber="5" Role="Record Qualifier" RoleCodeListOID="ROLECODELIST"/>
                    <ItemRef ItemOID="DM.RFENDTC" Mandatory="No"
                         OrderNumber="6" Role="Record Qualifier" RoleCodeListOID="ROLECODELIST"/>
                    <ItemRef ItemOID="DM.SITEID" Mandatory="No"
                         OrderNumber="7" Role="Record Qualifier" RoleCodeListOID="ROLECODELIST"/>
                    <ItemRef ItemOID="DM.BRTHDTC" Mandatory="No"
                         OrderNumber="8" Role="Record Qualifier" RoleCodeListOID="ROLECODELIST"/>
                    <ItemRef ItemOID="DM.AGE" Mandatory="No"
                         OrderNumber="9" Role="Record Qualifier" RoleCodeListOID="ROLECODELIST"/>
                    <ItemRef ItemOID="DM.AGEU" Mandatory="No"
                         OrderNumber="10" Role="Variable Qualifier" RoleCodeListOID="ROLECODELIST"/>
                    <ItemRef ItemOID="DM.SEX" Mandatory="Yes"
                         OrderNumber="11" Role="Record Qualifier" RoleCodeListOID="ROLECODELIST"/>
                    <ItemRef ItemOID="DM.ARMCD" Mandatory="No"
                         OrderNumber="12" Role="Record Qualifier" RoleCodeListOID="ROLECODELIST"/>
                    <ItemRef ItemOID="DM.ARM" Mandatory="No"
                         OrderNumber="13" Role="Synonym Qualifier" RoleCodeListOID="ROLECODELIST"/>
                    <ItemRef ItemOID="DM.SETCD" Mandatory="Yes"
                         OrderNumber="14" Role="Record Qualifier" RoleCodeListOID="ROLECODELIST"/>
                    <def:leaf ID="Location.DM" xlink:href="dm.xpt">
                         <def:title>dm.xpt</def:title>
                    </def:leaf>
               </ItemGroupDef>
               <ItemGroupDef IsReferenceData="No" Name="SE" OID="SE"
                    Purpose="Tabulation" Repeating="Yes"
                    def:ArchiveLocationID="Location.SE"
                    def:Class="Special-Purpose"
                    def:DomainKeys="STUDYID, USUBJID, ETCD, SESTDTC"
                    def:Label="SUBJECT ELEMENTS" def:Structure="One record per element experienced per subject">
                    <ItemRef ItemOID="SE.STUDYID" Mandatory="Yes"
                         OrderNumber="1" Role="Identifier" RoleCodeListOID="ROLECODELIST"/>
                    <ItemRef ItemOID="SE.DOMAIN" Mandatory="Yes"
                         OrderNumber="2" Role="Identifier" RoleCodeListOID="ROLECODELIST"/>
                    <ItemRef ItemOID="SE.USUBJID" Mandatory="Yes"
                         OrderNumber="3" Role="Identifier" RoleCodeListOID="ROLECODELIST"/>
                    <ItemRef ItemOID="SE.SESEQ" Mandatory="Yes"
                         OrderNumber="4" Role="Identifier" RoleCodeListOID="ROLECODELIST"/>
                    <ItemRef ItemOID="SE.ETCD" Mandatory="Yes"
                         OrderNumber="5" Role="Topic" RoleCodeListOID="ROLECODELIST"/>
                    <ItemRef ItemOID="SE.ELEMENT" Mandatory="No"
                         OrderNumber="6" Role="Synonym Qualifier" RoleCodeListOID="ROLECODELIST"/>
                    <ItemRef ItemOID="SE.SESTDTC" Mandatory="Yes"
                         OrderNumber="7" Role="Timing" RoleCodeListOID="ROLECODELIST"/>
                    <ItemRef ItemOID="SE.SEENDTC" Mandatory="No"
                         OrderNumber="8" Role="Timing" RoleCodeListOID="ROLECODELIST"/>
                    <def:leaf ID="Location.SE" xlink:href="se.xpt">
                         <def:title>se.xpt</def:title>
                    </def:leaf>
               </ItemGroupDef>
               <ItemGroupDef IsReferenceData="No" Name="EX" OID="EX"
                    Purpose="Tabulation" Repeating="Yes"
                    def:ArchiveLocationID="Location.EX"
                    def:Class="Interventions"
                    def:DomainKeys="STUDYID, USUBJID, POOLID, EXTRT, EXROUTE, EXTRTV, EXSTDTC"
                    def:Label="EXPOSURE" def:Structure="One record per constant dosing interval per treatment per subject or pool">
                    <ItemRef ItemOID="EX.STUDYID" Mandatory="Yes"
                         OrderNumber="1" Role="Identifier" RoleCodeListOID="ROLECODELIST"/>
                    <ItemRef ItemOID="EX.DOMAIN" Mandatory="Yes"
                         OrderNumber="2" Role="Identifier" RoleCodeListOID="ROLECODELIST"/>
                    <ItemRef ItemOID="EX.USUBJID" Mandatory="No"
                         OrderNumber="3" Role="Identifier" RoleCodeListOID="ROLECODELIST"/>
                    <ItemRef ItemOID="EX.EXSEQ" Mandatory="Yes"
                         OrderNumber="4" Role="Identifier" RoleCodeListOID="ROLECODELIST"/>
                    <ItemRef ItemOID="EX.EXTRT" Mandatory="Yes"
                         OrderNumber="5" Role="Topic" RoleCodeListOID="ROLECODELIST"/>
                    <ItemRef ItemOID="EX.EXDOSE" Mandatory="No"
                         OrderNumber="6" Role="Record Qualifier" RoleCodeListOID="ROLECODELIST"/>
                    <ItemRef ItemOID="EX.EXDOSU" Mandatory="No"
                         OrderNumber="7" Role="Variable Qualifier" RoleCodeListOID="ROLECODELIST"/>
                    <ItemRef ItemOID="EX.EXDOSFRM" Mandatory="No"
                         OrderNumber="8" Role="Record Qualifier" RoleCodeListOID="ROLECODELIST"/>
                    <ItemRef ItemOID="EX.EXDOSFRQ" Mandatory="Yes"
                         OrderNumber="9" Role="Variable Qualifier" RoleCodeListOID="ROLECODELIST"/>
                    <ItemRef ItemOID="EX.EXROUTE" Mandatory="Yes"
                         OrderNumber="10" Role="Variable Qualifier" RoleCodeListOID="ROLECODELIST"/>
                    <ItemRef ItemOID="EX.EXLOT" Mandatory="No"
                         OrderNumber="11" Role="Record Qualifier" RoleCodeListOID="ROLECODELIST"/>
                    <ItemRef ItemOID="EX.EXTRTV" Mandatory="No"
                         OrderNumber="12" Role="Record Qualifier" RoleCodeListOID="ROLECODELIST"/>
                    <ItemRef ItemOID="EX.EXVAMT" Mandatory="No"
                         OrderNumber="13" Role="Variable Qualifier" RoleCodeListOID="ROLECODELIST"/>
                    <ItemRef ItemOID="EX.EXVAMTU" Mandatory="No"
                         OrderNumber="14" Role="Variable Qualifier" RoleCodeListOID="ROLECODELIST"/>
                    <ItemRef ItemOID="EX.EXSTDTC" Mandatory="No"
                         OrderNumber="15" Role="Timing" RoleCodeListOID="ROLECODELIST"/>
                    <ItemRef ItemOID="EX.EXSTDY" Mandatory="No"
                         OrderNumber="16" Role="Timing" RoleCodeListOID="ROLECODELIST"/>
                    <def:leaf ID="Location.EX" xlink:href="ex.xpt">
                         <def:title>ex.xpt</def:title>
                    </def:leaf>
               </ItemGroupDef>
               <ItemGroupDef IsReferenceData="No" Name="DS" OID="DS"
                    Purpose="Tabulation" Repeating="No"
                    def:ArchiveLocationID="Location.DS"
                    def:Class="Events"
                    def:DomainKeys="STUDYID, DOMAIN, USUBJID"
                    def:Label="DISPOSITION" def:Structure="One record per subject">
                    <ItemRef ItemOID="DS.STUDYID" Mandatory="Yes"
                         OrderNumber="1" Role="Identifier" RoleCodeListOID="ROLECODELIST"/>
                    <ItemRef ItemOID="DS.DOMAIN" Mandatory="Yes"
                         OrderNumber="2" Role="Identifier" RoleCodeListOID="ROLECODELIST"/>
                    <ItemRef ItemOID="DS.USUBJID" Mandatory="Yes"
                         OrderNumber="3" Role="Identifier" RoleCodeListOID="ROLECODELIST"/>
                    <ItemRef ItemOID="DS.DSSEQ" Mandatory="Yes"
                         OrderNumber="4" Role="Identifier" RoleCodeListOID="ROLECODELIST"/>
                    <ItemRef ItemOID="DS.DSTERM" Mandatory="Yes"
                         OrderNumber="5" Role="Topic" RoleCodeListOID="ROLECODELIST"/>
                    <ItemRef ItemOID="DS.DSDECOD" Mandatory="Yes"
                         OrderNumber="6" Role="Synonym Qualifier" RoleCodeListOID="ROLECODELIST"/>
                    <ItemRef ItemOID="DS.VISITDY" Mandatory="No"
                         OrderNumber="7" Role="Timing" RoleCodeListOID="ROLECODELIST"/>
                    <ItemRef ItemOID="DS.DSSTDTC" Mandatory="Yes"
                         OrderNumber="8" Role="Timing" RoleCodeListOID="ROLECODELIST"/>
                    <ItemRef ItemOID="DS.DSSTDY" Mandatory="No"
                         OrderNumber="9" Role="Timing" RoleCodeListOID="ROLECODELIST"/>
                    <def:leaf ID="Location.DS" xlink:href="ds.xpt">
                         <def:title>ds.xpt</def:title>
                    </def:leaf>
               </ItemGroupDef>
               <ItemGroupDef IsReferenceData="No" Name="BG" OID="BG"
                    Purpose="Tabulation" Repeating="Yes"
                    def:ArchiveLocationID="Location.BG"
                    def:Class="Findings"
                    def:DomainKeys="STUDYID, USUBJID, BGTESTCD, BGDTC, BGENDTC"
                    def:Label="BODY WEIGHT GAIN" def:Structure="One record per test per interval per subject">
                    <ItemRef ItemOID="BG.STUDYID" Mandatory="Yes"
                         OrderNumber="1" Role="Identifier" RoleCodeListOID="ROLECODELIST"/>
                    <ItemRef ItemOID="BG.DOMAIN" Mandatory="Yes"
                         OrderNumber="2" Role="Identifier" RoleCodeListOID="ROLECODELIST"/>
                    <ItemRef ItemOID="BG.USUBJID" Mandatory="Yes"
                         OrderNumber="3" Role="Identifier" RoleCodeListOID="ROLECODELIST"/>
                    <ItemRef ItemOID="BG.BGSEQ" Mandatory="Yes"
                         OrderNumber="4" Role="Identifier" RoleCodeListOID="ROLECODELIST"/>
                    <ItemRef ItemOID="BG.BGTESTCD" Mandatory="Yes"
                         OrderNumber="5" Role="Topic" RoleCodeListOID="ROLECODELIST"/>
                    <ItemRef ItemOID="BG.BGTEST" Mandatory="Yes"
                         OrderNumber="6" Role="Synonym Qualifier" RoleCodeListOID="ROLECODELIST"/>
                    <ItemRef ItemOID="BG.BGORRES" Mandatory="No"
                         OrderNumber="7" Role="Result Qualifier" RoleCodeListOID="ROLECODELIST"/>
                    <ItemRef ItemOID="BG.BGORRESU" Mandatory="No"
                         OrderNumber="8" Role="Variable Qualifier" RoleCodeListOID="ROLECODELIST"/>
                    <ItemRef ItemOID="BG.BGSTRESC" Mandatory="No"
                         OrderNumber="9" Role="Result Qualifier" RoleCodeListOID="ROLECODELIST"/>
                    <ItemRef ItemOID="BG.BGSTRESN" Mandatory="No"
                         OrderNumber="10" Role="Result Qualifier" RoleCodeListOID="ROLECODELIST"/>
                    <ItemRef ItemOID="BG.BGSTRESU" Mandatory="No"
                         OrderNumber="11" Role="Variable Qualifier" RoleCodeListOID="ROLECODELIST"/>
                    <ItemRef ItemOID="BG.BGDTC" Mandatory="No"
                         OrderNumber="12" Role="Timing" RoleCodeListOID="ROLECODELIST"/>
                    <ItemRef ItemOID="BG.BGENDTC" Mandatory="No"
                         OrderNumber="13" Role="Timing" RoleCodeListOID="ROLECODELIST"/>
                    <ItemRef ItemOID="BG.BGDY" Mandatory="No"
                         OrderNumber="14" Role="Timing" RoleCodeListOID="ROLECODELIST"/>
                    <ItemRef ItemOID="BG.BGENDY" Mandatory="No"
                         OrderNumber="15" Role="Timing" RoleCodeListOID="ROLECODELIST"/>
                    <ItemRef ItemOID="BG.BGELTM" Mandatory="No"
                         OrderNumber="16" Role="Timing" RoleCodeListOID="ROLECODELIST"/>
                    <def:leaf ID="Location.BG" xlink:href="bg.xpt">
                         <def:title>bg.xpt</def:title>
                    </def:leaf>
               </ItemGroupDef>
               <ItemGroupDef IsReferenceData="No" Name="BW" OID="BW"
                    Purpose="Tabulation" Repeating="Yes"
                    def:ArchiveLocationID="Location.BW"
                    def:Class="Findings"
                    def:DomainKeys="STUDYID, USUBJID, BWTESTCD, BWDTC"
                    def:Label="BODY WEIGHT" def:Structure="One record per test per observation time per subject">
                    <ItemRef ItemOID="BW.STUDYID" Mandatory="Yes"
                         OrderNumber="1" Role="Identifier" RoleCodeListOID="ROLECODELIST"/>
                    <ItemRef ItemOID="BW.DOMAIN" Mandatory="Yes"
                         OrderNumber="2" Role="Identifier" RoleCodeListOID="ROLECODELIST"/>
                    <ItemRef ItemOID="BW.USUBJID" Mandatory="Yes"
                         OrderNumber="3" Role="Identifier" RoleCodeListOID="ROLECODELIST"/>
                    <ItemRef ItemOID="BW.BWSEQ" Mandatory="Yes"
                         OrderNumber="4" Role="Identifier" RoleCodeListOID="ROLECODELIST"/>
                    <ItemRef ItemOID="BW.BWTESTCD" Mandatory="Yes"
                         OrderNumber="5" Role="Topic" RoleCodeListOID="ROLECODELIST"/>
                    <ItemRef ItemOID="BW.BWTEST" Mandatory="Yes"
                         OrderNumber="6" Role="Synonym Qualifier" RoleCodeListOID="ROLECODELIST"/>
                    <ItemRef ItemOID="BW.BWORRES" Mandatory="No"
                         OrderNumber="7" Role="Result Qualifier" RoleCodeListOID="ROLECODELIST"/>
                    <ItemRef ItemOID="BW.BWORRESU" Mandatory="No"
                         OrderNumber="8" Role="Variable Qualifier" RoleCodeListOID="ROLECODELIST"/>
                    <ItemRef ItemOID="BW.BWSTRESC" Mandatory="No"
                         OrderNumber="9" Role="Result Qualifier" RoleCodeListOID="ROLECODELIST"/>
                    <ItemRef ItemOID="BW.BWSTRESN" Mandatory="No"
                         OrderNumber="10" Role="Result Qualifier" RoleCodeListOID="ROLECODELIST"/>
                    <ItemRef ItemOID="BW.BWSTRESU" Mandatory="No"
                         OrderNumber="11" Role="Variable Qualifier" RoleCodeListOID="ROLECODELIST"/>
                    <ItemRef ItemOID="BW.BWBLFL" Mandatory="No"
                         OrderNumber="12" Role="Record Qualifier" RoleCodeListOID="ROLECODELIST"/>
                    <ItemRef ItemOID="BW.VISITDY" Mandatory="No"
                         OrderNumber="13" Role="Timing" RoleCodeListOID="ROLECODELIST"/>
                    <ItemRef ItemOID="BW.BWDTC" Mandatory="No"
                         OrderNumber="14" Role="Timing" RoleCodeListOID="ROLECODELIST"/>
                    <ItemRef ItemOID="BW.BWDY" Mandatory="No"
                         OrderNumber="15" Role="Timing" RoleCodeListOID="ROLECODELIST"/>
                    <def:leaf ID="Location.BW" xlink:href="bw.xpt">
                         <def:title>bw.xpt</def:title>
                    </def:leaf>
               </ItemGroupDef>
               <ItemGroupDef IsReferenceData="No" Name="CL" OID="CL"
                    Purpose="Tabulation" Repeating="Yes"
                    def:ArchiveLocationID="Location.CL"
                    def:Class="Findings"
                    def:DomainKeys="STUDYID, USUBJID, POOLID, CLTESTCD, CLCAT, CLORRES, CLDTC, CLTPT"
                    def:Label="CLINICAL OBSERVATIONS" def:Structure="One record per finding per observation time per subject or pool">
                    <ItemRef ItemOID="CL.STUDYID" Mandatory="Yes"
                         OrderNumber="1" Role="Identifier" RoleCodeListOID="ROLECODELIST"/>
                    <ItemRef ItemOID="CL.DOMAIN" Mandatory="Yes"
                         OrderNumber="2" Role="Identifier" RoleCodeListOID="ROLECODELIST"/>
                    <ItemRef ItemOID="CL.USUBJID" Mandatory="No"
                         OrderNumber="3" Role="Identifier" RoleCodeListOID="ROLECODELIST"/>
                    <ItemRef ItemOID="CL.CLSEQ" Mandatory="Yes"
                         OrderNumber="4" Role="Identifier" RoleCodeListOID="ROLECODELIST"/>
                    <ItemRef ItemOID="CL.CLGRPID" Mandatory="No"
                         OrderNumber="5" Role="Identifier" RoleCodeListOID="ROLECODELIST"/>
                    <ItemRef ItemOID="CL.CLTESTCD" Mandatory="Yes"
                         OrderNumber="6" Role="Topic" RoleCodeListOID="ROLECODELIST"/>
                    <ItemRef ItemOID="CL.CLTEST" Mandatory="Yes"
                         OrderNumber="7" Role="Synonym Qualifier" RoleCodeListOID="ROLECODELIST"/>
                    <ItemRef ItemOID="CL.CLCAT" Mandatory="Yes"
                         OrderNumber="8" Role="Grouping Qualifier" RoleCodeListOID="ROLECODELIST"/>
                    <ItemRef ItemOID="CL.CLSCAT" Mandatory="No"
                         OrderNumber="9" Role="Grouping Qualifier" RoleCodeListOID="ROLECODELIST"/>
                    <ItemRef ItemOID="CL.CLORRES" Mandatory="No"
                         OrderNumber="10" Role="Result Qualifier" RoleCodeListOID="ROLECODELIST"/>
                    <ItemRef ItemOID="CL.CLSTRESC" Mandatory="No"
                         OrderNumber="11" Role="Result Qualifier" RoleCodeListOID="ROLECODELIST"/>
                    <ItemRef ItemOID="CL.CLLOC" Mandatory="No"
                         OrderNumber="12" Role="Record Qualifier" RoleCodeListOID="ROLECODELIST"/>
                    <ItemRef ItemOID="CL.CLSEV" Mandatory="No"
                         OrderNumber="13" Role="Record Qualifier" RoleCodeListOID="ROLECODELIST"/>
                    <ItemRef ItemOID="CL.VISITDY" Mandatory="No"
                         OrderNumber="14" Role="Timing" RoleCodeListOID="ROLECODELIST"/>
                    <ItemRef ItemOID="CL.CLDTC" Mandatory="No"
                         OrderNumber="15" Role="Timing" RoleCodeListOID="ROLECODELIST"/>
                    <ItemRef ItemOID="CL.CLDY" Mandatory="No"
                         OrderNumber="16" Role="Timing" RoleCodeListOID="ROLECODELIST"/>
                    <ItemRef ItemOID="CL.CLTPT" Mandatory="No"
                         OrderNumber="17" Role="Timing" RoleCodeListOID="ROLECODELIST"/>
                    <ItemRef ItemOID="CL.CLTPTNUM" Mandatory="No"
                         OrderNumber="18" Role="Timing" RoleCodeListOID="ROLECODELIST"/>
                    <def:leaf ID="Location.CL" xlink:href="cl.xpt">
                         <def:title>cl.xpt</def:title>
                    </def:leaf>
               </ItemGroupDef>
               <ItemGroupDef IsReferenceData="No" Name="LB" OID="LB"
                    Purpose="Tabulation" Repeating="Yes"
                    def:ArchiveLocationID="Location.LB"
                    def:Class="Findings"
                    def:DomainKeys="STUDYID, USUBJID, POOLID, LBTESTCD, LBSPEC, LBMETHOD, LBSTRESU, LBDTC, LBENDTC, LBTPTNUM"
                    def:Label="LABORATORY TEST RESULTS" def:Structure="One record per test per specimen per observation time per subject or pool">
                    <ItemRef ItemOID="LB.STUDYID" Mandatory="Yes"
                         OrderNumber="1" Role="Identifier" RoleCodeListOID="ROLECODELIST"/>
                    <ItemRef ItemOID="LB.DOMAIN" Mandatory="Yes"
                         OrderNumber="2" Role="Identifier" RoleCodeListOID="ROLECODELIST"/>
                    <ItemRef ItemOID="LB.USUBJID" Mandatory="No"
                         OrderNumber="3" Role="Identifier" RoleCodeListOID="ROLECODELIST"/>
                    <ItemRef ItemOID="LB.LBSEQ" Mandatory="Yes"
                         OrderNumber="4" Role="Identifier" RoleCodeListOID="ROLECODELIST"/>
                    <ItemRef ItemOID="LB.LBGRPID" Mandatory="No"
                         OrderNumber="5" Role="Identifier" RoleCodeListOID="ROLECODELIST"/>
                    <ItemRef ItemOID="LB.LBREFID" Mandatory="No"
                         OrderNumber="6" Role="Identifier" RoleCodeListOID="ROLECODELIST"/>
                    <ItemRef ItemOID="LB.LBTESTCD" Mandatory="Yes"
                         OrderNumber="7" Role="Topic" RoleCodeListOID="ROLECODELIST"/>
                    <ItemRef ItemOID="LB.LBTEST" Mandatory="Yes"
                         OrderNumber="8" Role="Synonym Qualifier" RoleCodeListOID="ROLECODELIST"/>
                    <ItemRef ItemOID="LB.LBCAT" Mandatory="No"
                         OrderNumber="9" Role="Grouping Qualifier" RoleCodeListOID="ROLECODELIST"/>
                    <ItemRef ItemOID="LB.LBSCAT" Mandatory="No"
                         OrderNumber="10" Role="Grouping Qualifier" RoleCodeListOID="ROLECODELIST"/>
                    <ItemRef ItemOID="LB.LBORRES" Mandatory="No"
                         OrderNumber="11" Role="Result Qualifier" RoleCodeListOID="ROLECODELIST"/>
                    <ItemRef ItemOID="LB.LBORRESU" Mandatory="No"
                         OrderNumber="12" Role="Variable Qualifier" RoleCodeListOID="ROLECODELIST"/>
                    <ItemRef ItemOID="LB.LBSTRESC" Mandatory="No"
                         OrderNumber="13" Role="Result Qualifier" RoleCodeListOID="ROLECODELIST"/>
                    <ItemRef ItemOID="LB.LBSTRESN" Mandatory="No"
                         OrderNumber="14" Role="Result Qualifier" RoleCodeListOID="ROLECODELIST"/>
                    <ItemRef ItemOID="LB.LBSTRESU" Mandatory="No"
                         OrderNumber="15" Role="Variable Qualifier" RoleCodeListOID="ROLECODELIST"/>
                    <ItemRef ItemOID="LB.LBSPEC" Mandatory="No"
                         OrderNumber="16" Role="Record Qualifier" RoleCodeListOID="ROLECODELIST"/>
                    <ItemRef ItemOID="LB.LBMETHOD" Mandatory="No"
                         OrderNumber="17" Role="Record Qualifier" RoleCodeListOID="ROLECODELIST"/>
                    <ItemRef ItemOID="LB.LBBLFL" Mandatory="No"
                         OrderNumber="18" Role="Record Qualifier" RoleCodeListOID="ROLECODELIST"/>
                    <ItemRef ItemOID="LB.VISITDY" Mandatory="No"
                         OrderNumber="19" Role="Timing" RoleCodeListOID="ROLECODELIST"/>
                    <ItemRef ItemOID="LB.LBDTC" Mandatory="No"
                         OrderNumber="20" Role="Timing" RoleCodeListOID="ROLECODELIST"/>
                    <ItemRef ItemOID="LB.LBDY" Mandatory="No"
                         OrderNumber="21" Role="Timing" RoleCodeListOID="ROLECODELIST"/>
                    <ItemRef ItemOID="LB.LBTPT" Mandatory="No"
                         OrderNumber="22" Role="Timing" RoleCodeListOID="ROLECODELIST"/>
                    <ItemRef ItemOID="LB.LBTPTNUM" Mandatory="No"
                         OrderNumber="23" Role="Timing" RoleCodeListOID="ROLECODELIST"/>
                    <def:leaf ID="Location.LB" xlink:href="lb.xpt">
                         <def:title>lb.xpt</def:title>
                    </def:leaf>
               </ItemGroupDef>
               <ItemGroupDef IsReferenceData="No" Name="MA" OID="MA"
                    Purpose="Tabulation" Repeating="Yes"
                    def:ArchiveLocationID="Location.MA"
                    def:Class="Findings"
                    def:DomainKeys="STUDYID, USUBJID, MATESTCD, MASPEC, MAANTREG, MALAT, MADIR, MAPORTOT, MASTRESC"
                    def:Label="MACROSCOPIC FINDINGS" def:Structure="One record per finding per specimen per subject">
                    <ItemRef ItemOID="MA.STUDYID" Mandatory="Yes"
                         OrderNumber="1" Role="Identifier" RoleCodeListOID="ROLECODELIST"/>
                    <ItemRef ItemOID="MA.DOMAIN" Mandatory="Yes"
                         OrderNumber="2" Role="Identifier" RoleCodeListOID="ROLECODELIST"/>
                    <ItemRef ItemOID="MA.USUBJID" Mandatory="Yes"
                         OrderNumber="3" Role="Identifier" RoleCodeListOID="ROLECODELIST"/>
                    <ItemRef ItemOID="MA.MASEQ" Mandatory="Yes"
                         OrderNumber="4" Role="Identifier" RoleCodeListOID="ROLECODELIST"/>
                    <ItemRef ItemOID="MA.MAGRPID" Mandatory="No"
                         OrderNumber="5" Role="Identifier" RoleCodeListOID="ROLECODELIST"/>
                    <ItemRef ItemOID="MA.MAREFID" Mandatory="No"
                         OrderNumber="6" Role="Identifier" RoleCodeListOID="ROLECODELIST"/>
                    <ItemRef ItemOID="MA.MATESTCD" Mandatory="Yes"
                         OrderNumber="7" Role="Topic" RoleCodeListOID="ROLECODELIST"/>
                    <ItemRef ItemOID="MA.MATEST" Mandatory="Yes"
                         OrderNumber="8" Role="Synonym Qualifier" RoleCodeListOID="ROLECODELIST"/>
                    <ItemRef ItemOID="MA.MAORRES" Mandatory="No"
                         OrderNumber="9" Role="Result Qualifier" RoleCodeListOID="ROLECODELIST"/>
                    <ItemRef ItemOID="MA.MASTRESC" Mandatory="No"
                         OrderNumber="10" Role="Result Qualifier" RoleCodeListOID="ROLECODELIST"/>
                    <ItemRef ItemOID="MA.MASPEC" Mandatory="No"
                         OrderNumber="11" Role="Record Qualifier" RoleCodeListOID="ROLECODELIST"/>
                    <ItemRef ItemOID="MA.MAANTREG" Mandatory="No"
                         OrderNumber="12" Role="Variable Qualifier" RoleCodeListOID="ROLECODELIST"/>
                    <ItemRef ItemOID="MA.MASEV" Mandatory="No"
                         OrderNumber="13" Role="Record Qualifier" RoleCodeListOID="ROLECODELIST"/>
                    <ItemRef ItemOID="MA.MADTC" Mandatory="No"
                         OrderNumber="14" Role="Timing" RoleCodeListOID="ROLECODELIST"/>
                    <ItemRef ItemOID="MA.MADY" Mandatory="No"
                         OrderNumber="15" Role="Timing" RoleCodeListOID="ROLECODELIST"/>
                    <def:leaf ID="Location.MA" xlink:href="ma.xpt">
                         <def:title>ma.xpt</def:title>
                    </def:leaf>
               </ItemGroupDef>
               <ItemGroupDef IsReferenceData="No" Name="MI" OID="MI"
                    Purpose="Tabulation" Repeating="Yes"
                    def:ArchiveLocationID="Location.MI"
                    def:Class="Findings"
                    def:DomainKeys="STUDYID, USUBJID, MITESTCD, MISPEC, MIANTREG, MILAT, MIDIR, MISTRESC, MIMETHOD"
                    def:Label="MICROSCOPIC FINDINGS" def:Structure="One record per finding per specimen per subject">
                    <ItemRef ItemOID="MI.STUDYID" Mandatory="Yes"
                         OrderNumber="1" Role="Identifier" RoleCodeListOID="ROLECODELIST"/>
                    <ItemRef ItemOID="MI.DOMAIN" Mandatory="Yes"
                         OrderNumber="2" Role="Identifier" RoleCodeListOID="ROLECODELIST"/>
                    <ItemRef ItemOID="MI.USUBJID" Mandatory="Yes"
                         OrderNumber="3" Role="Identifier" RoleCodeListOID="ROLECODELIST"/>
                    <ItemRef ItemOID="MI.MISEQ" Mandatory="Yes"
                         OrderNumber="4" Role="Identifier" RoleCodeListOID="ROLECODELIST"/>
                    <ItemRef ItemOID="MI.MIGRPID" Mandatory="No"
                         OrderNumber="5" Role="Identifier" RoleCodeListOID="ROLECODELIST"/>
                    <ItemRef ItemOID="MI.MIREFID" Mandatory="No"
                         OrderNumber="6" Role="Identifier" RoleCodeListOID="ROLECODELIST"/>
                    <ItemRef ItemOID="MI.MITESTCD" Mandatory="Yes"
                         OrderNumber="7" Role="Topic" RoleCodeListOID="ROLECODELIST"/>
                    <ItemRef ItemOID="MI.MITEST" Mandatory="Yes"
                         OrderNumber="8" Role="Synonym Qualifier" RoleCodeListOID="ROLECODELIST"/>
                    <ItemRef ItemOID="MI.MIORRES" Mandatory="No"
                         OrderNumber="9" Role="Result Qualifier" RoleCodeListOID="ROLECODELIST"/>
                    <ItemRef ItemOID="MI.MISTRESC" Mandatory="No"
                         OrderNumber="10" Role="Result Qualifier" RoleCodeListOID="ROLECODELIST"/>
                    <ItemRef ItemOID="MI.MIRESCAT" Mandatory="No"
                         OrderNumber="11" Role="Variable Qualifier" RoleCodeListOID="ROLECODELIST"/>
                    <ItemRef ItemOID="MI.MISTAT" Mandatory="No"
                         OrderNumber="12" Role="Record Qualifier" RoleCodeListOID="ROLECODELIST"/>
                    <ItemRef ItemOID="MI.MIREASND" Mandatory="No"
                         OrderNumber="13" Role="Record Qualifier" RoleCodeListOID="ROLECODELIST"/>
                    <ItemRef ItemOID="MI.MISPEC" Mandatory="Yes"
                         OrderNumber="14" Role="Record Qualifier" RoleCodeListOID="ROLECODELIST"/>
                    <ItemRef ItemOID="MI.MISPCCND" Mandatory="No"
                         OrderNumber="15" Role="Variable Qualifier" RoleCodeListOID="ROLECODELIST"/>
                    <ItemRef ItemOID="MI.MISPCUFL" Mandatory="No"
                         OrderNumber="16" Role="Variable Qualifier" RoleCodeListOID="ROLECODELIST"/>
                    <ItemRef ItemOID="MI.MISEV" Mandatory="No"
                         OrderNumber="17" Role="Record Qualifier" RoleCodeListOID="ROLECODELIST"/>
                    <ItemRef ItemOID="MI.MIDTC" Mandatory="No"
                         OrderNumber="18" Role="Timing" RoleCodeListOID="ROLECODELIST"/>
                    <ItemRef ItemOID="MI.MIDY" Mandatory="No"
                         OrderNumber="19" Role="Timing" RoleCodeListOID="ROLECODELIST"/>
                    <def:leaf ID="Location.MI" xlink:href="mi.xpt">
                         <def:title>mi.xpt</def:title>
                    </def:leaf>
               </ItemGroupDef>
               <ItemGroupDef IsReferenceData="No" Name="OM" OID="OM"
                    Purpose="Tabulation" Repeating="Yes"
                    def:ArchiveLocationID="Location.OM"
                    def:Class="Findings"
                    def:DomainKeys="STUDYID, USUBJID, OMTESTCD, OMSPEC, OMANTREG, OMLAT, OMDIR, OMPORTOT"
                    def:Label="ORGAN MEASUREMENTS" def:Structure="One record per test per specimen per subject">
                    <ItemRef ItemOID="OM.STUDYID" Mandatory="Yes"
                         OrderNumber="1" Role="Identifier" RoleCodeListOID="ROLECODELIST"/>
                    <ItemRef ItemOID="OM.DOMAIN" Mandatory="Yes"
                         OrderNumber="2" Role="Identifier" RoleCodeListOID="ROLECODELIST"/>
                    <ItemRef ItemOID="OM.USUBJID" Mandatory="Yes"
                         OrderNumber="3" Role="Identifier" RoleCodeListOID="ROLECODELIST"/>
                    <ItemRef ItemOID="OM.OMSEQ" Mandatory="Yes"
                         OrderNumber="4" Role="Identifier" RoleCodeListOID="ROLECODELIST"/>
                    <ItemRef ItemOID="OM.OMTESTCD" Mandatory="Yes"
                         OrderNumber="5" Role="Topic" RoleCodeListOID="ROLECODELIST"/>
                    <ItemRef ItemOID="OM.OMTEST" Mandatory="Yes"
                         OrderNumber="6" Role="Synonym Qualifier" RoleCodeListOID="ROLECODELIST"/>
                    <ItemRef ItemOID="OM.OMORRES" Mandatory="No"
                         OrderNumber="7" Role="Result Qualifier" RoleCodeListOID="ROLECODELIST"/>
                    <ItemRef ItemOID="OM.OMORRESU" Mandatory="No"
                         OrderNumber="8" Role="Variable Qualifier" RoleCodeListOID="ROLECODELIST"/>
                    <ItemRef ItemOID="OM.OMSTRESC" Mandatory="No"
                         OrderNumber="9" Role="Result Qualifier" RoleCodeListOID="ROLECODELIST"/>
                    <ItemRef ItemOID="OM.OMSTRESN" Mandatory="No"
                         OrderNumber="10" Role="Result Qualifier" RoleCodeListOID="ROLECODELIST"/>
                    <ItemRef ItemOID="OM.OMSTRESU" Mandatory="No"
                         OrderNumber="11" Role="Variable Qualifier" RoleCodeListOID="ROLECODELIST"/>
                    <ItemRef ItemOID="OM.OMSPEC" Mandatory="Yes"
                         OrderNumber="12" Role="Record Qualifier" RoleCodeListOID="ROLECODELIST"/>
                    <ItemRef ItemOID="OM.OMDTC" Mandatory="No"
                         OrderNumber="13" Role="Timing" RoleCodeListOID="ROLECODELIST"/>
                    <ItemRef ItemOID="OM.OMDY" Mandatory="No"
                         OrderNumber="14" Role="Timing" RoleCodeListOID="ROLECODELIST"/>
                    <def:leaf ID="Location.OM" xlink:href="om.xpt">
                         <def:title>om.xpt</def:title>
                    </def:leaf>
               </ItemGroupDef>
               <ItemGroupDef IsReferenceData="No" Name="PC" OID="PC"
                    Purpose="Tabulation" Repeating="Yes"
                    def:ArchiveLocationID="Location.PC"
                    def:Class="Findings"
                    def:DomainKeys="STUDYID, USUBJID, POOLID, PCTESTCD, PCSPEC, PCDTC, PCTPT"
                    def:Label="PHARMACOKINETICS CONCENTRATIONS" def:Structure="One record per test per specimen per observation time per subject or pool">
                    <ItemRef ItemOID="PC.STUDYID" Mandatory="Yes"
                         OrderNumber="1" Role="Identifier" RoleCodeListOID="ROLECODELIST"/>
                    <ItemRef ItemOID="PC.DOMAIN" Mandatory="Yes"
                         OrderNumber="2" Role="Identifier" RoleCodeListOID="ROLECODELIST"/>
                    <ItemRef ItemOID="PC.USUBJID" Mandatory="No"
                         OrderNumber="3" Role="Identifier" RoleCodeListOID="ROLECODELIST"/>
                    <ItemRef ItemOID="PC.PCSEQ" Mandatory="Yes"
                         OrderNumber="4" Role="Identifier" RoleCodeListOID="ROLECODELIST"/>
                    <ItemRef ItemOID="PC.PCTESTCD" Mandatory="Yes"
                         OrderNumber="5" Role="Topic" RoleCodeListOID="ROLECODELIST"/>
                    <ItemRef ItemOID="PC.PCTEST" Mandatory="Yes"
                         OrderNumber="6" Role="Synonym Qualifier" RoleCodeListOID="ROLECODELIST"/>
                    <ItemRef ItemOID="PC.PCORRES" Mandatory="No"
                         OrderNumber="7" Role="Result Qualifier" RoleCodeListOID="ROLECODELIST"/>
                    <ItemRef ItemOID="PC.PCORRESU" Mandatory="No"
                         OrderNumber="8" Role="Variable Qualifier" RoleCodeListOID="ROLECODELIST"/>
                    <ItemRef ItemOID="PC.PCSTRESC" Mandatory="No"
                         OrderNumber="9" Role="Result Qualifier" RoleCodeListOID="ROLECODELIST"/>
                    <ItemRef ItemOID="PC.PCSTRESN" Mandatory="No"
                         OrderNumber="10" Role="Result Qualifier" RoleCodeListOID="ROLECODELIST"/>
                    <ItemRef ItemOID="PC.PCSTRESU" Mandatory="No"
                         OrderNumber="11" Role="Variable Qualifier" RoleCodeListOID="ROLECODELIST"/>
                    <ItemRef ItemOID="PC.PCSTAT" Mandatory="No"
                         OrderNumber="12" Role="Record Qualifier" RoleCodeListOID="ROLECODELIST"/>
                    <ItemRef ItemOID="PC.PCREASND" Mandatory="No"
                         OrderNumber="13" Role="Record Qualifier" RoleCodeListOID="ROLECODELIST"/>
                    <ItemRef ItemOID="PC.PCNAM" Mandatory="No"
                         OrderNumber="14" Role="Record Qualifier" RoleCodeListOID="ROLECODELIST"/>
                    <ItemRef ItemOID="PC.PCSPEC" Mandatory="Yes"
                         OrderNumber="15" Role="Record Qualifier" RoleCodeListOID="ROLECODELIST"/>
                    <ItemRef ItemOID="PC.PCMETHOD" Mandatory="No"
                         OrderNumber="16" Role="Record Qualifier" RoleCodeListOID="ROLECODELIST"/>
                    <ItemRef ItemOID="PC.PCBLFL" Mandatory="No"
                         OrderNumber="17" Role="Record Qualifier" RoleCodeListOID="ROLECODELIST"/>
                    <ItemRef ItemOID="PC.PCLLOQ" Mandatory="No"
                         OrderNumber="18" Role="Variable Qualifier" RoleCodeListOID="ROLECODELIST"/>
                    <ItemRef ItemOID="PC.VISITDY" Mandatory="No"
                         OrderNumber="19" Role="Timing" RoleCodeListOID="ROLECODELIST"/>
                    <ItemRef ItemOID="PC.PCDTC" Mandatory="No"
                         OrderNumber="20" Role="Timing" RoleCodeListOID="ROLECODELIST"/>
                    <ItemRef ItemOID="PC.PCDY" Mandatory="No"
                         OrderNumber="21" Role="Timing" RoleCodeListOID="ROLECODELIST"/>
                    <ItemRef ItemOID="PC.PCTPT" Mandatory="No"
                         OrderNumber="22" Role="Timing" RoleCodeListOID="ROLECODELIST"/>
                    <ItemRef ItemOID="PC.PCTPTNUM" Mandatory="No"
                         OrderNumber="23" Role="Timing" RoleCodeListOID="ROLECODELIST"/>
                    <ItemRef ItemOID="PC.PCELTM" Mandatory="No"
                         OrderNumber="24" Role="Timing" RoleCodeListOID="ROLECODELIST"/>
                    <ItemRef ItemOID="PC.PCTPTREF" Mandatory="No"
                         OrderNumber="25" Role="Timing" RoleCodeListOID="ROLECODELIST"/>
                    <ItemRef ItemOID="PC.PCRFTDTC" Mandatory="No"
                         OrderNumber="26" Role="Timing" RoleCodeListOID="ROLECODELIST"/>
                    <def:leaf ID="Location.PC" xlink:href="pc.xpt">
                         <def:title>pc.xpt</def:title>
                    </def:leaf>
               </ItemGroupDef>
               <ItemGroupDef IsReferenceData="No" Name="PP" OID="PP"
                    Purpose="Tabulation" Repeating="Yes"
                    def:ArchiveLocationID="Location.PP"
                    def:Class="Findings"
                    def:DomainKeys="STUDYID, USUBJID, POOLID, PPTESTCD, PPCAT, PPSPEC, PPRFTDTC"
                    def:Label="PHARMACOKINETICS PARAMETERS" def:Structure="One record per test per time-concentration profile per specimen per subject or pool">
                    <ItemRef ItemOID="PP.STUDYID" Mandatory="Yes"
                         OrderNumber="1" Role="Identifier" RoleCodeListOID="ROLECODELIST"/>
                    <ItemRef ItemOID="PP.DOMAIN" Mandatory="Yes"
                         OrderNumber="2" Role="Identifier" RoleCodeListOID="ROLECODELIST"/>
                    <ItemRef ItemOID="PP.USUBJID" Mandatory="No"
                         OrderNumber="3" Role="Identifier" RoleCodeListOID="ROLECODELIST"/>
                    <ItemRef ItemOID="PP.PPSEQ" Mandatory="Yes"
                         OrderNumber="4" Role="Identifier" RoleCodeListOID="ROLECODELIST"/>
                    <ItemRef ItemOID="PP.PPTESTCD" Mandatory="Yes"
                         OrderNumber="5" Role="Topic" RoleCodeListOID="ROLECODELIST"/>
                    <ItemRef ItemOID="PP.PPTEST" Mandatory="Yes"
                         OrderNumber="6" Role="Synonym Qualifier" RoleCodeListOID="ROLECODELIST"/>
                    <ItemRef ItemOID="PP.PPCAT" Mandatory="No"
                         OrderNumber="7" Role="Grouping Qualifier" RoleCodeListOID="ROLECODELIST"/>
                    <ItemRef ItemOID="PP.PPORRES" Mandatory="No"
                         OrderNumber="8" Role="Result Qualifier" RoleCodeListOID="ROLECODELIST"/>
                    <ItemRef ItemOID="PP.PPORRESU" Mandatory="No"
                         OrderNumber="9" Role="Variable Qualifier" RoleCodeListOID="ROLECODELIST"/>
                    <ItemRef ItemOID="PP.PPSTRESC" Mandatory="No"
                         OrderNumber="10" Role="Result Qualifier" RoleCodeListOID="ROLECODELIST"/>
                    <ItemRef ItemOID="PP.PPSTRESN" Mandatory="No"
                         OrderNumber="11" Role="Result Qualifier" RoleCodeListOID="ROLECODELIST"/>
                    <ItemRef ItemOID="PP.PPSTRESU" Mandatory="No"
                         OrderNumber="12" Role="Variable Qualifier" RoleCodeListOID="ROLECODELIST"/>
                    <ItemRef ItemOID="PP.PPSTAT" Mandatory="No"
                         OrderNumber="13" Role="Record Qualifier" RoleCodeListOID="ROLECODELIST"/>
                    <ItemRef ItemOID="PP.PPREASND" Mandatory="No"
                         OrderNumber="14" Role="Record Qualifier" RoleCodeListOID="ROLECODELIST"/>
                    <ItemRef ItemOID="PP.PPSPEC" Mandatory="No"
                         OrderNumber="15" Role="Record Qualifier" RoleCodeListOID="ROLECODELIST"/>
                    <ItemRef ItemOID="PP.VISITDY" Mandatory="No"
                         OrderNumber="16" Role="Timing" RoleCodeListOID="ROLECODELIST"/>
                    <ItemRef ItemOID="PP.PPTPTREF" Mandatory="No"
                         OrderNumber="17" Role="Timing" RoleCodeListOID="ROLECODELIST"/>
                    <ItemRef ItemOID="PP.PPRFTDTC" Mandatory="No"
                         OrderNumber="18" Role="Timing" RoleCodeListOID="ROLECODELIST"/>
                    <ItemRef ItemOID="PP.PPSTINT" Mandatory="No"
                         OrderNumber="19" Role="Timing" RoleCodeListOID="ROLECODELIST"/>
                    <ItemRef ItemOID="PP.PPENINT" Mandatory="No"
                         OrderNumber="20" Role="Timing" RoleCodeListOID="ROLECODELIST"/>
                    <def:leaf ID="Location.PP" xlink:href="pp.xpt">
                         <def:title>pp.xpt</def:title>
                    </def:leaf>
               </ItemGroupDef>
               <ItemGroupDef IsReferenceData="No" Name="SUPPBG"
                    OID="SUPPBG" Purpose="Tabulation" Repeating="Yes"
                    def:ArchiveLocationID="Location.SUPPBG"
                    def:Class="Relationship"
                    def:DomainKeys="STUDYID, RDOMAIN, USUBJID, IDVAR, IDVARVAL, QNAM"
                    def:Label="SUPPLEMENTAL QUALIFIERS FOR BG" def:Structure="One record per supplemental qualifier value per original domain record">
                    <ItemRef ItemOID="SUPPBG.STUDYID" Mandatory="Yes"
                         OrderNumber="1" Role="Identifier" RoleCodeListOID="ROLECODELIST"/>
                    <ItemRef ItemOID="SUPPBG.RDOMAIN" Mandatory="Yes"
                         OrderNumber="2" Role="Identifier" RoleCodeListOID="ROLECODELIST"/>
                    <ItemRef ItemOID="SUPPBG.USUBJID" Mandatory="No"
                         OrderNumber="3" Role="Identifier" RoleCodeListOID="ROLECODELIST"/>
                    <ItemRef ItemOID="SUPPBG.IDVAR" Mandatory="No"
                         OrderNumber="4" Role="Identifier" RoleCodeListOID="ROLECODELIST"/>
                    <ItemRef ItemOID="SUPPBG.IDVARVAL" Mandatory="No"
                         OrderNumber="5" Role="Identifier" RoleCodeListOID="ROLECODELIST"/>
                    <ItemRef ItemOID="SUPPBG.QNAM" Mandatory="Yes"
                         OrderNumber="6" Role="Topic" RoleCodeListOID="ROLECODELIST"/>
                    <ItemRef ItemOID="SUPPBG.QLABEL" Mandatory="Yes"
                         OrderNumber="7" Role="Synonym Qualifier" RoleCodeListOID="ROLECODELIST"/>
                    <ItemRef ItemOID="SUPPBG.QVAL" Mandatory="Yes"
                         OrderNumber="8" Role="Result" RoleCodeListOID="ROLECODELIST"/>
                    <ItemRef ItemOID="SUPPBG.QORIG" Mandatory="No"
                         OrderNumber="9" Role="Synonym Qualifier" RoleCodeListOID="ROLECODELIST"/>
                    <ItemRef ItemOID="SUPPBG.QEVAL" Mandatory="No"
                         OrderNumber="10" Role="Synonym Qualifier" RoleCodeListOID="ROLECODELIST"/>
                    <def:leaf ID="Location.SUPPBG" xlink:href="suppbg.xpt">
                         <def:title>suppbg.xpt</def:title>
                    </def:leaf>
               </ItemGroupDef>
               <ItemGroupDef IsReferenceData="No" Name="SUPPBW"
                    OID="SUPPBW" Purpose="Tabulation" Repeating="Yes"
                    def:ArchiveLocationID="Location.SUPPBW"
                    def:Class="Relationship"
                    def:DomainKeys="STUDYID, RDOMAIN, USUBJID, IDVAR, IDVARVAL, QNAM"
                    def:Label="SUPPLEMENTAL QUALIFIERS FOR BW" def:Structure="One record per supplemental qualifier value per original domain record">
                    <ItemRef ItemOID="SUPPBW.STUDYID" Mandatory="Yes"
                         OrderNumber="1" Role="Identifier" RoleCodeListOID="ROLECODELIST"/>
                    <ItemRef ItemOID="SUPPBW.RDOMAIN" Mandatory="Yes"
                         OrderNumber="2" Role="Identifier" RoleCodeListOID="ROLECODELIST"/>
                    <ItemRef ItemOID="SUPPBW.USUBJID" Mandatory="No"
                         OrderNumber="3" Role="Identifier" RoleCodeListOID="ROLECODELIST"/>
                    <ItemRef ItemOID="SUPPBW.IDVAR" Mandatory="No"
                         OrderNumber="4" Role="Identifier" RoleCodeListOID="ROLECODELIST"/>
                    <ItemRef ItemOID="SUPPBW.IDVARVAL" Mandatory="No"
                         OrderNumber="5" Role="Identifier" RoleCodeListOID="ROLECODELIST"/>
                    <ItemRef ItemOID="SUPPBW.QNAM" Mandatory="Yes"
                         OrderNumber="6" Role="Topic" RoleCodeListOID="ROLECODELIST"/>
                    <ItemRef ItemOID="SUPPBW.QLABEL" Mandatory="Yes"
                         OrderNumber="7" Role="Synonym Qualifier" RoleCodeListOID="ROLECODELIST"/>
                    <ItemRef ItemOID="SUPPBW.QVAL" Mandatory="Yes"
                         OrderNumber="8" Role="Result" RoleCodeListOID="ROLECODELIST"/>
                    <ItemRef ItemOID="SUPPBW.QORIG" Mandatory="No"
                         OrderNumber="9" Role="Synonym Qualifier" RoleCodeListOID="ROLECODELIST"/>
                    <ItemRef ItemOID="SUPPBW.QEVAL" Mandatory="No"
                         OrderNumber="10" Role="Synonym Qualifier" RoleCodeListOID="ROLECODELIST"/>
                    <def:leaf ID="Location.SUPPBW" xlink:href="suppbw.xpt">
                         <def:title>suppbw.xpt</def:title>
                    </def:leaf>
               </ItemGroupDef>
               <ItemGroupDef IsReferenceData="No" Name="SUPPCL"
                    OID="SUPPCL" Purpose="Tabulation" Repeating="Yes"
                    def:ArchiveLocationID="Location.SUPPCL"
                    def:Class="Relationship"
                    def:DomainKeys="STUDYID, RDOMAIN, USUBJID, IDVAR, IDVARVAL, QNAM"
                    def:Label="SUPPLEMENTAL QUALIFIERS FOR CL" def:Structure="One record per supplemental qualifier value per original domain record">
                    <ItemRef ItemOID="SUPPCL.STUDYID" Mandatory="Yes"
                         OrderNumber="1" Role="Identifier" RoleCodeListOID="ROLECODELIST"/>
                    <ItemRef ItemOID="SUPPCL.RDOMAIN" Mandatory="Yes"
                         OrderNumber="2" Role="Identifier" RoleCodeListOID="ROLECODELIST"/>
                    <ItemRef ItemOID="SUPPCL.USUBJID" Mandatory="No"
                         OrderNumber="3" Role="Identifier" RoleCodeListOID="ROLECODELIST"/>
                    <ItemRef ItemOID="SUPPCL.IDVAR" Mandatory="No"
                         OrderNumber="4" Role="Identifier" RoleCodeListOID="ROLECODELIST"/>
                    <ItemRef ItemOID="SUPPCL.IDVARVAL" Mandatory="No"
                         OrderNumber="5" Role="Identifier" RoleCodeListOID="ROLECODELIST"/>
                    <ItemRef ItemOID="SUPPCL.QNAM" Mandatory="Yes"
                         OrderNumber="6" Role="Topic" RoleCodeListOID="ROLECODELIST"/>
                    <ItemRef ItemOID="SUPPCL.QLABEL" Mandatory="Yes"
                         OrderNumber="7" Role="Synonym Qualifier" RoleCodeListOID="ROLECODELIST"/>
                    <ItemRef ItemOID="SUPPCL.QVAL" Mandatory="Yes"
                         OrderNumber="8" Role="Result" RoleCodeListOID="ROLECODELIST"/>
                    <ItemRef ItemOID="SUPPCL.QORIG" Mandatory="No"
                         OrderNumber="9" Role="Synonym Qualifier" RoleCodeListOID="ROLECODELIST"/>
                    <ItemRef ItemOID="SUPPCL.QEVAL" Mandatory="No"
                         OrderNumber="10" Role="Synonym Qualifier" RoleCodeListOID="ROLECODELIST"/>
                    <def:leaf ID="Location.SUPPCL" xlink:href="suppcl.xpt">
                         <def:title>suppcl.xpt</def:title>
                    </def:leaf>
               </ItemGroupDef>
               <ItemGroupDef IsReferenceData="No" Name="SUPPDS"
                    OID="SUPPDS" Purpose="Tabulation" Repeating="Yes"
                    def:ArchiveLocationID="Location.SUPPDS"
                    def:Class="Relationship"
                    def:DomainKeys="STUDYID, RDOMAIN, USUBJID, IDVAR, IDVARVAL, QNAM"
                    def:Label="SUPPLEMENTAL QUALIFIERS FOR DS" def:Structure="One record per supplemental qualifier value per original domain record">
                    <ItemRef ItemOID="SUPPDS.STUDYID" Mandatory="Yes"
                         OrderNumber="1" Role="Identifier" RoleCodeListOID="ROLECODELIST"/>
                    <ItemRef ItemOID="SUPPDS.RDOMAIN" Mandatory="Yes"
                         OrderNumber="2" Role="Identifier" RoleCodeListOID="ROLECODELIST"/>
                    <ItemRef ItemOID="SUPPDS.USUBJID" Mandatory="No"
                         OrderNumber="3" Role="Identifier" RoleCodeListOID="ROLECODELIST"/>
                    <ItemRef ItemOID="SUPPDS.IDVAR" Mandatory="No"
                         OrderNumber="4" Role="Identifier" RoleCodeListOID="ROLECODELIST"/>
                    <ItemRef ItemOID="SUPPDS.IDVARVAL" Mandatory="No"
                         OrderNumber="5" Role="Identifier" RoleCodeListOID="ROLECODELIST"/>
                    <ItemRef ItemOID="SUPPDS.QNAM" Mandatory="Yes"
                         OrderNumber="6" Role="Topic" RoleCodeListOID="ROLECODELIST"/>
                    <ItemRef ItemOID="SUPPDS.QLABEL" Mandatory="Yes"
                         OrderNumber="7" Role="Synonym Qualifier" RoleCodeListOID="ROLECODELIST"/>
                    <ItemRef ItemOID="SUPPDS.QVAL" Mandatory="Yes"
                         OrderNumber="8" Role="Result" RoleCodeListOID="ROLECODELIST"/>
                    <ItemRef ItemOID="SUPPDS.QORIG" Mandatory="No"
                         OrderNumber="9" Role="Synonym Qualifier" RoleCodeListOID="ROLECODELIST"/>
                    <ItemRef ItemOID="SUPPDS.QEVAL" Mandatory="No"
                         OrderNumber="10" Role="Synonym Qualifier" RoleCodeListOID="ROLECODELIST"/>
                    <def:leaf ID="Location.SUPPDS" xlink:href="suppds.xpt">
                         <def:title>suppds.xpt</def:title>
                    </def:leaf>
               </ItemGroupDef>
               <ItemGroupDef IsReferenceData="No" Name="SUPPLB"
                    OID="SUPPLB" Purpose="Tabulation" Repeating="Yes"
                    def:ArchiveLocationID="Location.SUPPLB"
                    def:Class="Relationship"
                    def:DomainKeys="STUDYID, RDOMAIN, USUBJID, IDVAR, IDVARVAL, QNAM"
                    def:Label="SUPPLEMENTAL QUALIFIERS FOR LB" def:Structure="One record per supplemental qualifier value per original domain record">
                    <ItemRef ItemOID="SUPPLB.STUDYID" Mandatory="Yes"
                         OrderNumber="1" Role="Identifier" RoleCodeListOID="ROLECODELIST"/>
                    <ItemRef ItemOID="SUPPLB.RDOMAIN" Mandatory="Yes"
                         OrderNumber="2" Role="Identifier" RoleCodeListOID="ROLECODELIST"/>
                    <ItemRef ItemOID="SUPPLB.USUBJID" Mandatory="No"
                         OrderNumber="3" Role="Identifier" RoleCodeListOID="ROLECODELIST"/>
                    <ItemRef ItemOID="SUPPLB.IDVAR" Mandatory="No"
                         OrderNumber="4" Role="Identifier" RoleCodeListOID="ROLECODELIST"/>
                    <ItemRef ItemOID="SUPPLB.IDVARVAL" Mandatory="No"
                         OrderNumber="5" Role="Identifier" RoleCodeListOID="ROLECODELIST"/>
                    <ItemRef ItemOID="SUPPLB.QNAM" Mandatory="Yes"
                         OrderNumber="6" Role="Topic" RoleCodeListOID="ROLECODELIST"/>
                    <ItemRef ItemOID="SUPPLB.QLABEL" Mandatory="Yes"
                         OrderNumber="7" Role="Synonym Qualifier" RoleCodeListOID="ROLECODELIST"/>
                    <ItemRef ItemOID="SUPPLB.QVAL" Mandatory="Yes"
                         OrderNumber="8" Role="Result" RoleCodeListOID="ROLECODELIST"/>
                    <ItemRef ItemOID="SUPPLB.QORIG" Mandatory="No"
                         OrderNumber="9" Role="Synonym Qualifier" RoleCodeListOID="ROLECODELIST"/>
                    <ItemRef ItemOID="SUPPLB.QEVAL" Mandatory="No"
                         OrderNumber="10" Role="Synonym Qualifier" RoleCodeListOID="ROLECODELIST"/>
                    <def:leaf ID="Location.SUPPLB" xlink:href="supplb.xpt">
                         <def:title>supplb.xpt</def:title>
                    </def:leaf>
               </ItemGroupDef>
               <ItemGroupDef IsReferenceData="No" Name="SUPPMA"
                    OID="SUPPMA" Purpose="Tabulation" Repeating="Yes"
                    def:ArchiveLocationID="Location.SUPPMA"
                    def:Class="Relationship"
                    def:DomainKeys="STUDYID, RDOMAIN, USUBJID, IDVAR, IDVARVAL, QNAM"
                    def:Label="SUPPLEMENTAL QUALIFIERS FOR MA" def:Structure="One record per supplemental qualifier value per original domain record">
                    <ItemRef ItemOID="SUPPMA.STUDYID" Mandatory="Yes"
                         OrderNumber="1" Role="Identifier" RoleCodeListOID="ROLECODELIST"/>
                    <ItemRef ItemOID="SUPPMA.RDOMAIN" Mandatory="Yes"
                         OrderNumber="2" Role="Identifier" RoleCodeListOID="ROLECODELIST"/>
                    <ItemRef ItemOID="SUPPMA.USUBJID" Mandatory="No"
                         OrderNumber="3" Role="Identifier" RoleCodeListOID="ROLECODELIST"/>
                    <ItemRef ItemOID="SUPPMA.IDVAR" Mandatory="No"
                         OrderNumber="4" Role="Identifier" RoleCodeListOID="ROLECODELIST"/>
                    <ItemRef ItemOID="SUPPMA.IDVARVAL" Mandatory="No"
                         OrderNumber="5" Role="Identifier" RoleCodeListOID="ROLECODELIST"/>
                    <ItemRef ItemOID="SUPPMA.QNAM" Mandatory="Yes"
                         OrderNumber="6" Role="Topic" RoleCodeListOID="ROLECODELIST"/>
                    <ItemRef ItemOID="SUPPMA.QLABEL" Mandatory="Yes"
                         OrderNumber="7" Role="Synonym Qualifier" RoleCodeListOID="ROLECODELIST"/>
                    <ItemRef ItemOID="SUPPMA.QVAL" Mandatory="Yes"
                         OrderNumber="8" Role="Result" RoleCodeListOID="ROLECODELIST"/>
                    <ItemRef ItemOID="SUPPMA.QORIG" Mandatory="No"
                         OrderNumber="9" Role="Synonym Qualifier" RoleCodeListOID="ROLECODELIST"/>
                    <ItemRef ItemOID="SUPPMA.QEVAL" Mandatory="No"
                         OrderNumber="10" Role="Synonym Qualifier" RoleCodeListOID="ROLECODELIST"/>
                    <def:leaf ID="Location.SUPPMA" xlink:href="suppma.xpt">
                         <def:title>suppma.xpt</def:title>
                    </def:leaf>
               </ItemGroupDef>
               <ItemGroupDef IsReferenceData="No" Name="SUPPMI"
                    OID="SUPPMI" Purpose="Tabulation" Repeating="Yes"
                    def:ArchiveLocationID="Location.SUPPMI"
                    def:Class="Relationship"
                    def:DomainKeys="STUDYID, RDOMAIN, USUBJID, IDVAR, IDVARVAL, QNAM"
                    def:Label="SUPPLEMENTAL QUALIFIERS FOR MI" def:Structure="One record per supplemental qualifier value per original domain record">
                    <ItemRef ItemOID="SUPPMI.STUDYID" Mandatory="Yes"
                         OrderNumber="1" Role="Identifier" RoleCodeListOID="ROLECODELIST"/>
                    <ItemRef ItemOID="SUPPMI.RDOMAIN" Mandatory="Yes"
                         OrderNumber="2" Role="Identifier" RoleCodeListOID="ROLECODELIST"/>
                    <ItemRef ItemOID="SUPPMI.USUBJID" Mandatory="No"
                         OrderNumber="3" Role="Identifier" RoleCodeListOID="ROLECODELIST"/>
                    <ItemRef ItemOID="SUPPMI.IDVAR" Mandatory="No"
                         OrderNumber="4" Role="Identifier" RoleCodeListOID="ROLECODELIST"/>
                    <ItemRef ItemOID="SUPPMI.IDVARVAL" Mandatory="No"
                         OrderNumber="5" Role="Identifier" RoleCodeListOID="ROLECODELIST"/>
                    <ItemRef ItemOID="SUPPMI.QNAM" Mandatory="Yes"
                         OrderNumber="6" Role="Topic" RoleCodeListOID="ROLECODELIST"/>
                    <ItemRef ItemOID="SUPPMI.QLABEL" Mandatory="Yes"
                         OrderNumber="7" Role="Synonym Qualifier" RoleCodeListOID="ROLECODELIST"/>
                    <ItemRef ItemOID="SUPPMI.QVAL" Mandatory="Yes"
                         OrderNumber="8" Role="Result" RoleCodeListOID="ROLECODELIST"/>
                    <ItemRef ItemOID="SUPPMI.QORIG" Mandatory="No"
                         OrderNumber="9" Role="Synonym Qualifier" RoleCodeListOID="ROLECODELIST"/>
                    <ItemRef ItemOID="SUPPMI.QEVAL" Mandatory="No"
                         OrderNumber="10" Role="Synonym Qualifier" RoleCodeListOID="ROLECODELIST"/>
                    <def:leaf ID="Location.SUPPMI" xlink:href="suppmi.xpt">
                         <def:title>suppmi.xpt</def:title>
                    </def:leaf>
               </ItemGroupDef>
               <ItemDef Comment="" DataType="text" Length="8"
                    Name="STUDYID" OID="BG.STUDYID" Origin="OTHER" def:Label="Study Identifier"/>
               <ItemDef Comment="" DataType="text" Length="2"
                    Name="DOMAIN" OID="BG.DOMAIN" Origin="OTHER" def:Label="Domain Abbreviation">
                    <CodeListRef CodeListOID="DOMAIN"/>
               </ItemDef>
               <ItemDef Comment="" DataType="text" Length="13"
                    Name="USUBJID" OID="BG.USUBJID" Origin="OTHER"
                    def:ComputationMethodOID="COMPMETHOD.COMPUSUBJID" def:Label="Unique Subject Identifier"/>
               <ItemDef Comment="" DataType="integer" Length="8"
                    Name="BGSEQ" OID="BG.BGSEQ" Origin="OTHER"
                    def:ComputationMethodOID="COMPMETHOD.COMPSEQ"
                    def:DisplayFormat="8.0" def:Label="Sequence Number"/>
               <ItemDef
                    Comment="Mapped from the test name used to report the calculated gain"
                    DataType="text" Length="6" Name="BGTESTCD"
                    OID="BG.BGTESTCD" Origin="DERIVED" def:Label="Test Short Name">
                    <CodeListRef CodeListOID="BGTESTCD"/>
                    <def:ValueListRef ValueListOID="ValueList.BG.BGTESTCD"/>
               </ItemDef>
               <ItemDef Comment="" DataType="text" Length="16"
                    Name="BGTEST" OID="BG.BGTEST" Origin="OTHER" def:Label="Test Name">
                    <CodeListRef CodeListOID="BGTEST"/>
               </ItemDef>
               <ItemDef
                    Comment="Difference between values in BWORRES values for interval specified"
                    DataType="text" Length="5" Name="BGORRES"
                    OID="BG.BGORRES" Origin="DERIVED" def:Label="Result or Findings as Collected"/>
               <ItemDef
                    Comment="Unit that body weight was collected in, from BWORRESU"
                    DataType="text" Length="2" Name="BGORRESU"
                    OID="BG.BGORRESU" Origin="DERIVED" def:Label="Unit of the Original Result">
                    <CodeListRef CodeListOID="UNIT"/>
               </ItemDef>
               <ItemDef Comment="" DataType="text" Length="5"
                    Name="BGSTRESC" OID="BG.BGSTRESC" Origin="DERIVED"
                    def:ComputationMethodOID="COMPMETHOD.COMPSTRESC" def:Label="Standardized Result in Character Format"/>
               <ItemDef Comment="" DataType="float" Length="8"
                    Name="BGSTRESN" OID="BG.BGSTRESN" Origin="DERIVED"
                    SignificantDigits="2"
                    def:ComputationMethodOID="COMPMETHOD.COMPSTRESN"
                    def:DisplayFormat="5.2" def:Label="Standardized Result in Numeric Format"/>
               <ItemDef Comment="" DataType="text" Length="2"
                    Name="BGSTRESU" OID="BG.BGSTRESU" Origin="DERIVED"
                    def:ComputationMethodOID="COMPMETHOD.COMPSTRESU" def:Label="Unit of the Standardized Result">
                    <CodeListRef CodeListOID="UNIT"/>
               </ItemDef>
               <ItemDef Comment="" DataType="datetime" Length="19"
                    Name="BGDTC" OID="BG.BGDTC" Origin="COLLECTED" def:Label="Date/Time Animal Weighed"/>
               <ItemDef Comment="" DataType="datetime" Length="19"
                    Name="BGENDTC" OID="BG.BGENDTC" Origin="COLLECTED" def:Label="End Date/Time Animal Weighed"/>
               <ItemDef Comment="" DataType="integer" Length="8"
                    Name="BGDY" OID="BG.BGDY" Origin="DERIVED"
                    def:ComputationMethodOID="COMPMETHOD.COMPDY"
                    def:DisplayFormat="8.0" def:Label="Study Day Animal Weighed"/>
               <ItemDef Comment="" DataType="integer" Length="8"
                    Name="BGENDY" OID="BG.BGENDY" Origin="DERIVED"
                    def:ComputationMethodOID="COMPMETHOD.COMPENDY"
                    def:DisplayFormat="8.0" def:Label="Study Day of End of Weight Interval"/>
               <ItemDef Comment="Not populated" DataType="text"
                    Length="4" Name="BGELTM" OID="BG.BGELTM"
                    Origin="OTHER" def:Label="Planned Elapsed Time from Time Point Ref"/>
               <ItemDef Comment="" DataType="text" Length="8"
                    Name="STUDYID" OID="BW.STUDYID" Origin="OTHER" def:Label="Study Identifier"/>
               <ItemDef Comment="" DataType="text" Length="2"
                    Name="DOMAIN" OID="BW.DOMAIN" Origin="OTHER" def:Label="Domain Abbreviation">
                    <CodeListRef CodeListOID="DOMAIN"/>
               </ItemDef>
               <ItemDef Comment="" DataType="text" Length="13"
                    Name="USUBJID" OID="BW.USUBJID" Origin="OTHER"
                    def:ComputationMethodOID="COMPMETHOD.COMPUSUBJID" def:Label="Unique Subject Identifier"/>
               <ItemDef Comment="" DataType="integer" Length="8"
                    Name="BWSEQ" OID="BW.BWSEQ" Origin="OTHER"
                    def:ComputationMethodOID="COMPMETHOD.COMPSEQ"
                    def:DisplayFormat="8.0" def:Label="Sequence Number"/>
               <ItemDef
                    Comment="Mapped from test name used during data collection"
                    DataType="text" Length="6" Name="BWTESTCD"
                    OID="BW.BWTESTCD" Origin="DERIVED" def:Label="Test Short Name">
                    <CodeListRef CodeListOID="BWTESTCD"/>
                    <def:ValueListRef ValueListOID="ValueList.BW.BWTESTCD"/>
               </ItemDef>
               <ItemDef Comment="" DataType="text" Length="20"
                    Name="BWTEST" OID="BW.BWTEST" Origin="OTHER" def:Label="Test Name">
                    <CodeListRef CodeListOID="BWTEST"/>
               </ItemDef>
               <ItemDef Comment="" DataType="text" Length="4"
                    Name="BWORRES" OID="BW.BWORRES" Origin="COLLECTED" def:Label="Result or Findings as Collected"/>
               <ItemDef Comment="" DataType="text" Length="2"
                    Name="BWORRESU" OID="BW.BWORRESU" Origin="COLLECTED" def:Label="Unit of the Original Result">
                    <CodeListRef CodeListOID="UNIT"/>
               </ItemDef>
               <ItemDef Comment="" DataType="text" Length="4"
                    Name="BWSTRESC" OID="BW.BWSTRESC" Origin="DERIVED"
                    def:ComputationMethodOID="COMPMETHOD.COMPSTRESC" def:Label="Standardized Result in Character Format"/>
               <ItemDef Comment="" DataType="float" Length="8"
                    Name="BWSTRESN" OID="BW.BWSTRESN" Origin="DERIVED"
                    SignificantDigits="2"
                    def:ComputationMethodOID="COMPMETHOD.COMPSTRESN"
                    def:DisplayFormat="4.2" def:Label="Standardized Result in Numeric Format"/>
               <ItemDef Comment="" DataType="text" Length="2"
                    Name="BWSTRESU" OID="BW.BWSTRESU" Origin="DERIVED"
                    def:ComputationMethodOID="COMPMETHOD.COMPSTRESU" def:Label="Unit of the Standardized Result">
                    <CodeListRef CodeListOID="UNIT"/>
               </ItemDef>
               <ItemDef Comment="" DataType="text" Length="1"
                    Name="BWBLFL" OID="BW.BWBLFL" Origin="DERIVED"
                    def:ComputationMethodOID="COMPMETHOD.COMPBLFL" def:Label="Baseline Flag"/>
               <ItemDef Comment="" DataType="integer" Length="8"
                    Name="VISITDY" OID="BW.VISITDY" Origin="DERIVED"
                    def:ComputationMethodOID="COMPMETHOD.COMPVISITDY"
                    def:DisplayFormat="8.0" def:Label="Planned Study Day of Collection"/>
               <ItemDef Comment="" DataType="datetime" Length="19"
                    Name="BWDTC" OID="BW.BWDTC" Origin="COLLECTED" def:Label="Date/Time Animal Weighed"/>
               <ItemDef Comment="" DataType="integer" Length="8"
                    Name="BWDY" OID="BW.BWDY" Origin="DERIVED"
                    def:ComputationMethodOID="COMPMETHOD.COMPDY"
                    def:DisplayFormat="8.0" def:Label="Study Day Animal Weighed"/>
               <ItemDef Comment="" DataType="text" Length="8"
                    Name="STUDYID" OID="CL.STUDYID" Origin="OTHER" def:Label="Study Identifier"/>
               <ItemDef Comment="" DataType="text" Length="2"
                    Name="DOMAIN" OID="CL.DOMAIN" Origin="OTHER" def:Label="Domain Abbreviation">
                    <CodeListRef CodeListOID="DOMAIN"/>
               </ItemDef>
               <ItemDef Comment="" DataType="text" Length="13"
                    Name="USUBJID" OID="CL.USUBJID" Origin="OTHER"
                    def:ComputationMethodOID="COMPMETHOD.COMPUSUBJID" def:Label="Unique Subject Identifier"/>
               <ItemDef Comment="" DataType="integer" Length="8"
                    Name="CLSEQ" OID="CL.CLSEQ" Origin="OTHER"
                    def:ComputationMethodOID="COMPMETHOD.COMPSEQ"
                    def:DisplayFormat="8.0" def:Label="Sequence Number"/>
               <ItemDef Comment="Not populated" DataType="text"
                    Length="6" Name="CLGRPID" OID="CL.CLGRPID"
                    Origin="OTHER" def:Label="Group Identifier"/>
               <ItemDef
                    Comment="Mapped from test name used during data collection"
                    DataType="text" Length="3" Name="CLTESTCD"
                    OID="CL.CLTESTCD" Origin="DERIVED" def:Label="Test Short Name"/>
               <ItemDef Comment="" DataType="text" Length="19"
                    Name="CLTEST" OID="CL.CLTEST" Origin="OTHER" def:Label="Test Name"/>
               <ItemDef
                    Comment="Mapped from the collected clinical signs category"
                    DataType="text" Length="14" Name="CLCAT"
                    OID="CL.CLCAT" Origin="OTHER" def:Label="Category for Clinical Observations">
                    <CodeListRef CodeListOID="CLCAT"/>
                    <def:ValueListRef ValueListOID="ValueList.CL.CLCAT"/>
               </ItemDef>
               <ItemDef Comment="Not populated" DataType="text"
                    Length="32" Name="CLSCAT" OID="CL.CLSCAT"
                    Origin="OTHER" def:Label="Subcategory for Clinical Observations"/>
               <ItemDef
                    Comment="A concatenation of the individual observation components collected"
                    DataType="text" Length="49" Name="CLORRES"
                    OID="CL.CLORRES" Origin="DERIVED" def:Label="Result or Findings as Collected"/>
               <ItemDef Comment="" DataType="text" Length="16"
                    Name="CLSTRESC" OID="CL.CLSTRESC" Origin="COLLECTED" def:Label="Standardized Result in Character Format"/>
               <ItemDef Comment="" DataType="text" Length="29"
                    Name="CLLOC" OID="CL.CLLOC" Origin="COLLECTED" def:Label="Location of a Finding"/>
               <ItemDef Comment="" DataType="text" Length="12"
                    Name="CLSEV" OID="CL.CLSEV" Origin="COLLECTED" def:Label="Severity"/>
               <ItemDef Comment="" DataType="integer" Length="8"
                    Name="VISITDY" OID="CL.VISITDY" Origin="DERIVED"
                    def:ComputationMethodOID="COMPMETHOD.COMPVISITDY"
                    def:DisplayFormat="8.0" def:Label="Planned Study Day of Collection"/>
               <ItemDef Comment="" DataType="datetime" Length="19"
                    Name="CLDTC" OID="CL.CLDTC" Origin="COLLECTED" def:Label="Start Date/Time of Observation"/>
               <ItemDef Comment="" DataType="integer" Length="8"
                    Name="CLDY" OID="CL.CLDY" Origin="DERIVED"
                    def:ComputationMethodOID="COMPMETHOD.COMPDY"
                    def:DisplayFormat="8.0" def:Label="Study Day of Observation"/>
               <ItemDef Comment="" DataType="text" Length="1"
                    Name="CLTPT" OID="CL.CLTPT" Origin="COLLECTED" def:Label="Planned Time Point Name"/>
               <ItemDef Comment="" DataType="integer" Length="8"
                    Name="CLTPTNUM" OID="CL.CLTPTNUM" Origin="OTHER"
                    def:ComputationMethodOID="COMPMETHOD.COMPTPTNUM"
                    def:DisplayFormat="8.0" def:Label="Planned Time Point Number"/>
               <ItemDef Comment="" DataType="text" Length="8"
                    Name="STUDYID" OID="CO.STUDYID" Origin="OTHER" def:Label="Study Identifier"/>
               <ItemDef Comment="" DataType="text" Length="2"
                    Name="DOMAIN" OID="CO.DOMAIN" Origin="OTHER" def:Label="Domain Abbreviation">
                    <CodeListRef CodeListOID="DOMAIN"/>
               </ItemDef>
               <ItemDef Comment="" DataType="text" Length="2"
                    Name="RDOMAIN" OID="CO.RDOMAIN" Origin="OTHER" def:Label="Related Domain Abbreviation">
                    <CodeListRef CodeListOID="DOMAIN"/>
               </ItemDef>
               <ItemDef Comment="" DataType="text" Length="13"
                    Name="USUBJID" OID="CO.USUBJID" Origin="OTHER"
                    def:ComputationMethodOID="COMPMETHOD.COMPUSUBJID" def:Label="Unique Subject Identifier"/>
               <ItemDef Comment="" DataType="integer" Length="8"
                    Name="COSEQ" OID="CO.COSEQ" Origin="OTHER"
                    def:ComputationMethodOID="COMPMETHOD.COMPSEQ"
                    def:DisplayFormat="8.0" def:Label="Sequence Number"/>
               <ItemDef Comment="" DataType="text" Length="7"
                    Name="IDVAR" OID="CO.IDVAR" Origin="OTHER" def:Label="Identifying Variable"/>
               <ItemDef Comment="" DataType="text" Length="7"
                    Name="IDVARVAL" OID="CO.IDVARVAL" Origin="OTHER" def:Label="Identifying Variable Value"/>
               <ItemDef Comment="" DataType="text" Length="200"
                    Name="COVAL" OID="CO.COVAL" Origin="COLLECTED" def:Label="Comment"/>
               <ItemDef Comment="" DataType="text" Length="36"
                    Name="COVAL1" OID="CO.COVAL1" Origin=" " def:Label="Comment 1"/>
               <ItemDef Comment="" DataType="datetime" Length="1"
                    Name="CODTC" OID="CO.CODTC" Origin="COLLECTED" def:Label="Date/Time of Comment"/>
               <ItemDef Comment="" DataType="text" Length="8"
                    Name="STUDYID" OID="DM.STUDYID" Origin="OTHER" def:Label="Study Identifier"/>
               <ItemDef Comment="" DataType="text" Length="2"
                    Name="DOMAIN" OID="DM.DOMAIN" Origin="OTHER" def:Label="Domain Abbreviation">
                    <CodeListRef CodeListOID="DOMAIN"/>
               </ItemDef>
               <ItemDef Comment="" DataType="text" Length="13"
                    Name="USUBJID" OID="DM.USUBJID" Origin="OTHER"
                    def:ComputationMethodOID="COMPMETHOD.COMPUSUBJID" def:Label="Unique Subject Identifier"/>
               <ItemDef Comment="" DataType="text" Length="4"
                    Name="SUBJID" OID="DM.SUBJID" Origin="OTHER" def:Label="Subject Identifier for the Study"/>
               <ItemDef
                    Comment="Animal's start date of the dosing phase"
                    DataType="date" Length="10" Name="RFSTDTC"
                    OID="DM.RFSTDTC" Origin="COLLECTED" def:Label="Subject Reference Start Date/Time"/>
               <ItemDef
                    Comment="Animal's date of death on the study.  If animal did not die during the study this is the study end date."
                    DataType="date" Length="10" Name="RFENDTC"
                    OID="DM.RFENDTC" Origin="COLLECTED" def:Label="Subject Reference End Date/Time"/>
               <ItemDef Comment="Not populated" DataType="text"
                    Length="14" Name="SITEID" OID="DM.SITEID"
                    Origin="OTHER" def:Label="Study Site Identifier"/>
               <ItemDef Comment="" DataType="date" Length="10"
                    Name="BRTHDTC" OID="DM.BRTHDTC" Origin="COLLECTED" def:Label="Date/Time of Birth"/>
               <ItemDef Comment="" DataType="integer" Length="8"
                    Name="AGE" OID="DM.AGE" Origin="OTHER"
                    def:ComputationMethodOID="COMPMETHOD.COMPAGE"
                    def:DisplayFormat="8.0" def:Label="Age"/>
               <ItemDef Comment="" DataType="text" Length="4"
                    Name="AGEU" OID="DM.AGEU" Origin="OTHER" def:Label="Age Unit">
                    <CodeListRef CodeListOID="AGEU"/>
               </ItemDef>
               <ItemDef Comment="" DataType="text" Length="1" Name="SEX"
                    OID="DM.SEX" Origin="COLLECTED" def:Label="Sex">
                    <CodeListRef CodeListOID="SEX"/>
               </ItemDef>
               <ItemDef Comment="" DataType="text" Length="1"
                    Name="ARMCD" OID="DM.ARMCD" Origin="OTHER" def:Label="Planned Arm Code"/>
               <ItemDef Comment="" DataType="text" Length="17"
                    Name="ARM" OID="DM.ARM" Origin="OTHER" def:Label="Description of Planned Arm"/>
               <ItemDef Comment="" DataType="text" Length="1"
                    Name="SETCD" OID="DM.SETCD" Origin="OTHER" def:Label="Set Code"/>
               <ItemDef Comment="" DataType="text" Length="8"
                    Name="STUDYID" OID="DS.STUDYID" Origin="OTHER" def:Label="Study Identifier"/>
               <ItemDef Comment="" DataType="text" Length="2"
                    Name="DOMAIN" OID="DS.DOMAIN" Origin="OTHER" def:Label="Domain Abbreviation">
                    <CodeListRef CodeListOID="DOMAIN"/>
               </ItemDef>
               <ItemDef Comment="" DataType="text" Length="13"
                    Name="USUBJID" OID="DS.USUBJID" Origin="OTHER"
                    def:ComputationMethodOID="COMPMETHOD.COMPUSUBJID" def:Label="Unique Subject Identifier"/>
               <ItemDef Comment="" DataType="integer" Length="8"
                    Name="DSSEQ" OID="DS.DSSEQ" Origin="OTHER"
                    def:ComputationMethodOID="COMPMETHOD.COMPSEQ"
                    def:DisplayFormat="8.0" def:Label="Sequence Number"/>
               <ItemDef Comment="" DataType="text" Length="14"
                    Name="DSTERM" OID="DS.DSTERM" Origin="COLLECTED" def:Label="Reported Term for the Disposition Event"/>
               <ItemDef
                    Comment="Translated from collected DSTERM to controlled terminology"
                    DataType="text" Length="18" Name="DSDECOD"
                    OID="DS.DSDECOD" Origin="DERIVED" def:Label="Standardized Disposition Term">
                    <CodeListRef CodeListOID="DSDECOD"/>
               </ItemDef>
               <ItemDef Comment="" DataType="integer" Length="8"
                    Name="VISITDY" OID="DS.VISITDY" Origin="DERIVED"
                    def:ComputationMethodOID="COMPMETHOD.COMPVISITDY"
                    def:DisplayFormat="8.0" def:Label="Planned Study Day of Disposition"/>
               <ItemDef Comment="" DataType="datetime" Length="19"
                    Name="DSSTDTC" OID="DS.DSSTDTC" Origin="COLLECTED" def:Label="Date/Time of Disposition"/>
               <ItemDef Comment="" DataType="integer" Length="8"
                    Name="DSSTDY" OID="DS.DSSTDY" Origin="DERIVED"
                    def:ComputationMethodOID="COMPMETHOD.COMPSTDY"
                    def:DisplayFormat="8.0" def:Label="Study Day of Disposition"/>
               <ItemDef Comment="" DataType="text" Length="8"
                    Name="STUDYID" OID="EX.STUDYID" Origin="OTHER" def:Label="Study Identifier"/>
               <ItemDef Comment="" DataType="text" Length="2"
                    Name="DOMAIN" OID="EX.DOMAIN" Origin="OTHER" def:Label="Domain Abbreviation">
                    <CodeListRef CodeListOID="DOMAIN"/>
               </ItemDef>
               <ItemDef Comment="" DataType="text" Length="13"
                    Name="USUBJID" OID="EX.USUBJID" Origin="OTHER"
                    def:ComputationMethodOID="COMPMETHOD.COMPUSUBJID" def:Label="Unique Subject Identifier"/>
               <ItemDef Comment="" DataType="integer" Length="8"
                    Name="EXSEQ" OID="EX.EXSEQ" Origin="OTHER"
                    def:ComputationMethodOID="COMPMETHOD.COMPSEQ"
                    def:DisplayFormat="8.0" def:Label="Sequence Number"/>
               <ItemDef Comment="" DataType="text" Length="10"
                    Name="EXTRT" OID="EX.EXTRT" Origin="OTHER" def:Label="Name of Actual Treatment"/>
               <ItemDef Comment="" DataType="integer" Length="8"
                    Name="EXDOSE" OID="EX.EXDOSE" Origin="COLLECTED"
                    def:ComputationMethodOID="COMPMETHOD.COMPDOSE"
                    def:DisplayFormat="8.0" def:Label="Dose per Administration"/>
               <ItemDef Comment="" DataType="text" Length="5"
                    Name="EXDOSU" OID="EX.EXDOSU" Origin="COLLECTED" def:Label="Dose Units">
                    <CodeListRef CodeListOID="UNIT"/>
               </ItemDef>
               <ItemDef Comment="" DataType="text" Length="1"
                    Name="EXDOSFRM" OID="EX.EXDOSFRM" Origin="OTHER" def:Label="Dose Form"/>
               <ItemDef Comment="" DataType="text" Length="13"
                    Name="EXDOSFRQ" OID="EX.EXDOSFRQ" Origin="OTHER" def:Label="Dosing Frequency Per Interval">
                    <CodeListRef CodeListOID="FREQ"/>
               </ItemDef>
               <ItemDef Comment="" DataType="text" Length="11"
                    Name="EXROUTE" OID="EX.EXROUTE" Origin="OTHER" def:Label="Route of Administration">
                    <CodeListRef CodeListOID="ROUTE"/>
               </ItemDef>
               <ItemDef Comment="" DataType="text" Length="1"
                    Name="EXLOT" OID="EX.EXLOT" Origin="COLLECTED" def:Label="Lot Number"/>
               <ItemDef Comment="" DataType="text" Length="21"
                    Name="EXTRTV" OID="EX.EXTRTV" Origin="OTHER" def:Label="Treatment Vehicle"/>
               <ItemDef Comment="" DataType="float" Length="8"
                    Name="EXVAMT" OID="EX.EXVAMT" Origin="COLLECTED"
                    SignificantDigits="1" def:DisplayFormat="3.1" def:Label="Amount Administered"/>
               <ItemDef Comment="" DataType="text" Length="2"
                    Name="EXVAMTU" OID="EX.EXVAMTU" Origin="COLLECTED" def:Label="Amount Administered Units">
                    <CodeListRef CodeListOID="UNIT"/>
               </ItemDef>
               <ItemDef Comment="" DataType="datetime" Length="19"
                    Name="EXSTDTC" OID="EX.EXSTDTC" Origin="COLLECTED" def:Label="Start Date/Time of Treatment"/>
               <ItemDef Comment="" DataType="integer" Length="8"
                    Name="EXSTDY" OID="EX.EXSTDY" Origin="DERIVED"
                    def:ComputationMethodOID="COMPMETHOD.COMPSTDY"
                    def:DisplayFormat="8.0" def:Label="Study Day of Start of Treatment"/>
               <ItemDef Comment="" DataType="text" Length="8"
                    Name="STUDYID" OID="LB.STUDYID" Origin="OTHER" def:Label="Study Identifier"/>
               <ItemDef Comment="" DataType="text" Length="2"
                    Name="DOMAIN" OID="LB.DOMAIN" Origin="OTHER" def:Label="Domain Abbreviation">
                    <CodeListRef CodeListOID="DOMAIN"/>
               </ItemDef>
               <ItemDef Comment="" DataType="text" Length="13"
                    Name="USUBJID" OID="LB.USUBJID" Origin="OTHER"
                    def:ComputationMethodOID="COMPMETHOD.COMPUSUBJID" def:Label="Unique Subject Identifier"/>
               <ItemDef Comment="" DataType="integer" Length="8"
                    Name="LBSEQ" OID="LB.LBSEQ" Origin="OTHER"
                    def:ComputationMethodOID="COMPMETHOD.COMPSEQ"
                    def:DisplayFormat="8.0" def:Label="Sequence Number"/>
               <ItemDef Comment="Not populated" DataType="text"
                    Length="6" Name="LBGRPID" OID="LB.LBGRPID"
                    Origin="OTHER" def:Label="Group Identifier"/>
               <ItemDef Comment="" DataType="text" Length="6"
                    Name="LBREFID" OID="LB.LBREFID" Origin="OTHER" def:Label="Specimen Identifier"/>
               <ItemDef
                    Comment="Mapped from test name used during data collection"
                    DataType="text" Length="7" Name="LBTESTCD"
                    OID="LB.LBTESTCD" Origin="DERIVED" def:Label="Lab Test or Examination Short Name">
                    <CodeListRef CodeListOID="LBTESTCD"/>
               </ItemDef>
               <ItemDef Comment="" DataType="text" Length="39"
                    Name="LBTEST" OID="LB.LBTEST" Origin="OTHER" def:Label="Lab Test or Examination Name">
                    <CodeListRef CodeListOID="LBTEST"/>
               </ItemDef>
               <ItemDef
                    Comment="Mapped from the test name used during sample collection"
                    DataType="text" Length="18" Name="LBCAT"
                    OID="LB.LBCAT" Origin="OTHER" def:Label="Category for Lab Test">
                    <def:ValueListRef ValueListOID="ValueList.LB.LBCAT"/>
               </ItemDef>
               <ItemDef Comment="" DataType="text" Length="19"
                    Name="LBSCAT" OID="LB.LBSCAT" Origin="OTHER" def:Label="Subcategory for Lab Test"/>
               <ItemDef Comment="" DataType="text" Length="5"
                    Name="LBORRES" OID="LB.LBORRES" Origin="COLLECTED" def:Label="Result or Findings as Collected"/>
               <ItemDef Comment="" DataType="text" Length="7"
                    Name="LBORRESU" OID="LB.LBORRESU" Origin="COLLECTED" def:Label="Unit of the Original Result">
                    <CodeListRef CodeListOID="UNIT"/>
               </ItemDef>
               <ItemDef Comment="" DataType="text" Length="5"
                    Name="LBSTRESC" OID="LB.LBSTRESC" Origin="DERIVED"
                    def:ComputationMethodOID="COMPMETHOD.COMPSTRESC" def:Label="Standardized Result in Character Format"/>
               <ItemDef Comment="" DataType="float" Length="8"
                    Name="LBSTRESN" OID="LB.LBSTRESN" Origin="DERIVED"
                    SignificantDigits="2"
                    def:ComputationMethodOID="COMPMETHOD.COMPSTRESN"
                    def:DisplayFormat="6.2" def:Label="Standardized Result in Numeric Format"/>
               <ItemDef Comment="" DataType="text" Length="7"
                    Name="LBSTRESU" OID="LB.LBSTRESU" Origin="DERIVED"
                    def:ComputationMethodOID="COMPMETHOD.COMPSTRESU" def:Label="Unit of the Standardized Result">
                    <CodeListRef CodeListOID="UNIT"/>
               </ItemDef>
               <ItemDef
                    Comment="Derived from the test name used during sample collection"
                    DataType="text" Length="11" Name="LBSPEC"
                    OID="LB.LBSPEC" Origin="DERIVED" def:Label="Specimen Type">
                    <CodeListRef CodeListOID="SPEC"/>
               </ItemDef>
               <ItemDef Comment="" DataType="text" Length="1"
                    Name="LBMETHOD" OID="LB.LBMETHOD" Origin="OTHER" def:Label="Method of Test or Examination"/>
               <ItemDef Comment="" DataType="text" Length="1"
                    Name="LBBLFL" OID="LB.LBBLFL" Origin="DERIVED"
                    def:ComputationMethodOID="COMPMETHOD.COMPBLFL" def:Label="Baseline Flag"/>
               <ItemDef Comment="" DataType="integer" Length="8"
                    Name="VISITDY" OID="LB.VISITDY" Origin="DERIVED"
                    def:ComputationMethodOID="COMPMETHOD.COMPVISITDY"
                    def:DisplayFormat="8.0" def:Label="Planned Study Day of Collection"/>
               <ItemDef Comment="" DataType="datetime" Length="19"
                    Name="LBDTC" OID="LB.LBDTC" Origin="COLLECTED" def:Label="Date/Time of Specimen Collection"/>
               <ItemDef Comment="" DataType="integer" Length="8"
                    Name="LBDY" OID="LB.LBDY" Origin="DERIVED"
                    def:ComputationMethodOID="COMPMETHOD.COMPDY"
                    def:DisplayFormat="8.0" def:Label="Study Day of Specimen Collection"/>
               <ItemDef Comment="" DataType="text" Length="9"
                    Name="LBTPT" OID="LB.LBTPT" Origin="COLLECTED" def:Label="Planned Time Point Name"/>
               <ItemDef Comment="" DataType="integer" Length="8"
                    Name="LBTPTNUM" OID="LB.LBTPTNUM" Origin="OTHER"
                    def:ComputationMethodOID="COMPMETHOD.COMPTPTNUM"
                    def:DisplayFormat="8.0" def:Label="Planned Time Point Number"/>
               <ItemDef Comment="" DataType="text" Length="8"
                    Name="STUDYID" OID="MA.STUDYID" Origin="OTHER" def:Label="Study Identifier"/>
               <ItemDef Comment="" DataType="text" Length="2"
                    Name="DOMAIN" OID="MA.DOMAIN" Origin="OTHER" def:Label="Domain Abbreviation">
                    <CodeListRef CodeListOID="DOMAIN"/>
               </ItemDef>
               <ItemDef Comment="" DataType="text" Length="13"
                    Name="USUBJID" OID="MA.USUBJID" Origin="OTHER"
                    def:ComputationMethodOID="COMPMETHOD.COMPUSUBJID" def:Label="Unique Subject Identifier"/>
               <ItemDef Comment="" DataType="integer" Length="8"
                    Name="MASEQ" OID="MA.MASEQ" Origin="OTHER"
                    def:ComputationMethodOID="COMPMETHOD.COMPSEQ"
                    def:DisplayFormat="8.0" def:Label="Sequence Number"/>
               <ItemDef Comment="Not populated" DataType="text"
                    Length="7" Name="MAGRPID" OID="MA.MAGRPID"
                    Origin="OTHER" def:Label="Group Identifier"/>
               <ItemDef Comment="Not populated" DataType="text"
                    Length="7" Name="MAREFID" OID="MA.MAREFID"
                    Origin="OTHER" def:Label="Specimen Reference Identifier"/>
               <ItemDef
                    Comment="Mapped from test name used during data collection"
                    DataType="text" Length="8" Name="MATESTCD"
                    OID="MA.MATESTCD" Origin="DERIVED" def:Label="Macroscopic Examination Short Name">
                    <CodeListRef CodeListOID="MATESTCD"/>
                    <def:ValueListRef ValueListOID="ValueList.MA.MATESTCD"/>
               </ItemDef>
               <ItemDef Comment="" DataType="text" Length="30"
                    Name="MATEST" OID="MA.MATEST" Origin="OTHER" def:Label="Macroscopic Examination Name">
                    <CodeListRef CodeListOID="MATEST"/>
               </ItemDef>
               <ItemDef
                    Comment="A concatenation of the individual observation components collected"
                    DataType="text" Length="44" Name="MAORRES"
                    OID="MA.MAORRES" Origin="DERIVED" def:Label="Result or Findings as Collected"/>
               <ItemDef Comment="" DataType="text" Length="16"
                    Name="MASTRESC" OID="MA.MASTRESC" Origin="COLLECTED" def:Label="Standardized Result in Character Format"/>
               <ItemDef Comment="" DataType="text" Length="30"
                    Name="MASPEC" OID="MA.MASPEC" Origin="DERIVED"
                    def:ComputationMethodOID="COMPMETHOD.COMPTISSUE" def:Label="Specimen Material Type">
                    <CodeListRef CodeListOID="SPEC"/>
               </ItemDef>
               <ItemDef Comment="" DataType="text" Length="1"
                    Name="MAANTREG" OID="MA.MAANTREG" Origin="DERIVED"
                    def:ComputationMethodOID="COMPMETHOD.COMPTISSUE" def:Label="Anatomical Region of Specimen"/>
               <ItemDef Comment="" DataType="text" Length="8"
                    Name="MASEV" OID="MA.MASEV" Origin="COLLECTED" def:Label="Severity">
                    <CodeListRef CodeListOID="SEV"/>
               </ItemDef>
               <ItemDef Comment="" DataType="datetime" Length="19"
                    Name="MADTC" OID="MA.MADTC" Origin="COLLECTED" def:Label="Date/Time of Collection"/>
               <ItemDef Comment="" DataType="integer" Length="8"
                    Name="MADY" OID="MA.MADY" Origin="DERIVED"
                    def:ComputationMethodOID="COMPMETHOD.COMPDY"
                    def:DisplayFormat="8.0" def:Label="Study Day of Specimen Collection"/>
               <ItemDef Comment="" DataType="text" Length="8"
                    Name="STUDYID" OID="MI.STUDYID" Origin="OTHER" def:Label="Study Identifier"/>
               <ItemDef Comment="" DataType="text" Length="2"
                    Name="DOMAIN" OID="MI.DOMAIN" Origin="OTHER" def:Label="Domain Abbreviation">
                    <CodeListRef CodeListOID="DOMAIN"/>
               </ItemDef>
               <ItemDef Comment="" DataType="text" Length="13"
                    Name="USUBJID" OID="MI.USUBJID" Origin="OTHER"
                    def:ComputationMethodOID="COMPMETHOD.COMPUSUBJID" def:Label="Unique Subject Identifier"/>
               <ItemDef Comment="" DataType="integer" Length="8"
                    Name="MISEQ" OID="MI.MISEQ" Origin="OTHER"
                    def:ComputationMethodOID="COMPMETHOD.COMPSEQ"
                    def:DisplayFormat="8.0" def:Label="Sequence Number"/>
               <ItemDef Comment="Not populated" DataType="text"
                    Length="7" Name="MIGRPID" OID="MI.MIGRPID"
                    Origin="OTHER" def:Label="Group Identifier"/>
               <ItemDef Comment="Not populated" DataType="text"
                    Length="7" Name="MIREFID" OID="MI.MIREFID"
                    Origin="OTHER" def:Label="Specimen Reference Identifier"/>
               <ItemDef
                    Comment="Mapped from test name used during data collection"
                    DataType="text" Length="6" Name="MITESTCD"
                    OID="MI.MITESTCD" Origin="DERIVED" def:Label="Microscopic Examination Short Name">
                    <CodeListRef CodeListOID="MITESTCD"/>
                    <def:ValueListRef ValueListOID="ValueList.MI.MITESTCD"/>
               </ItemDef>
               <ItemDef Comment="" DataType="text" Length="23"
                    Name="MITEST" OID="MI.MITEST" Origin="OTHER" def:Label="Microscopic Examination Name">
                    <CodeListRef CodeListOID="MITEST"/>
               </ItemDef>
               <ItemDef
                    Comment="A concatenation of the individual observation components collected"
                    DataType="text" Length="99" Name="MIORRES"
                    OID="MI.MIORRES" Origin="DERIVED" def:Label="Result or Findings as Collected"/>
               <ItemDef Comment="" DataType="text" Length="90"
                    Name="MISTRESC" OID="MI.MISTRESC" Origin="COLLECTED" def:Label="Standardized Result in Character Format"/>
               <ItemDef Comment="" DataType="text" Length="14"
                    Name="MIRESCAT" OID="MI.MIRESCAT" Origin="COLLECTED" def:Label="Result Category">
                    <CodeListRef CodeListOID="MIRESCAT"/>
                    <def:ValueListRef ValueListOID="ValueList.MI.MIRESCAT"/>
               </ItemDef>
               <ItemDef Comment="" DataType="text" Length="8"
                    Name="MISTAT" OID="MI.MISTAT" Origin="COLLECTED" def:Label="Completion Status">
                    <CodeListRef CodeListOID="ND"/>
               </ItemDef>
               <ItemDef Comment="" DataType="text" Length="7"
                    Name="MIREASND" OID="MI.MIREASND" Origin="COLLECTED" def:Label="Reason Not Done"/>
               <ItemDef Comment="" DataType="text" Length="25"
                    Name="MISPEC" OID="MI.MISPEC" Origin="DERIVED"
                    def:ComputationMethodOID="COMPMETHOD.COMPTISSUE" def:Label="Specimen Material Type">
                    <CodeListRef CodeListOID="SPEC"/>
               </ItemDef>
               <ItemDef Comment="" DataType="text" Length="1"
                    Name="MISPCCND" OID="MI.MISPCCND" Origin="OTHER" def:Label="Specimen Condition"/>
               <ItemDef Comment="" DataType="text" Length="1"
                    Name="MISPCUFL" OID="MI.MISPCUFL" Origin="OTHER" def:Label="Specimen Usability for the Test"/>
               <ItemDef Comment="" DataType="text" Length="8"
                    Name="MISEV" OID="MI.MISEV" Origin="COLLECTED" def:Label="Severity">
                    <CodeListRef CodeListOID="SEV"/>
               </ItemDef>
               <ItemDef Comment="" DataType="datetime" Length="19"
                    Name="MIDTC" OID="MI.MIDTC" Origin="COLLECTED" def:Label="Date/Time of Specimen Collection"/>
               <ItemDef Comment="" DataType="integer" Length="8"
                    Name="MIDY" OID="MI.MIDY" Origin="DERIVED"
                    def:ComputationMethodOID="COMPMETHOD.COMPDY"
                    def:DisplayFormat="8.0" def:Label="Study Day of Specimen Collection"/>
               <ItemDef Comment="" DataType="text" Length="8"
                    Name="STUDYID" OID="OM.STUDYID" Origin="OTHER" def:Label="Study Identifier"/>
               <ItemDef Comment="" DataType="text" Length="2"
                    Name="DOMAIN" OID="OM.DOMAIN" Origin="OTHER" def:Label="Domain Abbreviation">
                    <CodeListRef CodeListOID="DOMAIN"/>
               </ItemDef>
               <ItemDef Comment="" DataType="text" Length="13"
                    Name="USUBJID" OID="OM.USUBJID" Origin="OTHER"
                    def:ComputationMethodOID="COMPMETHOD.COMPUSUBJID" def:Label="Unique Subject Identifier"/>
               <ItemDef Comment="" DataType="integer" Length="8"
                    Name="OMSEQ" OID="OM.OMSEQ" Origin="OTHER"
                    def:ComputationMethodOID="COMPMETHOD.COMPSEQ"
                    def:DisplayFormat="8.0" def:Label="Sequence Number"/>
               <ItemDef
                    Comment="Mapped from test name used during data collection"
                    DataType="text" Length="6" Name="OMTESTCD"
                    OID="OM.OMTESTCD" Origin="DERIVED" def:Label="Test Short Name">
                    <CodeListRef CodeListOID="OMTESTCD"/>
                    <def:ValueListRef ValueListOID="ValueList.OM.OMTESTCD"/>
               </ItemDef>
               <ItemDef Comment="" DataType="text" Length="26"
                    Name="OMTEST" OID="OM.OMTEST" Origin="OTHER" def:Label="Test Name">
                    <CodeListRef CodeListOID="OMTEST"/>
               </ItemDef>
               <ItemDef Comment="" DataType="text" Length="6"
                    Name="OMORRES" OID="OM.OMORRES" Origin="COLLECTED" def:Label="Result or Findings as Collected"/>
               <ItemDef Comment="" DataType="text" Length="1"
                    Name="OMORRESU" OID="OM.OMORRESU" Origin="COLLECTED" def:Label="Unit of the Original Result">
                    <CodeListRef CodeListOID="UNIT"/>
               </ItemDef>
               <ItemDef Comment="" DataType="text" Length="6"
                    Name="OMSTRESC" OID="OM.OMSTRESC" Origin="DERIVED"
                    def:ComputationMethodOID="COMPMETHOD.COMPSTRESC" def:Label="Standardized Result in Character Format"/>
               <ItemDef Comment="" DataType="float" Length="8"
                    Name="OMSTRESN" OID="OM.OMSTRESN" Origin="DERIVED"
                    SignificantDigits="3"
                    def:ComputationMethodOID="COMPMETHOD.COMPSTRESN"
                    def:DisplayFormat="6.3" def:Label="Standardized Result in Numeric Format"/>
               <ItemDef Comment="" DataType="text" Length="1"
                    Name="OMSTRESU" OID="OM.OMSTRESU" Origin="DERIVED"
                    def:ComputationMethodOID="COMPMETHOD.COMPSTRESU" def:Label="Unit of the Standardized Result">
                    <CodeListRef CodeListOID="UNIT"/>
               </ItemDef>
               <ItemDef Comment="" DataType="text" Length="16"
                    Name="OMSPEC" OID="OM.OMSPEC" Origin="DERIVED"
                    def:ComputationMethodOID="COMPMETHOD.COMPTISSUE" def:Label="Specimen Material Type">
                    <CodeListRef CodeListOID="SPEC"/>
               </ItemDef>
               <ItemDef Comment="" DataType="datetime" Length="19"
                    Name="OMDTC" OID="OM.OMDTC" Origin="COLLECTED" def:Label="Date/Time Organ Weighed"/>
               <ItemDef Comment="" DataType="integer" Length="8"
                    Name="OMDY" OID="OM.OMDY" Origin="DERIVED"
                    def:ComputationMethodOID="COMPMETHOD.COMPDY"
                    def:DisplayFormat="8.0" def:Label="Study Day of Weighing"/>
               <ItemDef Comment="" DataType="text" Length="8"
                    Name="STUDYID" OID="PC.STUDYID" Origin="OTHER" def:Label="Study Identifier"/>
               <ItemDef Comment="" DataType="text" Length="2"
                    Name="DOMAIN" OID="PC.DOMAIN" Origin="OTHER" def:Label="Domain Abbreviation">
                    <CodeListRef CodeListOID="DOMAIN"/>
               </ItemDef>
               <ItemDef Comment="" DataType="text" Length="13"
                    Name="USUBJID" OID="PC.USUBJID" Origin="OTHER"
                    def:ComputationMethodOID="COMPMETHOD.COMPUSUBJID" def:Label="Unique Subject Identifier"/>
               <ItemDef Comment="" DataType="integer" Length="8"
                    Name="PCSEQ" OID="PC.PCSEQ" Origin="OTHER"
                    def:ComputationMethodOID="COMPMETHOD.COMPSEQ"
                    def:DisplayFormat="8.0" def:Label="Sequence Number"/>
               <ItemDef
                    Comment="Mapped from test name used during data collection"
                    DataType="text" Length="8" Name="PCTESTCD"
                    OID="PC.PCTESTCD" Origin="DERIVED" def:Label="Test Short Name">
                    <def:ValueListRef ValueListOID="ValueList.PC.PCTESTCD"/>
               </ItemDef>
               <ItemDef Comment="" DataType="text" Length="35"
                    Name="PCTEST" OID="PC.PCTEST" Origin="OTHER" def:Label="Test Name"/>
               <ItemDef Comment="" DataType="text" Length="24"
                    Name="PCORRES" OID="PC.PCORRES" Origin="COLLECTED" def:Label="Result or Findings as Collected"/>
               <ItemDef Comment="" DataType="text" Length="5"
                    Name="PCORRESU" OID="PC.PCORRESU" Origin="COLLECTED" def:Label="Unit of the Original Result">
                    <CodeListRef CodeListOID="PKUNIT"/>
               </ItemDef>
               <ItemDef Comment="" DataType="text" Length="24"
                    Name="PCSTRESC" OID="PC.PCSTRESC" Origin="DERIVED"
                    def:ComputationMethodOID="COMPMETHOD.COMPSTRESC" def:Label="Standardized Result in Character Format"/>
               <ItemDef Comment="" DataType="float" Length="8"
                    Name="PCSTRESN" OID="PC.PCSTRESN" Origin="DERIVED"
                    SignificantDigits="3"
                    def:ComputationMethodOID="COMPMETHOD.COMPSTRESN"
                    def:DisplayFormat="7.3" def:Label="Standardized Result in Numeric Format"/>
               <ItemDef Comment="" DataType="text" Length="5"
                    Name="PCSTRESU" OID="PC.PCSTRESU" Origin="DERIVED"
                    def:ComputationMethodOID="COMPMETHOD.COMPSTRESU" def:Label="Unit of the Standardized Result">
                    <CodeListRef CodeListOID="PKUNIT"/>
               </ItemDef>
               <ItemDef Comment="" DataType="text" Length="8"
                    Name="PCSTAT" OID="PC.PCSTAT" Origin="COLLECTED" def:Label="Completion Status">
                    <CodeListRef CodeListOID="ND"/>
               </ItemDef>
               <ItemDef Comment="" DataType="text" Length="10"
                    Name="PCREASND" OID="PC.PCREASND" Origin="COLLECTED" def:Label="Reason Not Done"/>
               <ItemDef Comment="Not populated" DataType="text"
                    Length="37" Name="PCNAM" OID="PC.PCNAM"
                    Origin="OTHER" def:Label="Vendor Name"/>
               <ItemDef Comment="" DataType="text" Length="6"
                    Name="PCSPEC" OID="PC.PCSPEC" Origin="DERIVED"
                    def:ComputationMethodOID="COMPMETHOD.COMPTISSUE" def:Label="Specimen Material Type">
                    <CodeListRef CodeListOID="SPEC"/>
               </ItemDef>
               <ItemDef Comment="" DataType="text" Length="38"
                    Name="PCMETHOD" OID="PC.PCMETHOD" Origin="OTHER" def:Label="Method of Test or Examination"/>
               <ItemDef Comment="" DataType="text" Length="1"
                    Name="PCBLFL" OID="PC.PCBLFL" Origin="DERIVED"
                    def:ComputationMethodOID="COMPMETHOD.COMPBLFL" def:Label="Baseline Flag"/>
               <ItemDef Comment="" DataType="float" Length="8"
                    Name="PCLLOQ" OID="PC.PCLLOQ" Origin="OTHER"
                    SignificantDigits="2" def:DisplayFormat="4.2" def:Label="Lower Limit of Quantitation"/>
               <ItemDef Comment="" DataType="integer" Length="8"
                    Name="VISITDY" OID="PC.VISITDY" Origin="DERIVED"
                    def:ComputationMethodOID="COMPMETHOD.COMPVISITDY"
                    def:DisplayFormat="8.0" def:Label="Visit Day"/>
               <ItemDef Comment="" DataType="datetime" Length="19"
                    Name="PCDTC" OID="PC.PCDTC" Origin="COLLECTED" def:Label="Date/Time of Specimen Collection"/>
               <ItemDef Comment="" DataType="integer" Length="8"
                    Name="PCDY" OID="PC.PCDY" Origin="DERIVED"
                    def:ComputationMethodOID="COMPMETHOD.COMPDY"
                    def:DisplayFormat="8.0" def:Label="Study Day of Specimen Collection"/>
               <ItemDef Comment="" DataType="text" Length="4"
                    Name="PCTPT" OID="PC.PCTPT" Origin="COLLECTED" def:Label="Planned Time Point Name"/>
               <ItemDef Comment="" DataType="integer" Length="8"
                    Name="PCTPTNUM" OID="PC.PCTPTNUM" Origin="OTHER"
                    def:ComputationMethodOID="COMPMETHOD.COMPTPTNUM"
                    def:DisplayFormat="8.0" def:Label="Planned Time Point Number"/>
               <ItemDef Comment="" DataType="text" Length="7"
                    Name="PCELTM" OID="PC.PCELTM" Origin="DERIVED" def:Label="Planned Elapsed Time from Time Point Ref"/>
               <ItemDef Comment="" DataType="text" Length="11"
                    Name="PCTPTREF" OID="PC.PCTPTREF" Origin="OTHER" def:Label="Time Point Reference"/>
               <ItemDef Comment="" DataType="datetime" Length="19"
                    Name="PCRFTDTC" OID="PC.PCRFTDTC" Origin="COLLECTED" def:Label="Date/Time of Reference Point"/>
               <ItemDef Comment="" DataType="text" Length="8"
                    Name="STUDYID" OID="PP.STUDYID" Origin="OTHER" def:Label="Study Identifier"/>
               <ItemDef Comment="" DataType="text" Length="2"
                    Name="DOMAIN" OID="PP.DOMAIN" Origin="OTHER" def:Label="Domain Abbreviation">
                    <CodeListRef CodeListOID="DOMAIN"/>
               </ItemDef>
               <ItemDef Comment="" DataType="text" Length="13"
                    Name="USUBJID" OID="PP.USUBJID" Origin="OTHER"
                    def:ComputationMethodOID="COMPMETHOD.COMPUSUBJID" def:Label="Unique Subject Identifier"/>
               <ItemDef Comment="" DataType="integer" Length="8"
                    Name="PPSEQ" OID="PP.PPSEQ" Origin="OTHER"
                    def:ComputationMethodOID="COMPMETHOD.COMPSEQ"
                    def:DisplayFormat="8.0" def:Label="Sequence Number"/>
               <ItemDef
                    Comment="Mapped from test name used during data collection"
                    DataType="text" Length="7" Name="PPTESTCD"
                    OID="PP.PPTESTCD" Origin="DERIVED" def:Label="Parameter Short Name">
                    <CodeListRef CodeListOID="PKPARMCD"/>
               </ItemDef>
               <ItemDef Comment="" DataType="text" Length="30"
                    Name="PPTEST" OID="PP.PPTEST" Origin="OTHER" def:Label="Parameter Name">
                    <CodeListRef CodeListOID="PKPARM"/>
               </ItemDef>
               <ItemDef Comment="" DataType="text" Length="36"
                    Name="PPCAT" OID="PP.PPCAT" Origin="OTHER" def:Label="Parameter Category">
                    <def:ValueListRef ValueListOID="ValueList.PP.PPCAT"/>
               </ItemDef>
               <ItemDef Comment="" DataType="text" Length="5"
                    Name="PPORRES" OID="PP.PPORRES" Origin="COLLECTED" def:Label="Result or Findings as Collected"/>
               <ItemDef Comment="" DataType="text" Length="15"
                    Name="PPORRESU" OID="PP.PPORRESU" Origin="COLLECTED" def:Label="Unit of the Original Result">
                    <CodeListRef CodeListOID="PKUNIT"/>
               </ItemDef>
               <ItemDef Comment="" DataType="text" Length="5"
                    Name="PPSTRESC" OID="PP.PPSTRESC" Origin="DERIVED"
                    def:ComputationMethodOID="COMPMETHOD.COMPSTRESC" def:Label="Standardized Result in Character Format"/>
               <ItemDef Comment="" DataType="float" Length="8"
                    Name="PPSTRESN" OID="PP.PPSTRESN" Origin="DERIVED"
                    SignificantDigits="3"
                    def:ComputationMethodOID="COMPMETHOD.COMPSTRESN"
                    def:DisplayFormat="7.3" def:Label="Standardized Result in Numeric Format"/>
               <ItemDef Comment="" DataType="text" Length="15"
                    Name="PPSTRESU" OID="PP.PPSTRESU" Origin="DERIVED"
                    def:ComputationMethodOID="COMPMETHOD.COMPSTRESU" def:Label="Unit of the Standardized Result">
                    <CodeListRef CodeListOID="PKUNIT"/>
               </ItemDef>
               <ItemDef Comment="" DataType="text" Length="8"
                    Name="PPSTAT" OID="PP.PPSTAT" Origin="COLLECTED" def:Label="Completion Status">
                    <CodeListRef CodeListOID="ND"/>
               </ItemDef>
               <ItemDef Comment="" DataType="text" Length="14"
                    Name="PPREASND" OID="PP.PPREASND" Origin="COLLECTED" def:Label="Reason Not Done"/>
               <ItemDef Comment="" DataType="text" Length="6"
                    Name="PPSPEC" OID="PP.PPSPEC" Origin="DERIVED"
                    def:ComputationMethodOID="COMPMETHOD.COMPTISSUE" def:Label="Specimen Material Type">
                    <CodeListRef CodeListOID="SPEC"/>
               </ItemDef>
               <ItemDef Comment="" DataType="integer" Length="8"
                    Name="VISITDY" OID="PP.VISITDY" Origin="DERIVED"
                    def:ComputationMethodOID="COMPMETHOD.COMPVISITDY"
                    def:DisplayFormat="8.0" def:Label="Planned Study Day of Collection"/>
               <ItemDef Comment="" DataType="text" Length="11"
                    Name="PPTPTREF" OID="PP.PPTPTREF" Origin="OTHER" def:Label="Time Point Reference"/>
               <ItemDef Comment="" DataType="datetime" Length="19"
                    Name="PPRFTDTC" OID="PP.PPRFTDTC" Origin="COLLECTED" def:Label="Date/Time of Reference Point"/>
               <ItemDef Comment="" DataType="text" Length="4"
                    Name="PPSTINT" OID="PP.PPSTINT" Origin="OTHER" def:Label="Start of Evaluation Interval"/>
               <ItemDef Comment="" DataType="text" Length="6"
                    Name="PPENINT" OID="PP.PPENINT" Origin="OTHER" def:Label="End of Evaluation Interval"/>
               <ItemDef Comment="" DataType="text" Length="8"
                    Name="STUDYID" OID="SE.STUDYID" Origin="OTHER" def:Label="Study Identifier"/>
               <ItemDef Comment="" DataType="text" Length="2"
                    Name="DOMAIN" OID="SE.DOMAIN" Origin="OTHER" def:Label="Domain Abbreviation">
                    <CodeListRef CodeListOID="DOMAIN"/>
               </ItemDef>
               <ItemDef Comment="" DataType="text" Length="13"
                    Name="USUBJID" OID="SE.USUBJID" Origin="OTHER"
                    def:ComputationMethodOID="COMPMETHOD.COMPUSUBJID" def:Label="Unique Subject Identifier"/>
               <ItemDef Comment="" DataType="integer" Length="8"
                    Name="SESEQ" OID="SE.SESEQ" Origin="OTHER"
                    def:ComputationMethodOID="COMPMETHOD.COMPSEQ"
                    def:DisplayFormat="8.0" def:Label="Sequence Number"/>
               <ItemDef Comment="" DataType="text" Length="4"
                    Name="ETCD" OID="SE.ETCD" Origin="OTHER" def:Label="Element Code"/>
               <ItemDef Comment="" DataType="text" Length="28"
                    Name="ELEMENT" OID="SE.ELEMENT" Origin="OTHER" def:Label="Description of Element"/>
               <ItemDef Comment="" DataType="date" Length="10"
                    Name="SESTDTC" OID="SE.SESTDTC" Origin="COLLECTED" def:Label="Start Date/Time of Element"/>
               <ItemDef Comment="" DataType="datetime" Length="19"
                    Name="SEENDTC" OID="SE.SEENDTC" Origin="COLLECTED" def:Label="End Date/Time of Element"/>
               <ItemDef Comment="" DataType="text" Length="8"
                    Name="STUDYID" OID="SUPPBG.STUDYID" Origin="OTHER" def:Label="Study Identifier"/>
               <ItemDef Comment="" DataType="text" Length="2"
                    Name="RDOMAIN" OID="SUPPBG.RDOMAIN" Origin="OTHER" def:Label="Related Domain Abbreviation">
                    <CodeListRef CodeListOID="DOMAIN"/>
               </ItemDef>
               <ItemDef Comment="" DataType="text" Length="13"
                    Name="USUBJID" OID="SUPPBG.USUBJID" Origin="OTHER"
                    def:ComputationMethodOID="COMPMETHOD.COMPUSUBJID" def:Label="Unique Subject Identifier"/>
               <ItemDef Comment="" DataType="text" Length="5"
                    Name="IDVAR" OID="SUPPBG.IDVAR" Origin="OTHER" def:Label="Identifying Variable"/>
               <ItemDef Comment="" DataType="text" Length="2"
                    Name="IDVARVAL" OID="SUPPBG.IDVARVAL" Origin="OTHER" def:Label="Identifying Variable Value"/>
               <ItemDef Comment="" DataType="text" Length="8"
                    Name="QNAM" OID="SUPPBG.QNAM" Origin="OTHER" def:Label="Qualifier Variable Name">
                    <def:ValueListRef ValueListOID="ValueList.SUPPBG.QNAM"/>
               </ItemDef>
               <ItemDef Comment="" DataType="text" Length="18"
                    Name="QLABEL" OID="SUPPBG.QLABEL" Origin="OTHER" def:Label="Qualifier Variable Label"/>
               <ItemDef Comment="" DataType="text" Length="8"
                    Name="QVAL" OID="SUPPBG.QVAL" Origin="COLLECTED" def:Label="Data Value"/>
               <ItemDef Comment="" DataType="text" Length="9"
                    Name="QORIG" OID="SUPPBG.QORIG" Origin="OTHER" def:Label="Origin"/>
               <ItemDef Comment="" DataType="text" Length="1"
                    Name="QEVAL" OID="SUPPBG.QEVAL" Origin=" " def:Label="Evaluator"/>
               <ItemDef Comment="" DataType="text" Length="8"
                    Name="STUDYID" OID="SUPPBW.STUDYID" Origin="OTHER" def:Label="Study Identifier"/>
               <ItemDef Comment="" DataType="text" Length="2"
                    Name="RDOMAIN" OID="SUPPBW.RDOMAIN" Origin="OTHER" def:Label="Related Domain Abbreviation">
                    <CodeListRef CodeListOID="DOMAIN"/>
               </ItemDef>
               <ItemDef Comment="" DataType="text" Length="13"
                    Name="USUBJID" OID="SUPPBW.USUBJID" Origin="OTHER"
                    def:ComputationMethodOID="COMPMETHOD.COMPUSUBJID" def:Label="Unique Subject Identifier"/>
               <ItemDef Comment="" DataType="text" Length="5"
                    Name="IDVAR" OID="SUPPBW.IDVAR" Origin="OTHER" def:Label="Identifying Variable"/>
               <ItemDef Comment="" DataType="text" Length="3"
                    Name="IDVARVAL" OID="SUPPBW.IDVARVAL" Origin="OTHER" def:Label="Identifying Variable Value"/>
               <ItemDef Comment="" DataType="text" Length="8"
                    Name="QNAM" OID="SUPPBW.QNAM" Origin="OTHER" def:Label="Qualifier Variable Name">
                    <def:ValueListRef ValueListOID="ValueList.SUPPBW.QNAM"/>
               </ItemDef>
               <ItemDef Comment="" DataType="text" Length="12"
                    Name="QLABEL" OID="SUPPBW.QLABEL" Origin="OTHER" def:Label="Qualifier Variable Label"/>
               <ItemDef Comment="" DataType="text" Length="8"
                    Name="QVAL" OID="SUPPBW.QVAL" Origin="COLLECTED" def:Label="Data Value"/>
               <ItemDef Comment="" DataType="text" Length="9"
                    Name="QORIG" OID="SUPPBW.QORIG" Origin="OTHER" def:Label="Origin"/>
               <ItemDef Comment="" DataType="text" Length="1"
                    Name="QEVAL" OID="SUPPBW.QEVAL" Origin=" " def:Label="Evaluator"/>
               <ItemDef Comment="" DataType="text" Length="8"
                    Name="STUDYID" OID="SUPPCL.STUDYID" Origin="OTHER" def:Label="Study Identifier"/>
               <ItemDef Comment="" DataType="text" Length="2"
                    Name="RDOMAIN" OID="SUPPCL.RDOMAIN" Origin="OTHER" def:Label="Related Domain Abbreviation">
                    <CodeListRef CodeListOID="DOMAIN"/>
               </ItemDef>
               <ItemDef Comment="" DataType="text" Length="13"
                    Name="USUBJID" OID="SUPPCL.USUBJID" Origin="OTHER"
                    def:ComputationMethodOID="COMPMETHOD.COMPUSUBJID" def:Label="Unique Subject Identifier"/>
               <ItemDef Comment="" DataType="text" Length="5"
                    Name="IDVAR" OID="SUPPCL.IDVAR" Origin="OTHER" def:Label="Identifying Variable"/>
               <ItemDef Comment="" DataType="text" Length="3"
                    Name="IDVARVAL" OID="SUPPCL.IDVARVAL" Origin="OTHER" def:Label="Identifying Variable Value"/>
               <ItemDef Comment="" DataType="text" Length="8"
                    Name="QNAM" OID="SUPPCL.QNAM" Origin="OTHER" def:Label="Qualifier Variable Name">
                    <def:ValueListRef ValueListOID="ValueList.SUPPCL.QNAM"/>
               </ItemDef>
               <ItemDef Comment="" DataType="text" Length="12"
                    Name="QLABEL" OID="SUPPCL.QLABEL" Origin="OTHER" def:Label="Qualifier Variable Label"/>
               <ItemDef Comment="" DataType="text" Length="8"
                    Name="QVAL" OID="SUPPCL.QVAL" Origin="COLLECTED" def:Label="Data Value"/>
               <ItemDef Comment="" DataType="text" Length="9"
                    Name="QORIG" OID="SUPPCL.QORIG" Origin="OTHER" def:Label="Origin"/>
               <ItemDef Comment="" DataType="text" Length="1"
                    Name="QEVAL" OID="SUPPCL.QEVAL" Origin=" " def:Label="Evaluator"/>
               <ItemDef Comment="" DataType="text" Length="8"
                    Name="STUDYID" OID="SUPPDS.STUDYID" Origin="OTHER" def:Label="Study Identifier"/>
               <ItemDef Comment="" DataType="text" Length="2"
                    Name="RDOMAIN" OID="SUPPDS.RDOMAIN" Origin="OTHER" def:Label="Related Domain Abbreviation">
                    <CodeListRef CodeListOID="DOMAIN"/>
               </ItemDef>
               <ItemDef Comment="" DataType="text" Length="13"
                    Name="USUBJID" OID="SUPPDS.USUBJID" Origin="OTHER"
                    def:ComputationMethodOID="COMPMETHOD.COMPUSUBJID" def:Label="Unique Subject Identifier"/>
               <ItemDef Comment="" DataType="text" Length="5"
                    Name="IDVAR" OID="SUPPDS.IDVAR" Origin="OTHER" def:Label="Identifying Variable"/>
               <ItemDef Comment="" DataType="text" Length="2"
                    Name="IDVARVAL" OID="SUPPDS.IDVARVAL" Origin="OTHER" def:Label="Identifying Variable Value"/>
               <ItemDef Comment="" DataType="text" Length="8"
                    Name="QNAM" OID="SUPPDS.QNAM" Origin="OTHER" def:Label="Qualifier Variable Name">
                    <def:ValueListRef ValueListOID="ValueList.SUPPDS.QNAM"/>
               </ItemDef>
               <ItemDef Comment="" DataType="text" Length="12"
                    Name="QLABEL" OID="SUPPDS.QLABEL" Origin="OTHER" def:Label="Qualifier Variable Label"/>
               <ItemDef Comment="" DataType="text" Length="6"
                    Name="QVAL" OID="SUPPDS.QVAL" Origin="COLLECTED" def:Label="Data Value"/>
               <ItemDef Comment="" DataType="text" Length="9"
                    Name="QORIG" OID="SUPPDS.QORIG" Origin="OTHER" def:Label="Origin"/>
               <ItemDef Comment="" DataType="text" Length="1"
                    Name="QEVAL" OID="SUPPDS.QEVAL" Origin=" " def:Label="Evaluator"/>
               <ItemDef Comment="" DataType="text" Length="8"
                    Name="STUDYID" OID="SUPPLB.STUDYID" Origin="OTHER" def:Label="Study Identifier"/>
               <ItemDef Comment="" DataType="text" Length="2"
                    Name="RDOMAIN" OID="SUPPLB.RDOMAIN" Origin="OTHER" def:Label="Related Domain Abbreviation">
                    <CodeListRef CodeListOID="DOMAIN"/>
               </ItemDef>
               <ItemDef Comment="" DataType="text" Length="13"
                    Name="USUBJID" OID="SUPPLB.USUBJID" Origin="OTHER"
                    def:ComputationMethodOID="COMPMETHOD.COMPUSUBJID" def:Label="Unique Subject Identifier"/>
               <ItemDef Comment="" DataType="text" Length="5"
                    Name="IDVAR" OID="SUPPLB.IDVAR" Origin="OTHER" def:Label="Identifying Variable"/>
               <ItemDef Comment="" DataType="text" Length="4"
                    Name="IDVARVAL" OID="SUPPLB.IDVARVAL" Origin="OTHER" def:Label="Identifying Variable Value"/>
               <ItemDef Comment="" DataType="text" Length="8"
                    Name="QNAM" OID="SUPPLB.QNAM" Origin="OTHER" def:Label="Qualifier Variable Name">
                    <def:ValueListRef ValueListOID="ValueList.SUPPLB.QNAM"/>
               </ItemDef>
               <ItemDef Comment="" DataType="text" Length="12"
                    Name="QLABEL" OID="SUPPLB.QLABEL" Origin="OTHER" def:Label="Qualifier Variable Label"/>
               <ItemDef Comment="" DataType="text" Length="8"
                    Name="QVAL" OID="SUPPLB.QVAL" Origin="COLLECTED" def:Label="Data Value"/>
               <ItemDef Comment="" DataType="text" Length="9"
                    Name="QORIG" OID="SUPPLB.QORIG" Origin="OTHER" def:Label="Origin"/>
               <ItemDef Comment="" DataType="text" Length="1"
                    Name="QEVAL" OID="SUPPLB.QEVAL" Origin=" " def:Label="Evaluator"/>
               <ItemDef Comment="" DataType="text" Length="8"
                    Name="STUDYID" OID="SUPPMA.STUDYID" Origin="OTHER" def:Label="Study Identifier"/>
               <ItemDef Comment="" DataType="text" Length="2"
                    Name="RDOMAIN" OID="SUPPMA.RDOMAIN" Origin="OTHER" def:Label="Related Domain Abbreviation">
                    <CodeListRef CodeListOID="DOMAIN"/>
               </ItemDef>
               <ItemDef Comment="" DataType="text" Length="13"
                    Name="USUBJID" OID="SUPPMA.USUBJID" Origin="OTHER"
                    def:ComputationMethodOID="COMPMETHOD.COMPUSUBJID" def:Label="Unique Subject Identifier"/>
               <ItemDef Comment="" DataType="text" Length="5"
                    Name="IDVAR" OID="SUPPMA.IDVAR" Origin="OTHER" def:Label="Identifying Variable"/>
               <ItemDef Comment="" DataType="text" Length="3"
                    Name="IDVARVAL" OID="SUPPMA.IDVARVAL" Origin="OTHER" def:Label="Identifying Variable Value"/>
               <ItemDef Comment="" DataType="text" Length="8"
                    Name="QNAM" OID="SUPPMA.QNAM" Origin="OTHER" def:Label="Qualifier Variable Name">
                    <def:ValueListRef ValueListOID="ValueList.SUPPMA.QNAM"/>
               </ItemDef>
               <ItemDef Comment="" DataType="text" Length="16"
                    Name="QLABEL" OID="SUPPMA.QLABEL" Origin="OTHER" def:Label="Qualifier Variable Label"/>
               <ItemDef Comment="" DataType="text" Length="29"
                    Name="QVAL" OID="SUPPMA.QVAL" Origin="COLLECTED" def:Label="Data Value"/>
               <ItemDef Comment="" DataType="text" Length="9"
                    Name="QORIG" OID="SUPPMA.QORIG" Origin="OTHER" def:Label="Origin"/>
               <ItemDef Comment="" DataType="text" Length="1"
                    Name="QEVAL" OID="SUPPMA.QEVAL" Origin=" " def:Label="Evaluator"/>
               <ItemDef Comment="" DataType="text" Length="8"
                    Name="STUDYID" OID="SUPPMI.STUDYID" Origin="OTHER" def:Label="Study Identifier"/>
               <ItemDef Comment="" DataType="text" Length="2"
                    Name="RDOMAIN" OID="SUPPMI.RDOMAIN" Origin="OTHER" def:Label="Related Domain Abbreviation">
                    <CodeListRef CodeListOID="DOMAIN"/>
               </ItemDef>
               <ItemDef Comment="" DataType="text" Length="13"
                    Name="USUBJID" OID="SUPPMI.USUBJID" Origin="OTHER"
                    def:ComputationMethodOID="COMPMETHOD.COMPUSUBJID" def:Label="Unique Subject Identifier"/>
               <ItemDef Comment="" DataType="text" Length="5"
                    Name="IDVAR" OID="SUPPMI.IDVAR" Origin="OTHER" def:Label="Identifying Variable"/>
               <ItemDef Comment="" DataType="text" Length="3"
                    Name="IDVARVAL" OID="SUPPMI.IDVARVAL" Origin="OTHER" def:Label="Identifying Variable Value"/>
               <ItemDef Comment="" DataType="text" Length="8"
                    Name="QNAM" OID="SUPPMI.QNAM" Origin="OTHER" def:Label="Qualifier Variable Name">
                    <def:ValueListRef ValueListOID="ValueList.SUPPMI.QNAM"/>
               </ItemDef>
               <ItemDef Comment="" DataType="text" Length="16"
                    Name="QLABEL" OID="SUPPMI.QLABEL" Origin="OTHER" def:Label="Qualifier Variable Label"/>
               <ItemDef Comment="" DataType="text" Length="53"
                    Name="QVAL" OID="SUPPMI.QVAL" Origin="COLLECTED" def:Label="Data Value"/>
               <ItemDef Comment="" DataType="text" Length="9"
                    Name="QORIG" OID="SUPPMI.QORIG" Origin="OTHER" def:Label="Origin"/>
               <ItemDef Comment="" DataType="text" Length="1"
                    Name="QEVAL" OID="SUPPMI.QEVAL" Origin=" " def:Label="Evaluator"/>
               <ItemDef Comment="" DataType="text" Length="8"
                    Name="STUDYID" OID="TA.STUDYID" Origin="OTHER" def:Label="Study Identifier"/>
               <ItemDef Comment="" DataType="text" Length="2"
                    Name="DOMAIN" OID="TA.DOMAIN" Origin="OTHER" def:Label="Domain Abbreviation">
                    <CodeListRef CodeListOID="DOMAIN"/>
               </ItemDef>
               <ItemDef Comment="" DataType="text" Length="1"
                    Name="ARMCD" OID="TA.ARMCD" Origin="OTHER" def:Label="Planned Arm Code"/>
               <ItemDef Comment="" DataType="text" Length="17"
                    Name="ARM" OID="TA.ARM" Origin="OTHER" def:Label="Description of Planned Arm"/>
               <ItemDef Comment="" DataType="integer" Length="8"
                    Name="TAETORD" OID="TA.TAETORD" Origin="OTHER"
                    def:DisplayFormat="8.0" def:Label="Order of Element within Arm"/>
               <ItemDef Comment="" DataType="text" Length="4"
                    Name="ETCD" OID="TA.ETCD" Origin="OTHER" def:Label="Element Code"/>
               <ItemDef Comment="" DataType="text" Length="28"
                    Name="ELEMENT" OID="TA.ELEMENT" Origin="OTHER" def:Label="Description of Element"/>
               <ItemDef Comment="" DataType="text" Length="8"
                    Name="EPOCH" OID="TA.EPOCH" Origin="OTHER" def:Label="Trial Epoch"/>
               <ItemDef Comment="" DataType="text" Length="8"
                    Name="STUDYID" OID="TE.STUDYID" Origin="OTHER" def:Label="Study Identifier"/>
               <ItemDef Comment="" DataType="text" Length="2"
                    Name="DOMAIN" OID="TE.DOMAIN" Origin="OTHER" def:Label="Domain Abbreviation">
                    <CodeListRef CodeListOID="DOMAIN"/>
               </ItemDef>
               <ItemDef Comment="" DataType="text" Length="4"
                    Name="ETCD" OID="TE.ETCD" Origin="OTHER" def:Label="Element Code"/>
               <ItemDef Comment="" DataType="text" Length="28"
                    Name="ELEMENT" OID="TE.ELEMENT" Origin="OTHER" def:Label="Description of Element"/>
               <ItemDef Comment="" DataType="text" Length="21"
                    Name="TESTRL" OID="TE.TESTRL" Origin="OTHER" def:Label="Rule for Start of Element"/>
               <ItemDef Comment="" DataType="text" Length="15"
                    Name="TEENRL" OID="TE.TEENRL" Origin="OTHER" def:Label="Rule for End of Element"/>
               <ItemDef Comment="" DataType="text" Length="4"
                    Name="TEDUR" OID="TE.TEDUR" Origin="OTHER" def:Label="Planned Duration of Element"/>
               <ItemDef Comment="" DataType="text" Length="8"
                    Name="STUDYID" OID="TS.STUDYID" Origin="OTHER" def:Label="Study Identifier"/>
               <ItemDef Comment="" DataType="text" Length="2"
                    Name="DOMAIN" OID="TS.DOMAIN" Origin="OTHER" def:Label="Domain Abbreviation">
                    <CodeListRef CodeListOID="DOMAIN"/>
               </ItemDef>
               <ItemDef
                    Comment="Sequential number identifying records in the domain"
                    DataType="integer" Length="8" Name="TSSEQ"
                    OID="TS.TSSEQ" Origin="OTHER"
                    def:DisplayFormat="8.0" def:Label="Sequence Number"/>
               <ItemDef Comment="Not populated" DataType="text"
                    Length="1" Name="TSGRPID" OID="TS.TSGRPID"
                    Origin="OTHER" def:Label="Group Identifier"/>
               <ItemDef Comment="" DataType="text" Length="8"
                    Name="TSPARMCD" OID="TS.TSPARMCD" Origin="OTHER" def:Label="Trial Summary Parameter Short Name">
                    <def:ValueListRef ValueListOID="ValueList.TS.TSPARMCD"/>
               </ItemDef>
               <ItemDef Comment="" DataType="text" Length="37"
                    Name="TSPARM" OID="TS.TSPARM" Origin="OTHER" def:Label="Trial Summary Parameter"/>
               <ItemDef Comment="" DataType="text" Length="37"
                    Name="TSVAL" OID="TS.TSVAL" Origin="OTHER" def:Label="Parameter Value"/>
               <ItemDef Comment="" DataType="text" Length="8"
                    Name="STUDYID" OID="TX.STUDYID" Origin="OTHER" def:Label="Study Identifier"/>
               <ItemDef Comment="" DataType="text" Length="2"
                    Name="DOMAIN" OID="TX.DOMAIN" Origin="OTHER" def:Label="Domain Abbreviation">
                    <CodeListRef CodeListOID="DOMAIN"/>
               </ItemDef>
               <ItemDef Comment="" DataType="text" Length="1"
                    Name="SETCD" OID="TX.SETCD" Origin="OTHER" def:Label="Set Code"/>
               <ItemDef Comment="" DataType="text" Length="17"
                    Name="SET" OID="TX.SET" Origin="OTHER" def:Label="Set Description"/>
               <ItemDef
                    Comment="Sequential number identifying records in the domain"
                    DataType="integer" Length="8" Name="TXSEQ"
                    OID="TX.TXSEQ" Origin="OTHER"
                    def:DisplayFormat="8.0" def:Label="Sequence Number"/>
               <ItemDef Comment="" DataType="text" Length="7"
                    Name="TXPARMCD" OID="TX.TXPARMCD" Origin="OTHER" def:Label="Trial Set Parameter Short Name">
                    <def:ValueListRef ValueListOID="ValueList.TX.TXPARMCD"/>
               </ItemDef>
               <ItemDef Comment="" DataType="text" Length="26"
                    Name="TXPARM" OID="TX.TXPARM" Origin="OTHER" def:Label="Trial Set Parameter"/>
               <ItemDef Comment="" DataType="text" Length="25"
                    Name="TXVAL" OID="TX.TXVAL" Origin="OTHER" def:Label="Trial Set Parameter Value"/>
               <ItemDef Comment="" DataType="float" Length="5"
                    Name="BWGAIN" OID="BG.BGTESTCD.BWGAIN"
                    Origin="DERIVED" SignificantDigits="2"
                    def:DisplayFormat="5.2" def:Label="Body Weight Gain"/>
               <ItemDef Comment="" DataType="float" Length="4" Name="BW"
                    OID="BW.BWTESTCD.BW" Origin="DERIVED"
                    SignificantDigits="2" def:DisplayFormat="4.2" def:Label="Body Weight"/>
               <ItemDef Comment="" DataType="float" Length="4"
                    Name="TERMBW" OID="BW.BWTESTCD.TERMBW"
                    Origin="DERIVED" SignificantDigits="2"
                    def:DisplayFormat="4.2" def:Label="Terminal Body Weight"/>
               <ItemDef Comment="" DataType="text" Length="49"
                    Name="CLINICAL SIGNS" OID="CL.CLCAT.CLINICAL SIGNS"
                    Origin="OTHER" def:Label="CLINICAL SIGNS">
                    <def:ValueListRef ValueListOID="ValueList.CL.CLCAT.CLINICAL SIGNS.CLTESTCD"/>
               </ItemDef>
               <ItemDef Comment="" DataType="text" Length="47"
                    Name="PHYSICAL EXAM" OID="CL.CLCAT.PHYSICAL EXAM"
                    Origin="OTHER" def:Label="PHYSICAL EXAM">
                    <def:ValueListRef ValueListOID="ValueList.CL.CLCAT.PHYSICAL EXAM.CLTESTCD"/>
               </ItemDef>
               <ItemDef Comment="" DataType="text" Length="21"
                    Name="GEN"
                    OID="CL.CLCAT.CLINICAL SIGNS.CLTESTCD.GEN"
                    Origin="DERIVED" def:Label="General"/>
               <ItemDef Comment="" DataType="text" Length="41" Name="HA"
                    OID="CL.CLCAT.CLINICAL SIGNS.CLTESTCD.HA"
                    Origin="DERIVED" def:Label="Hair"/>
               <ItemDef Comment="" DataType="text" Length="49" Name="IS"
                    OID="CL.CLCAT.CLINICAL SIGNS.CLTESTCD.IS"
                    Origin="DERIVED" def:Label="Injection Site"/>
               <ItemDef Comment="" DataType="text" Length="25" Name="N"
                    OID="CL.CLCAT.CLINICAL SIGNS.CLTESTCD.N"
                    Origin="DERIVED" def:Label="Normal"/>
               <ItemDef Comment="" DataType="text" Length="36" Name="SE"
                    OID="CL.CLCAT.CLINICAL SIGNS.CLTESTCD.SE"
                    Origin="DERIVED" def:Label="Secretion/Excretion"/>
               <ItemDef Comment="" DataType="text" Length="37" Name="SK"
                    OID="CL.CLCAT.CLINICAL SIGNS.CLTESTCD.SK"
                    Origin="DERIVED" def:Label="Skin"/>
               <ItemDef Comment="" DataType="text" Length="39"
                    Name="GEN" OID="CL.CLCAT.PHYSICAL EXAM.CLTESTCD.GEN"
                    Origin="DERIVED" def:Label="General"/>
               <ItemDef Comment="" DataType="text" Length="25" Name="N"
                    OID="CL.CLCAT.PHYSICAL EXAM.CLTESTCD.N"
                    Origin="DERIVED" def:Label="Normal"/>
               <ItemDef Comment="" DataType="text" Length="34" Name="SE"
                    OID="CL.CLCAT.PHYSICAL EXAM.CLTESTCD.SE"
                    Origin="DERIVED" def:Label="Secretion/Excretion"/>
               <ItemDef Comment="" DataType="text" Length="47" Name="SK"
                    OID="CL.CLCAT.PHYSICAL EXAM.CLTESTCD.SK"
                    Origin="DERIVED" def:Label="Skin"/>
               <ItemDef Comment="" DataType="float" Length="4"
                    Name="Clinical Chemistry"
                    OID="LB.LBCAT.Clinical Chemistry" Origin="OTHER"
                    SignificantDigits="1" def:DisplayFormat="5.1" def:Label="Clinical Chemistry">
                    <def:ValueListRef ValueListOID="ValueList.LB.LBCAT.Clinical Chemistry.LBTESTCD"/>
               </ItemDef>
               <ItemDef Comment="" DataType="float" Length="4"
                    Name="Coagulation" OID="LB.LBCAT.Coagulation"
                    Origin="OTHER" SignificantDigits="1"
                    def:DisplayFormat="5.1" def:Label="Coagulation">
                    <def:ValueListRef ValueListOID="ValueList.LB.LBCAT.Coagulation.LBTESTCD"/>
               </ItemDef>
               <ItemDef Comment="" DataType="text" Length="5"
                    Name="Hematology" OID="LB.LBCAT.Hematology"
                    Origin="OTHER" def:Label="Hematology">
                    <def:ValueListRef ValueListOID="ValueList.LB.LBCAT.Hematology.LBTESTCD"/>
               </ItemDef>
               <ItemDef Comment="" DataType="float" Length="3"
                    Name="ALB"
                    OID="LB.LBCAT.Clinical Chemistry.LBTESTCD.ALB"
                    Origin="DERIVED" SignificantDigits="1"
                    def:DisplayFormat="3.1" def:Label="Albumin"/>
               <ItemDef Comment="" DataType="float" Length="3"
                    Name="ALBGLOB"
                    OID="LB.LBCAT.Clinical Chemistry.LBTESTCD.ALBGLOB"
                    Origin="DERIVED" SignificantDigits="1"
                    def:DisplayFormat="3.1" def:Label="Albumin/Globulin"/>
               <ItemDef Comment="" DataType="integer" Length="3"
                    Name="ALP"
                    OID="LB.LBCAT.Clinical Chemistry.LBTESTCD.ALP"
                    Origin="DERIVED" def:DisplayFormat="3.0" def:Label="Alkaline Phosphatase"/>
               <ItemDef Comment="" DataType="integer" Length="3"
                    Name="ALT"
                    OID="LB.LBCAT.Clinical Chemistry.LBTESTCD.ALT"
                    Origin="DERIVED" def:DisplayFormat="3.0" def:Label="Alanine Aminotransferase"/>
               <ItemDef Comment="" DataType="integer" Length="3"
                    Name="AST"
                    OID="LB.LBCAT.Clinical Chemistry.LBTESTCD.AST"
                    Origin="DERIVED" def:DisplayFormat="3.0" def:Label="Aspartate Aminotransferase"/>
               <ItemDef Comment="" DataType="integer" Length="3"
                    Name="BICARB"
                    OID="LB.LBCAT.Clinical Chemistry.LBTESTCD.BICARB"
                    Origin="DERIVED" def:DisplayFormat="3.0" def:Label="Bicarbonate"/>
               <ItemDef Comment="" DataType="float" Length="3"
                    Name="BILI"
                    OID="LB.LBCAT.Clinical Chemistry.LBTESTCD.BILI"
                    Origin="DERIVED" SignificantDigits="1"
                    def:DisplayFormat="3.1" def:Label="Bilirubin"/>
               <ItemDef Comment="" DataType="integer" Length="3"
                    Name="BUN"
                    OID="LB.LBCAT.Clinical Chemistry.LBTESTCD.BUN"
                    Origin="DERIVED" def:DisplayFormat="3.0" def:Label="Blood Urea Nitrogen"/>
               <ItemDef Comment="" DataType="float" Length="4" Name="CA"
                    OID="LB.LBCAT.Clinical Chemistry.LBTESTCD.CA"
                    Origin="DERIVED" SignificantDigits="1"
                    def:DisplayFormat="4.1" def:Label="Calcium"/>
               <ItemDef Comment="" DataType="integer" Length="3"
                    Name="CHOL"
                    OID="LB.LBCAT.Clinical Chemistry.LBTESTCD.CHOL"
                    Origin="DERIVED" def:DisplayFormat="3.0" def:Label="Cholesterol"/>
               <ItemDef Comment="" DataType="integer" Length="3"
                    Name="CK"
                    OID="LB.LBCAT.Clinical Chemistry.LBTESTCD.CK"
                    Origin="DERIVED" def:DisplayFormat="3.0" def:Label="Creatine Kinase"/>
               <ItemDef Comment="" DataType="integer" Length="3"
                    Name="CL"
                    OID="LB.LBCAT.Clinical Chemistry.LBTESTCD.CL"
                    Origin="DERIVED" def:DisplayFormat="3.0" def:Label="Chloride"/>
               <ItemDef Comment="" DataType="float" Length="3"
                    Name="CREAT"
                    OID="LB.LBCAT.Clinical Chemistry.LBTESTCD.CREAT"
                    Origin="DERIVED" SignificantDigits="1"
                    def:DisplayFormat="3.1" def:Label="Creatinine"/>
               <ItemDef Comment="" DataType="integer" Length="3"
                    Name="GGT"
                    OID="LB.LBCAT.Clinical Chemistry.LBTESTCD.GGT"
                    Origin="DERIVED" def:DisplayFormat="3.0" def:Label="Gamma Glutamyl Transferase"/>
               <ItemDef Comment="" DataType="float" Length="3"
                    Name="GLOBUL"
                    OID="LB.LBCAT.Clinical Chemistry.LBTESTCD.GLOBUL"
                    Origin="DERIVED" SignificantDigits="1"
                    def:DisplayFormat="3.1" def:Label="Globulin"/>
               <ItemDef Comment="" DataType="integer" Length="3"
                    Name="GLUC"
                    OID="LB.LBCAT.Clinical Chemistry.LBTESTCD.GLUC"
                    Origin="DERIVED" def:DisplayFormat="3.0" def:Label="Glucose"/>
               <ItemDef Comment="" DataType="float" Length="3" Name="K"
                    OID="LB.LBCAT.Clinical Chemistry.LBTESTCD.K"
                    Origin="DERIVED" SignificantDigits="1"
                    def:DisplayFormat="3.1" def:Label="Potassium"/>
               <ItemDef Comment="" DataType="float" Length="3"
                    Name="PHOS"
                    OID="LB.LBCAT.Clinical Chemistry.LBTESTCD.PHOS"
                    Origin="DERIVED" SignificantDigits="1"
                    def:DisplayFormat="3.1" def:Label="Phosphate"/>
               <ItemDef Comment="" DataType="float" Length="3"
                    Name="PROT"
                    OID="LB.LBCAT.Clinical Chemistry.LBTESTCD.PROT"
                    Origin="DERIVED" SignificantDigits="1"
                    def:DisplayFormat="3.1" def:Label="Protein"/>
               <ItemDef Comment="" DataType="integer" Length="3"
                    Name="SODIUM"
                    OID="LB.LBCAT.Clinical Chemistry.LBTESTCD.SODIUM"
                    Origin="DERIVED" def:DisplayFormat="3.0" def:Label="Sodium"/>
               <ItemDef Comment="" DataType="integer" Length="3"
                    Name="TRIG"
                    OID="LB.LBCAT.Clinical Chemistry.LBTESTCD.TRIG"
                    Origin="DERIVED" def:DisplayFormat="3.0" def:Label="Triglycerides"/>
               <ItemDef Comment="" DataType="float" Length="4"
                    Name="APTT" OID="LB.LBCAT.Coagulation.LBTESTCD.APTT"
                    Origin="DERIVED" SignificantDigits="1"
                    def:DisplayFormat="4.1" def:Label="Activated Partial Thromboplastin Time"/>
               <ItemDef Comment="" DataType="integer" Length="3"
                    Name="FIBRINO"
                    OID="LB.LBCAT.Coagulation.LBTESTCD.FIBRINO"
                    Origin="DERIVED" def:DisplayFormat="3.0" def:Label="Fibrinogen"/>
               <ItemDef Comment="" DataType="float" Length="4" Name="PT"
                    OID="LB.LBCAT.Coagulation.LBTESTCD.PT"
                    Origin="DERIVED" SignificantDigits="1"
                    def:DisplayFormat="4.1" def:Label="Prothrombin Time"/>
               <ItemDef Comment="" DataType="float" Length="4"
                    Name="BASO" OID="LB.LBCAT.Hematology.LBTESTCD.BASO"
                    Origin="DERIVED" SignificantDigits="2"
                    def:DisplayFormat="4.2" def:Label="Basophils"/>
               <ItemDef Comment="" DataType="float" Length="4"
                    Name="EOS" OID="LB.LBCAT.Hematology.LBTESTCD.EOS"
                    Origin="DERIVED" SignificantDigits="2"
                    def:DisplayFormat="4.2" def:Label="Eosinophils"/>
               <ItemDef Comment="" DataType="text" Length="4" Name="HCT"
                    OID="LB.LBCAT.Hematology.LBTESTCD.HCT"
                    Origin="DERIVED" def:Label="Hematocrit"/>
               <ItemDef Comment="" DataType="text" Length="4" Name="HGB"
                    OID="LB.LBCAT.Hematology.LBTESTCD.HGB"
                    Origin="DERIVED" def:Label="Hemoglobin"/>
               <ItemDef Comment="" DataType="float" Length="5"
                    Name="LYM" OID="LB.LBCAT.Hematology.LBTESTCD.LYM"
                    Origin="DERIVED" SignificantDigits="2"
                    def:DisplayFormat="5.2" def:Label="Lymphocytes"/>
               <ItemDef Comment="" DataType="text" Length="4" Name="MCH"
                    OID="LB.LBCAT.Hematology.LBTESTCD.MCH"
                    Origin="DERIVED" def:Label="Ery. Mean Corpuscular Hemoglobin"/>
               <ItemDef Comment="" DataType="text" Length="4"
                    Name="MCHC" OID="LB.LBCAT.Hematology.LBTESTCD.MCHC"
                    Origin="DERIVED" def:Label="Ery. Mean Corpuscular HGB Concentration"/>
               <ItemDef Comment="" DataType="text" Length="4" Name="MCV"
                    OID="LB.LBCAT.Hematology.LBTESTCD.MCV"
                    Origin="DERIVED" def:Label="Ery. Mean Corpuscular Volume"/>
               <ItemDef Comment="" DataType="float" Length="4"
                    Name="MONO" OID="LB.LBCAT.Hematology.LBTESTCD.MONO"
                    Origin="DERIVED" SignificantDigits="2"
                    def:DisplayFormat="4.2" def:Label="Monocytes"/>
               <ItemDef Comment="" DataType="float" Length="3"
                    Name="MPV" OID="LB.LBCAT.Hematology.LBTESTCD.MPV"
                    Origin="DERIVED" SignificantDigits="1"
                    def:DisplayFormat="3.1" def:Label="Mean Platelet Volume"/>
               <ItemDef Comment="" DataType="float" Length="5"
                    Name="NEUT" OID="LB.LBCAT.Hematology.LBTESTCD.NEUT"
                    Origin="DERIVED" SignificantDigits="2"
                    def:DisplayFormat="5.2" def:Label="Neutrophils"/>
               <ItemDef Comment="" DataType="integer" Length="3"
                    Name="PLAT" OID="LB.LBCAT.Hematology.LBTESTCD.PLAT"
                    Origin="DERIVED" def:DisplayFormat="3.0" def:Label="Platelets"/>
               <ItemDef Comment="" DataType="text" Length="4" Name="RBC"
                    OID="LB.LBCAT.Hematology.LBTESTCD.RBC"
                    Origin="DERIVED" def:Label="Erythrocytes"/>
               <ItemDef Comment="" DataType="text" Length="4" Name="RDW"
                    OID="LB.LBCAT.Hematology.LBTESTCD.RDW"
                    Origin="DERIVED" def:Label="Erythrocytes Distribution Width"/>
               <ItemDef Comment="" DataType="float" Length="5"
                    Name="RETI" OID="LB.LBCAT.Hematology.LBTESTCD.RETI"
                    Origin="DERIVED" SignificantDigits="1"
                    def:DisplayFormat="5.1" def:Label="Reticulocytes"/>
               <ItemDef Comment="" DataType="float" Length="5"
                    Name="WBC" OID="LB.LBCAT.Hematology.LBTESTCD.WBC"
                    Origin="DERIVED" SignificantDigits="2"
                    def:DisplayFormat="5.2" def:Label="Leukocytes"/>
               <ItemDef Comment="" DataType="text" Length="44"
                    Name="GROSPATH" OID="MA.MATESTCD.GROSPATH"
                    Origin="DERIVED" def:Label="Gross Pathological Examination"/>
               <ItemDef Comment="" DataType="text" Length="6" Name=""
                    OID="MI.MIRESCAT." Origin="COLLECTED" def:Label=""/>
               <ItemDef Comment="" DataType="text" Length="90"
                    Name="NON-NEOPLASTIC"
                    OID="MI.MIRESCAT.NON-NEOPLASTIC" Origin="COLLECTED" def:Label="NON-NEOPLASTIC"/>
               <ItemDef Comment="" DataType="text" Length="99"
                    Name="MIEXAM" OID="MI.MITESTCD.MIEXAM"
                    Origin="DERIVED" def:Label="Microscopic Examination"/>
               <ItemDef Comment="" DataType="float" Length="5"
                    Name="OWBW" OID="OM.OMTESTCD.OWBW" Origin="DERIVED"
                    SignificantDigits="3"
                    def:ComputationMethodOID="COMPMETHOD.COMPOWBW"
                    def:DisplayFormat="5.3" def:Label="Organ to Body Weight Ratio"/>
               <ItemDef Comment="" DataType="float" Length="6"
                    Name="WEIGHT" OID="OM.OMTESTCD.WEIGHT"
                    Origin="DERIVED" SignificantDigits="3"
                    def:ComputationMethodOID="COMPMETHOD.COMPSTRESC"
                    def:DisplayFormat="6.3" def:Label="Weight"/>
               <ItemDef Comment="" DataType="text" Length="24"
                    Name="PDAR30AC" OID="PC.PCTESTCD.PDAR30AC"
                    Origin="DERIVED" def:Label="Compound_2 ADC Assoc. War. Conc."/>
               <ItemDef Comment="" DataType="text" Length="24"
                    Name="PDAR30CC" OID="PC.PCTESTCD.PDAR30CC"
                    Origin="DERIVED" def:Label="Compound_2 Conjugated Conc."/>
               <ItemDef Comment="" DataType="text" Length="24"
                    Name="PDAR30MC" OID="PC.PCTESTCD.PDAR30MC"
                    Origin="DERIVED" def:Label="Compound_2 Free MMAE Conc."/>
               <ItemDef Comment="" DataType="text" Length="24"
                    Name="PDAR30TC" OID="PC.PCTESTCD.PDAR30TC"
                    Origin="DERIVED" def:Label="Compound_2 Total Concentration"/>
               <ItemDef Comment="" DataType="float" Length="5"
                    Name="PDAR38AC" OID="PC.PCTESTCD.PDAR38AC"
                    Origin="DERIVED" SignificantDigits="1"
                    def:DisplayFormat="5.1" def:Label="Compound_2B ADC Assoc. War. Conc."/>
               <ItemDef Comment="" DataType="text" Length="24"
                    Name="PDAR38CC" OID="PC.PCTESTCD.PDAR38CC"
                    Origin="DERIVED" def:Label="Compound_2B Conjugated Conc."/>
               <ItemDef Comment="" DataType="text" Length="24"
                    Name="PDAR38MC" OID="PC.PCTESTCD.PDAR38MC"
                    Origin="DERIVED" def:Label="Compound_2B Free MMAE Conc."/>
               <ItemDef Comment="" DataType="text" Length="24"
                    Name="PDAR38TC" OID="PC.PCTESTCD.PDAR38TC"
                    Origin="DERIVED" def:Label="Compound_2B Total Concentration"/>
               <ItemDef Comment="" DataType="float" Length="5"
                    Name="PE2AC" OID="PC.PCTESTCD.PE2AC"
                    Origin="DERIVED" SignificantDigits="1"
                    def:DisplayFormat="5.1" def:Label="Compound_1 ADC Assoc. Warhead Conc."/>
               <ItemDef Comment="" DataType="text" Length="24"
                    Name="PE2CC" OID="PC.PCTESTCD.PE2CC"
                    Origin="DERIVED" def:Label="Compound_1 Conjugated Conc."/>
               <ItemDef Comment="" DataType="text" Length="24"
                    Name="PE2MC" OID="PC.PCTESTCD.PE2MC"
                    Origin="DERIVED" def:Label="Compound_1 Free MMAE Conc."/>
               <ItemDef Comment="" DataType="text" Length="24"
                    Name="PE2TC" OID="PC.PCTESTCD.PE2TC"
                    Origin="DERIVED" def:Label="Compound_1 Total Concentration"/>
               <ItemDef Comment="" DataType="float" Length="5"
                    Name="ADC Associated Warhead Concentration"
                    OID="PP.PPCAT.ADC Associated Warhead Concentration"
                    Origin="OTHER" SignificantDigits="1"
                    def:DisplayFormat="5.1" def:Label="ADC Associated Warhead Concentration">
                    <def:ValueListRef ValueListOID="ValueList.PP.PPCAT.ADC Associated Warhead Concentration.PPTESTCD"/>
               </ItemDef>
               <ItemDef Comment="" DataType="float" Length="5"
                    Name="Conjugated Concentration"
                    OID="PP.PPCAT.Conjugated Concentration"
                    Origin="OTHER" SignificantDigits="1"
                    def:DisplayFormat="5.1" def:Label="Conjugated Concentration">
                    <def:ValueListRef ValueListOID="ValueList.PP.PPCAT.Conjugated Concentration.PPTESTCD"/>
               </ItemDef>
               <ItemDef Comment="" DataType="float" Length="5"
                    Name="Free MMAE Concentration"
                    OID="PP.PPCAT.Free MMAE Concentration"
                    Origin="OTHER" SignificantDigits="3"
                    def:DisplayFormat="6.3" def:Label="Free MMAE Concentration">
                    <def:ValueListRef ValueListOID="ValueList.PP.PPCAT.Free MMAE Concentration.PPTESTCD"/>
               </ItemDef>
               <ItemDef Comment="" DataType="float" Length="5"
                    Name="Total Concentration"
                    OID="PP.PPCAT.Total Concentration" Origin="OTHER"
                    SignificantDigits="1" def:DisplayFormat="5.1" def:Label="Total Concentration">
                    <def:ValueListRef ValueListOID="ValueList.PP.PPCAT.Total Concentration.PPTESTCD"/>
               </ItemDef>
               <ItemDef Comment="" DataType="float" Length="4"
                    Name="AUCINT"
                    OID="PP.PPCAT.ADC Associated Warhead Concentration.PPTESTCD.AUCINT"
                    Origin="DERIVED" SignificantDigits="1"
                    def:DisplayFormat="4.1" def:Label="AUC from T1 to T2"/>
               <ItemDef Comment="" DataType="float" Length="3"
                    Name="AUCINTD"
                    OID="PP.PPCAT.ADC Associated Warhead Concentration.PPTESTCD.AUCINTD"
                    Origin="DERIVED" SignificantDigits="1"
                    def:DisplayFormat="3.1" def:Label="AUC from T1 to T2 Norm by Dose"/>
               <ItemDef Comment="" DataType="float" Length="5"
                    Name="CONC"
                    OID="PP.PPCAT.ADC Associated Warhead Concentration.PPTESTCD.CONC"
                    Origin="DERIVED" SignificantDigits="1"
                    def:DisplayFormat="5.1" def:Label="Concentration"/>
               <ItemDef Comment="" DataType="float" Length="5"
                    Name="CONCD"
                    OID="PP.PPCAT.ADC Associated Warhead Concentration.PPTESTCD.CONCD"
                    Origin="DERIVED" SignificantDigits="1"
                    def:DisplayFormat="5.1" def:Label="Conc by Dose"/>
               <ItemDef Comment="" DataType="float" Length="5"
                    Name="LAMZHL"
                    OID="PP.PPCAT.ADC Associated Warhead Concentration.PPTESTCD.LAMZHL"
                    Origin="DERIVED" SignificantDigits="1"
                    def:DisplayFormat="5.1" def:Label="Half-Life Lambda z"/>
               <ItemDef Comment="" DataType="float" Length="4"
                    Name="AUCINT"
                    OID="PP.PPCAT.Conjugated Concentration.PPTESTCD.AUCINT"
                    Origin="DERIVED" SignificantDigits="1"
                    def:DisplayFormat="4.1" def:Label="AUC from T1 to T2"/>
               <ItemDef Comment="" DataType="float" Length="3"
                    Name="AUCINTD"
                    OID="PP.PPCAT.Conjugated Concentration.PPTESTCD.AUCINTD"
                    Origin="DERIVED" SignificantDigits="1"
                    def:DisplayFormat="3.1" def:Label="AUC from T1 to T2 Norm by Dose"/>
               <ItemDef Comment="" DataType="float" Length="5"
                    Name="CONC"
                    OID="PP.PPCAT.Conjugated Concentration.PPTESTCD.CONC"
                    Origin="DERIVED" SignificantDigits="1"
                    def:DisplayFormat="5.1" def:Label="Concentration"/>
               <ItemDef Comment="" DataType="float" Length="4"
                    Name="CONCD"
                    OID="PP.PPCAT.Conjugated Concentration.PPTESTCD.CONCD"
                    Origin="DERIVED" SignificantDigits="1"
                    def:DisplayFormat="4.1" def:Label="Conc by Dose"/>
               <ItemDef Comment="" DataType="float" Length="5"
                    Name="LAMZHL"
                    OID="PP.PPCAT.Conjugated Concentration.PPTESTCD.LAMZHL"
                    Origin="DERIVED" SignificantDigits="1"
                    def:DisplayFormat="5.1" def:Label="Half-Life Lambda z"/>
               <ItemDef Comment="" DataType="float" Length="4"
                    Name="AUCINT"
                    OID="PP.PPCAT.Free MMAE Concentration.PPTESTCD.AUCINT"
                    Origin="DERIVED" SignificantDigits="1"
                    def:DisplayFormat="4.1" def:Label="AUC from T1 to T2"/>
               <ItemDef Comment="" DataType="float" Length="3"
                    Name="AUCINTD"
                    OID="PP.PPCAT.Free MMAE Concentration.PPTESTCD.AUCINTD"
                    Origin="DERIVED" SignificantDigits="1"
                    def:DisplayFormat="3.1" def:Label="AUC from T1 to T2 Norm by Dose"/>
               <ItemDef Comment="" DataType="float" Length="5"
                    Name="CMAX"
                    OID="PP.PPCAT.Free MMAE Concentration.PPTESTCD.CMAX"
                    Origin="DERIVED" SignificantDigits="3"
                    def:DisplayFormat="5.3" def:Label="Max Conc"/>
               <ItemDef Comment="" DataType="float" Length="5"
                    Name="CMAXD"
                    OID="PP.PPCAT.Free MMAE Concentration.PPTESTCD.CMAXD"
                    Origin="DERIVED" SignificantDigits="3"
                    def:DisplayFormat="5.3" def:Label="Max Conc Norm by Dose"/>
               <ItemDef Comment="" DataType="float" Length="4"
                    Name="TMAX"
                    OID="PP.PPCAT.Free MMAE Concentration.PPTESTCD.TMAX"
                    Origin="DERIVED" SignificantDigits="2"
                    def:DisplayFormat="5.2" def:Label="Time of CMAX"/>
               <ItemDef Comment="" DataType="float" Length="4"
                    Name="AUCINT"
                    OID="PP.PPCAT.Total Concentration.PPTESTCD.AUCINT"
                    Origin="DERIVED" SignificantDigits="1"
                    def:DisplayFormat="4.1" def:Label="AUC from T1 to T2"/>
               <ItemDef Comment="" DataType="float" Length="3"
                    Name="AUCINTD"
                    OID="PP.PPCAT.Total Concentration.PPTESTCD.AUCINTD"
                    Origin="DERIVED" SignificantDigits="1"
                    def:DisplayFormat="3.1" def:Label="AUC from T1 to T2 Norm by Dose"/>
               <ItemDef Comment="" DataType="float" Length="5"
                    Name="CONC"
                    OID="PP.PPCAT.Total Concentration.PPTESTCD.CONC"
                    Origin="DERIVED" SignificantDigits="1"
                    def:DisplayFormat="5.1" def:Label="Concentration"/>
               <ItemDef Comment="" DataType="float" Length="4"
                    Name="CONCD"
                    OID="PP.PPCAT.Total Concentration.PPTESTCD.CONCD"
                    Origin="DERIVED" SignificantDigits="1"
                    def:DisplayFormat="4.1" def:Label="Conc by Dose"/>
               <ItemDef Comment="" DataType="float" Length="5"
