KeyWords: AE, Severity
Script: 
  Desc   : Script description
  Name   : Script name following the proposed convention: https://github.com/phuse-org/phuse-scripts/blob/master/naming_conventions_proposed.txt
  GCR    : r135
  SRV    : 12345
  Source : FDA JumpStart
  Target : https://github.com/phuse-org/phuse-scripts/blob/master/tested/SAS/SpecDocs/Analysis%20Panel%20Instructions.doc
  Title  : AE Severity Analysis Panel
  Topic  : Severity
  Type   : analysis
  Subtype: TFL
Package:
  name : SAS Analysis Panels
  title: FDA JumpStart analysis package
Language: 
  name   : SAS
  version: 9.2.x, 9.4.x
Comments: >
  The AE Severity Analysis Panel provides the user with different analyses 
  to help understand the adverse events present in the study and the 
  frequency of their occurrence by treatment arm. Statistical and 
  frequency reports are generated to provide the user with needed information.  
  The Adverse Event analysis panel generates three separate Excel workbooks. 
  1. Adverse Events Counts:  provides various combinations of counts and 
     percentages of most frequent adverse events and serious adverse events 
      by treatment arm
  2. Adverse Events Relative Risk: provides a listing of the relative risk of
     adverse events between arms with their corresponding confidence intervals
  3. Adverse Events Odds Ratio: provides a listing of odds ratios of adverse 
     events between arms with their corresponding confidence intervals
  Dataset Requirements:
     Demographics          (DM)
     Adverse Event          (AE)
     Exposure               (EX)     
  Variable Requirements:
     DM      - Actual Arm            (ACTARM)
          - Planned Treatment Arm    (ARM)
          - Subject ID               (USUBJID)
          - Planned Arm Code         (ARMCD)
          - Subject Reference Start Date/Time     (RFSTDTC)
          - Subject Reference End Date/Time     (RFENDTC)
     AE     - Subject ID               (USUBJID)
          - Body system/organ class     (AEBODSYS)
          - Dictionary Derived Term     (AEDECOD)
          - Severity/intensity          (AESEV)
          - Serious Event                    (AESER)
          -Adverse Event Start Date/Time     (AESTDTC)
     EX     - Subject ID                    (USUBJID)
          - Exposure Start Date/Time     (EXSTDTC)
          - Exposure End Date/Time     (EXENDTC)
Inputs:
  datasets: DM, AE, EX
  P1: Studypath - location of the drug study datasets
  P2: Utilpath - location of external SAS programs
  P3: Templatepath - filename of the template
  P4: Outpath - location of the output
Outputs:
  datasets: Excel
  O1:
  O2:
Authors: 
  - name   : David Kretch
    email  : david.kretch@us.ibm.com
    company: FDA/IBM
    date   : 02/07/2011
  - name   : Andreas Anastassopoulos
    email  : andreas.anastassapoulos@us.ibm.com
    company: FDA/IBM
    date   : 02/07/2011
Qualification: 
  LastQualDate: MM/DD/YYYY 
  LastQualBy: FirstName LastName
  Stage: T
  Document: a link to latest documentation 
  Note: C - Contributed; D - Development; T - Testing; Q - Qualified
Stages: 
  - Date: 02/02/2016
    Name: Austin Taylor <Austin.Taylor@fda.hhs.gov>
    Stage: C 
    Docs: https://github.com/phuse-org/phuse-scripts/blob/master/tested/SAS/SpecDocs/AE%20Severity%20Analysis%20Specifications%20(3-24-2015).doc
  - Date: 03/07/2016
    Name: Rebeka Revis
    Stage: T
    Docs: https://github.com/phuse-org/phuse-scripts/blob/master/tested/SAS/AE/ae_v1upd.docx
Rating: 
  - User: Rebeka Revis
    Date: 03/07/2016
    Association: Lilly 
    Stars: 4
  - User: htu 
    Date: 03/10/2016 
    Association: Accenture
    Stars: 4.5

